rtcDate,rtcTime,aX,aY,aZ,gX,gY,gZ,dataRdy,output_Hz,
01/01/2000,01:23:43.31,17.08,-52.83,-863.03,166.25,-726.25,-315.0,1,100.0,
01/01/2000,01:23:43.33,17.45,-54.90,-886.09,87.50,-665.0,-376.25,1,100.0,
01/01/2000,01:23:43.34,17.81,-55.88,-905.00,140.0,-665.0,-358.75,1,75.0,
01/01/2000,01:23:43.35,18.30,-56.61,-915.73,131.25,-551.25,-411.25,1,80.0,
01/01/2000,01:23:43.36,18.42,-57.10,-925.13,332.50,-577.50,-253.75,1,83.333,
01/01/2000,01:23:43.37,18.54,-57.58,-933.42,210.0,-796.25,-376.25,1,85.714,
01/01/2000,01:23:43.38,18.79,-58.56,-944.16,192.50,-603.75,-253.75,1,87.500,
01/01/2000,01:23:43.39,18.79,-59.05,-950.14,210.0,-761.25,-315.0,1,88.889,
01/01/2000,01:23:43.40,18.79,-59.29,-955.26,192.50,-691.25,-411.25,1,90.0,
01/01/2000,01:23:43.41,18.91,-59.54,-961.73,201.25,-726.25,-385.0,1,90.909,
01/01/2000,01:23:43.42,19.03,-59.54,-965.75,131.25,-761.25,-210.0,1,91.667,
01/01/2000,01:23:43.44,19.15,-59.54,-969.41,166.25,-638.75,-210.0,1,92.308,
01/01/2000,01:23:43.44,19.15,-59.78,-972.34,140.0,-682.50,-253.75,1,92.857,
01/01/2000,01:23:43.46,19.03,-60.15,-975.88,26.25,-656.25,-402.50,1,93.333,
01/01/2000,01:23:43.47,19.03,-60.39,-977.83,210.0,-743.75,-393.75,1,93.750,
01/01/2000,01:23:43.48,19.28,-60.27,-979.78,201.25,-700.0,-297.50,1,94.118,
01/01/2000,01:23:43.49,19.52,-60.51,-981.61,70.0,-743.75,-358.75,1,94.444,
01/01/2000,01:23:43.50,19.28,-60.51,-983.81,280.0,-568.75,-271.25,1,94.737,
01/01/2000,01:23:43.51,19.28,-60.63,-984.78,201.25,-665.0,-297.50,1,95.0,
01/01/2000,01:23:43.52,19.40,-60.76,-985.88,52.50,-665.0,-332.50,1,95.238,
01/01/2000,01:23:43.53,19.64,-61.0,-987.47,105.0,-630.0,-315.0,1,95.455,
01/01/2000,01:23:43.54,19.76,-61.0,-988.20,17.50,-665.0,-236.25,1,95.652,
01/01/2000,01:23:43.55,19.76,-61.12,-988.93,183.75,-778.75,-358.75,1,95.833,
01/01/2000,01:23:43.56,19.64,-61.12,-989.54,105.0,-612.50,-341.25,1,96.0,
01/01/2000,01:23:43.57,19.64,-61.12,-990.15,131.25,-656.25,-393.75,1,96.154,
01/01/2000,01:23:43.58,19.76,-60.76,-990.88,157.50,-717.50,-288.75,1,96.296,
01/01/2000,01:23:43.59,19.89,-60.88,-991.13,122.50,-612.50,-367.50,1,96.429,
01/01/2000,01:23:43.60,19.76,-61.0,-991.37,87.50,-743.75,-350.0,1,96.552,
01/01/2000,01:23:43.61,19.64,-61.24,-991.74,157.50,-822.50,-358.75,1,93.548,
01/01/2000,01:23:43.62,19.64,-61.24,-992.10,52.50,-656.25,-411.25,1,96.774,
01/01/2000,01:23:43.63,19.76,-61.0,-992.47,140.0,-778.75,-253.75,1,93.939,
01/01/2000,01:23:43.64,19.76,-60.88,-992.47,140.0,-735.0,-332.50,1,94.118,
01/01/2000,01:23:43.65,19.76,-61.12,-992.47,166.25,-577.50,-437.50,1,94.286,
01/01/2000,01:23:43.67,19.64,-61.24,-992.35,183.75,-656.25,-393.75,1,94.444,
01/01/2000,01:23:43.68,19.76,-61.24,-992.71,306.25,-778.75,-437.50,1,94.595,
01/01/2000,01:23:43.69,19.76,-61.12,-992.84,175.0,-630.0,-288.75,1,94.737,
01/01/2000,01:23:43.70,19.76,-61.12,-992.71,61.25,-726.25,-323.75,1,94.872,
01/01/2000,01:23:43.71,19.52,-61.0,-992.59,105.0,-638.75,-367.50,1,95.0,
01/01/2000,01:23:43.72,19.64,-61.0,-992.71,140.0,-691.25,-376.25,1,95.122,
01/01/2000,01:23:43.73,19.76,-61.0,-992.84,175.0,-787.50,-297.50,1,95.238,
01/01/2000,01:23:43.74,19.76,-61.12,-993.08,280.0,-691.25,-367.50,1,95.349,
01/01/2000,01:23:43.75,19.76,-61.12,-993.08,288.75,-735.0,-472.50,1,95.455,
01/01/2000,01:23:43.76,19.76,-61.0,-993.08,0.0,-682.50,-288.75,1,95.556,
01/01/2000,01:23:43.77,19.76,-61.0,-993.32,148.75,-612.50,-332.50,1,95.652,
01/01/2000,01:23:43.78,19.89,-61.12,-993.45,131.25,-735.0,-253.75,1,95.745,
01/01/2000,01:23:43.79,19.89,-61.24,-993.32,157.50,-621.25,-332.50,1,95.833,
01/01/2000,01:23:43.80,19.76,-61.37,-993.20,78.75,-638.75,-367.50,1,95.918,
01/01/2000,01:23:43.81,19.64,-61.24,-993.32,157.50,-665.0,-402.50,1,94.118,
01/01/2000,01:23:43.82,19.64,-61.24,-993.57,245.0,-700.0,-288.75,1,94.231,
01/01/2000,01:23:43.84,19.64,-61.37,-993.57,131.25,-595.0,-280.0,1,94.340,
01/01/2000,01:23:43.85,19.52,-61.24,-993.32,175.0,-656.25,-332.50,1,94.444,
01/01/2000,01:23:43.86,19.52,-61.24,-993.08,96.25,-735.0,-306.25,1,94.545,
01/01/2000,01:23:43.87,19.64,-61.24,-993.08,17.50,-770.0,-297.50,1,94.643,
01/01/2000,01:23:43.88,19.76,-61.12,-992.96,122.50,-735.0,-323.75,1,94.737,
01/01/2000,01:23:43.89,19.76,-61.12,-992.96,122.50,-717.50,-306.25,1,94.828,
01/01/2000,01:23:43.90,19.76,-61.0,-993.08,175.0,-752.50,-420.0,1,94.915,
01/01/2000,01:23:43.91,19.64,-60.88,-993.20,192.50,-717.50,-341.25,1,95.0,
01/01/2000,01:23:43.92,19.76,-61.0,-993.32,175.0,-700.0,-323.75,1,95.082,
01/01/2000,01:23:43.93,19.76,-60.88,-993.20,183.75,-743.75,-358.75,1,95.161,
01/01/2000,01:23:43.94,19.52,-61.24,-992.96,236.25,-691.25,-411.25,1,95.238,
01/01/2000,01:23:43.95,19.52,-61.24,-992.84,96.25,-665.0,-376.25,1,93.846,
01/01/2000,01:23:43.96,19.64,-61.24,-992.71,210.0,-682.50,-402.50,1,93.939,
01/01/2000,01:23:43.97,19.52,-61.12,-992.84,17.50,-621.25,-437.50,1,94.030,
01/01/2000,01:23:43.98,19.40,-61.12,-992.84,201.25,-726.25,-402.50,1,94.118,
01/01/2000,01:23:43.99,19.52,-61.12,-992.96,227.50,-700.0,-262.50,1,94.203,
01/01/2000,01:23:44.00,19.76,-61.24,-992.96,96.25,-735.0,-315.0,1,94.286,
01/01/2000,01:23:44.01,19.76,-61.49,-992.96,192.50,-682.50,-332.50,1,94.366,
01/01/2000,01:23:44.03,19.76,-61.24,-992.84,245.0,-778.75,-376.25,1,94.444,
01/01/2000,01:23:44.04,19.76,-61.12,-992.84,201.25,-673.75,-253.75,1,94.521,
01/01/2000,01:23:44.05,19.76,-61.0,-992.84,271.25,-700.0,-323.75,1,94.595,
01/01/2000,01:23:44.06,19.76,-61.0,-992.71,131.25,-761.25,-315.0,1,94.667,
01/01/2000,01:23:44.07,19.64,-61.12,-992.59,148.75,-673.75,-350.0,1,94.737,
01/01/2000,01:23:44.08,19.52,-61.12,-992.59,175.0,-700.0,-402.50,1,94.805,
01/01/2000,01:23:44.09,19.76,-61.12,-992.71,96.25,-673.75,-385.0,1,94.872,
01/01/2000,01:23:44.10,19.76,-61.0,-992.84,122.50,-778.75,-350.0,1,94.937,
01/01/2000,01:23:44.11,19.76,-61.0,-992.71,175.0,-708.75,-297.50,1,95.0,
01/01/2000,01:23:44.12,19.76,-61.0,-992.59,262.50,-682.50,-332.50,1,95.062,
01/01/2000,01:23:44.13,19.89,-61.24,-992.47,122.50,-665.0,-358.75,1,95.122,
01/01/2000,01:23:44.14,20.01,-61.12,-992.47,43.75,-638.75,-350.0,1,95.181,
01/01/2000,01:23:44.15,19.89,-61.12,-992.35,140.0,-656.25,-402.50,1,95.238,
01/01/2000,01:23:44.17,19.76,-61.12,-992.23,245.0,-691.25,-323.75,1,94.186,
01/01/2000,01:23:44.18,19.52,-61.0,-992.35,183.75,-787.50,-367.50,1,94.253,
01/01/2000,01:23:44.19,19.52,-60.88,-992.35,288.75,-735.0,-253.75,1,94.318,
01/01/2000,01:23:44.20,19.52,-61.0,-992.35,218.75,-682.50,-341.25,1,94.382,
01/01/2000,01:23:44.21,19.52,-61.0,-992.47,227.50,-726.25,-315.0,1,94.444,
01/01/2000,01:23:44.22,19.52,-61.24,-992.47,227.50,-647.50,-280.0,1,94.505,
01/01/2000,01:23:44.23,19.76,-61.12,-992.47,183.75,-682.50,-315.0,1,94.565,
01/01/2000,01:23:44.24,19.76,-61.0,-992.35,227.50,-621.25,-402.50,1,94.624,
01/01/2000,01:23:44.25,19.64,-60.88,-992.35,210.0,-717.50,-358.75,1,94.681,
01/01/2000,01:23:44.26,19.64,-61.0,-992.59,245.0,-726.25,-315.0,1,94.737,
01/01/2000,01:23:44.27,19.76,-60.88,-992.47,183.75,-805.0,-367.50,1,94.792,
01/01/2000,01:23:44.28,19.76,-61.0,-992.35,262.50,-717.50,-332.50,1,94.845,
01/01/2000,01:23:44.29,19.76,-61.0,-992.35,96.25,-726.25,-385.0,1,94.898,
01/01/2000,01:23:44.30,19.76,-61.0,-992.35,17.50,-717.50,-358.75,1,94.0,
01/01/2000,01:23:44.31,19.76,-61.24,-992.10,17.50,-682.50,-358.75,1,94.059,
01/01/2000,01:23:44.32,19.52,-61.0,-992.10,192.50,-682.50,-402.50,1,94.118,
01/01/2000,01:23:44.33,19.76,-60.76,-992.23,131.25,-656.25,-315.0,1,94.175,
01/01/2000,01:23:44.35,20.25,-60.76,-992.47,350.0,-761.25,-227.50,1,94.231,
01/01/2000,01:23:44.36,20.01,-61.12,-992.35,148.75,-647.50,-262.50,1,94.286,
01/01/2000,01:23:44.37,19.76,-61.37,-992.10,323.75,-647.50,-472.50,1,94.340,
01/01/2000,01:23:44.38,19.76,-61.24,-991.98,227.50,-726.25,-376.25,1,94.393,
01/01/2000,01:23:44.39,20.13,-60.76,-992.10,43.75,-700.0,-376.25,1,94.444,
01/01/2000,01:23:44.40,20.13,-60.76,-992.23,166.25,-630.0,-227.50,1,94.495,
01/01/2000,01:23:44.41,19.89,-60.76,-992.35,157.50,-647.50,-358.75,1,94.545,
01/01/2000,01:23:44.42,19.64,-61.0,-992.10,140.0,-665.0,-411.25,1,94.595,
01/01/2000,01:23:44.43,19.76,-61.0,-992.23,201.25,-743.75,-437.50,1,94.643,
01/01/2000,01:23:44.44,20.25,-60.76,-992.47,131.25,-708.75,-280.0,1,94.690,
01/01/2000,01:23:44.45,20.25,-60.76,-992.47,113.75,-612.50,-385.0,1,94.737,
01/01/2000,01:23:44.46,20.01,-60.76,-992.35,-17.50,-612.50,-262.50,1,94.783,
01/01/2000,01:23:44.47,19.64,-61.0,-992.10,131.25,-673.75,-428.75,1,94.017,
01/01/2000,01:23:44.48,19.76,-60.76,-992.35,227.50,-621.25,-367.50,1,94.872,
01/01/2000,01:23:44.49,20.01,-60.51,-992.59,210.0,-700.0,-411.25,1,94.118,
01/01/2000,01:23:44.50,20.01,-60.51,-992.47,192.50,-813.75,-297.50,1,94.167,
01/01/2000,01:23:44.52,19.64,-60.51,-992.10,96.25,-726.25,-306.25,1,94.215,
01/01/2000,01:23:44.53,19.52,-60.63,-992.10,0.0,-612.50,-376.25,1,94.262,
01/01/2000,01:23:44.54,19.76,-60.63,-992.35,157.50,-691.25,-411.25,1,94.309,
01/01/2000,01:23:44.55,19.76,-60.51,-992.59,96.25,-708.75,-227.50,1,94.355,
01/01/2000,01:23:44.56,19.64,-60.63,-992.47,113.75,-656.25,-306.25,1,94.400,
01/01/2000,01:23:44.57,19.52,-60.63,-992.10,148.75,-682.50,-455.0,1,94.444,
01/01/2000,01:23:44.58,19.64,-60.63,-991.98,175.0,-638.75,-280.0,1,94.488,
01/01/2000,01:23:44.59,19.89,-60.63,-992.35,105.0,-621.25,-280.0,1,94.531,
01/01/2000,01:23:44.60,19.76,-60.76,-992.47,236.25,-665.0,-332.50,1,94.574,
01/01/2000,01:23:44.61,19.52,-60.63,-992.47,61.25,-656.25,-367.50,1,94.615,
01/01/2000,01:23:44.62,19.52,-60.63,-992.35,148.75,-822.50,-245.0,1,94.656,
01/01/2000,01:23:44.63,19.52,-60.39,-992.10,-8.75,-665.0,-306.25,1,94.697,
01/01/2000,01:23:44.64,19.52,-60.51,-992.23,253.75,-700.0,-253.75,1,94.737,
01/01/2000,01:23:44.65,19.76,-60.51,-992.10,87.50,-603.75,-297.50,1,94.776,
01/01/2000,01:23:44.66,19.52,-60.76,-992.10,87.50,-743.75,-402.50,1,94.118,
01/01/2000,01:23:44.67,19.52,-60.76,-992.10,105.0,-691.25,-367.50,1,94.161,
01/01/2000,01:23:44.68,19.52,-60.88,-991.98,210.0,-708.75,-411.25,1,94.203,
01/01/2000,01:23:44.69,19.76,-60.76,-992.10,157.50,-638.75,-297.50,1,94.245,
01/01/2000,01:23:44.70,19.76,-60.88,-992.35,96.25,-761.25,-323.75,1,94.286,
01/01/2000,01:23:44.71,19.76,-60.88,-992.23,26.25,-743.75,-350.0,1,94.326,
01/01/2000,01:23:44.73,19.76,-61.12,-991.98,201.25,-647.50,-367.50,1,94.366,
01/01/2000,01:23:44.74,19.76,-61.0,-991.98,166.25,-708.75,-350.0,1,94.406,
01/01/2000,01:23:44.75,19.76,-60.76,-992.23,87.50,-717.50,-358.75,1,94.444,
01/01/2000,01:23:44.76,20.01,-60.76,-992.35,157.50,-673.75,-245.0,1,94.483,
01/01/2000,01:23:44.77,19.89,-60.76,-991.98,-43.75,-691.25,-358.75,1,94.521,
01/01/2000,01:23:44.78,19.76,-60.76,-991.86,61.25,-778.75,-315.0,1,94.558,
01/01/2000,01:23:44.79,19.76,-60.88,-991.74,131.25,-761.25,-350.0,1,94.595,
01/01/2000,01:23:44.80,19.76,-60.76,-991.86,166.25,-673.75,-402.50,1,94.0,
01/01/2000,01:23:44.81,19.76,-60.76,-991.98,218.75,-726.25,-280.0,1,94.040,
01/01/2000,01:23:44.82,19.52,-60.63,-991.74,166.25,-743.75,-262.50,1,94.079,
01/01/2000,01:23:44.83,19.52,-60.76,-991.74,87.50,-700.0,-358.75,1,94.118,
01/01/2000,01:23:44.84,19.64,-60.76,-991.86,201.25,-752.50,-236.25,1,94.156,
01/01/2000,01:23:44.86,19.76,-60.88,-991.86,131.25,-665.0,-245.0,1,94.194,
01/01/2000,01:23:44.87,19.52,-61.0,-991.86,113.75,-665.0,-437.50,1,94.231,
01/01/2000,01:23:44.88,19.40,-60.88,-991.98,192.50,-752.50,-420.0,1,94.268,
01/01/2000,01:23:44.89,19.89,-60.63,-992.10,192.50,-595.0,-297.50,1,94.304,
01/01/2000,01:23:44.90,19.89,-60.76,-992.10,157.50,-656.25,-140.0,1,94.340,
01/01/2000,01:23:44.91,19.40,-61.12,-991.74,43.75,-761.25,-245.0,1,94.375,
01/01/2000,01:23:44.92,19.03,-61.49,-991.37,245.0,-691.25,-560.0,1,94.410,
01/01/2000,01:23:44.93,19.40,-60.88,-991.62,70.0,-717.50,-490.0,1,94.444,
01/01/2000,01:23:44.94,20.01,-60.76,-992.10,52.50,-708.75,-253.75,1,94.479,
01/01/2000,01:23:44.95,19.89,-60.88,-992.35,70.0,-717.50,-78.75,1,94.512,
01/01/2000,01:23:44.96,19.28,-61.24,-992.23,157.50,-603.75,-323.75,1,94.545,
01/01/2000,01:23:44.97,19.28,-61.49,-991.86,131.25,-700.0,-586.25,1,94.578,
01/01/2000,01:23:44.98,19.64,-61.12,-992.10,218.75,-726.25,-481.25,1,94.611,
01/01/2000,01:23:44.99,20.13,-60.76,-992.35,183.75,-778.75,-288.75,1,94.643,
01/01/2000,01:23:45.00,20.13,-60.76,-992.10,183.75,-621.25,-192.50,1,94.675,
01/01/2000,01:23:45.01,19.64,-61.12,-991.74,113.75,-735.0,-253.75,1,94.152,
01/01/2000,01:23:45.02,19.28,-61.24,-991.86,227.50,-647.50,-437.50,1,94.186,
01/01/2000,01:23:45.03,19.52,-61.0,-992.23,280.0,-831.25,-455.0,1,94.220,
01/01/2000,01:23:45.04,20.01,-61.0,-992.47,245.0,-560.0,-315.0,1,94.253,
01/01/2000,01:23:45.05,20.01,-60.88,-992.10,227.50,-735.0,-271.25,1,94.286,
01/01/2000,01:23:45.06,19.64,-61.24,-991.86,227.50,-735.0,-350.0,1,94.318,
01/01/2000,01:23:45.07,19.52,-61.37,-991.98,96.25,-630.0,-376.25,1,94.350,
01/01/2000,01:23:45.09,19.89,-61.0,-992.35,201.25,-647.50,-358.75,1,94.382,
01/01/2000,01:23:45.10,20.13,-61.0,-992.59,192.50,-752.50,-323.75,1,94.413,
01/01/2000,01:23:45.11,20.01,-61.12,-992.23,183.75,-778.75,-183.75,1,94.444,
01/01/2000,01:23:45.12,19.76,-61.24,-992.10,262.50,-761.25,-385.0,1,94.475,
01/01/2000,01:23:45.13,19.76,-61.24,-992.10,271.25,-682.50,-402.50,1,94.505,
01/01/2000,01:23:45.14,20.01,-61.24,-992.59,271.25,-691.25,-411.25,1,94.536,
01/01/2000,01:23:45.15,20.01,-61.24,-992.59,210.0,-682.50,-428.75,1,94.565,
01/01/2000,01:23:45.16,19.76,-61.37,-992.10,245.0,-743.75,-332.50,1,94.595,
01/01/2000,01:23:45.17,19.52,-61.37,-991.98,183.75,-735.0,-402.50,1,94.624,
01/01/2000,01:23:45.18,19.76,-61.49,-992.23,210.0,-805.0,-332.50,1,94.652,
01/01/2000,01:23:45.19,19.89,-61.49,-992.59,183.75,-761.25,-306.25,1,94.681,
01/01/2000,01:23:45.20,19.76,-61.61,-992.71,175.0,-761.25,-315.0,1,94.709,
01/01/2000,01:23:45.21,19.52,-61.49,-992.35,113.75,-586.25,-358.75,1,94.737,
01/01/2000,01:23:45.22,19.40,-61.49,-992.10,131.25,-708.75,-393.75,1,94.271,
01/01/2000,01:23:45.23,19.52,-61.37,-992.35,122.50,-621.25,-411.25,1,94.301,
01/01/2000,01:23:45.24,19.76,-61.37,-992.71,140.0,-700.0,-367.50,1,94.330,
01/01/2000,01:23:45.25,19.89,-61.24,-992.84,183.75,-682.50,-236.25,1,94.359,
01/01/2000,01:23:45.27,19.76,-61.49,-992.35,385.0,-621.25,-367.50,1,94.388,
01/01/2000,01:23:45.27,19.52,-61.49,-992.35,253.75,-647.50,-385.0,1,94.416,
01/01/2000,01:23:45.29,19.64,-61.49,-992.47,105.0,-630.0,-420.0,1,94.444,
01/01/2000,01:23:45.30,19.89,-61.24,-992.71,253.75,-770.0,-262.50,1,94.472,
01/01/2000,01:23:45.31,19.76,-61.24,-992.47,8.75,-752.50,-297.50,1,94.500,
01/01/2000,01:23:45.32,19.52,-61.49,-992.23,113.75,-717.50,-393.75,1,94.527,
01/01/2000,01:23:45.33,19.40,-61.37,-992.10,148.75,-700.0,-358.75,1,94.554,
01/01/2000,01:23:45.34,19.89,-61.37,-992.47,78.75,-656.25,-350.0,1,94.581,
01/01/2000,01:23:45.35,20.13,-61.24,-992.59,61.25,-752.50,-376.25,1,94.608,
01/01/2000,01:23:45.37,19.89,-61.37,-992.35,271.25,-673.75,-376.25,1,94.175,
01/01/2000,01:23:45.38,19.64,-61.49,-992.10,96.25,-700.0,-350.0,1,94.203,
01/01/2000,01:23:45.39,19.89,-61.24,-992.23,70.0,-656.25,-393.75,1,94.231,
01/01/2000,01:23:45.40,20.01,-61.24,-992.35,166.25,-673.75,-306.25,1,94.258,
01/01/2000,01:23:45.41,19.89,-61.24,-992.35,157.50,-630.0,-280.0,1,94.286,
01/01/2000,01:23:45.42,19.64,-61.49,-992.10,122.50,-656.25,-367.50,1,94.313,
01/01/2000,01:23:45.43,19.64,-61.24,-992.35,87.50,-691.25,-437.50,1,94.340,
01/01/2000,01:23:45.44,19.89,-61.12,-992.59,192.50,-673.75,-341.25,1,94.366,
01/01/2000,01:23:45.45,20.01,-61.0,-992.84,192.50,-770.0,-201.25,1,94.393,
01/01/2000,01:23:45.46,20.01,-61.24,-992.71,280.0,-805.0,-437.50,1,94.419,
01/01/2000,01:23:45.47,19.76,-61.24,-992.59,122.50,-586.25,-367.50,1,94.444,
01/01/2000,01:23:45.48,19.76,-61.37,-992.59,271.25,-656.25,-437.50,1,94.470,
01/01/2000,01:23:45.49,20.01,-61.12,-992.84,253.75,-813.75,-411.25,1,94.495,
01/01/2000,01:23:45.50,20.25,-61.0,-992.96,157.50,-831.25,-323.75,1,94.521,
01/01/2000,01:23:45.51,20.01,-61.12,-992.71,113.75,-621.25,-411.25,1,94.545,
01/01/2000,01:23:45.52,19.89,-61.12,-992.59,87.50,-630.0,-420.0,1,94.570,
01/01/2000,01:23:45.53,20.01,-61.12,-992.59,201.25,-700.0,-315.0,1,94.595,
01/01/2000,01:23:45.54,20.25,-61.12,-992.71,236.25,-752.50,-297.50,1,94.619,
01/01/2000,01:23:45.55,20.25,-61.0,-992.71,183.75,-665.0,-411.25,1,94.643,
01/01/2000,01:23:45.56,20.01,-61.12,-992.59,166.25,-752.50,-315.0,1,94.667,
01/01/2000,01:23:45.58,19.76,-61.0,-992.59,26.25,-717.50,-288.75,1,94.273,
01/01/2000,01:23:45.59,19.76,-61.12,-992.59,192.50,-700.0,-350.0,1,94.298,
01/01/2000,01:23:45.60,20.01,-61.0,-992.71,105.0,-612.50,-227.50,1,94.323,
01/01/2000,01:23:45.61,20.13,-61.12,-992.59,218.75,-700.0,-376.25,1,94.348,
01/01/2000,01:23:45.62,20.01,-61.24,-992.47,148.75,-638.75,-288.75,1,94.372,
01/01/2000,01:23:45.63,19.76,-61.24,-992.47,131.25,-735.0,-411.25,1,94.397,
01/01/2000,01:23:45.64,19.89,-61.24,-992.59,35.0,-595.0,-306.25,1,94.421,
01/01/2000,01:23:45.65,20.01,-61.12,-992.71,166.25,-516.25,-455.0,1,94.444,
01/01/2000,01:23:45.66,20.01,-61.12,-992.59,148.75,-691.25,-201.25,1,94.468,
01/01/2000,01:23:45.67,20.01,-61.12,-992.59,175.0,-770.0,-367.50,1,94.492,
01/01/2000,01:23:45.68,19.76,-61.24,-992.35,236.25,-735.0,-262.50,1,94.515,
01/01/2000,01:23:45.69,19.89,-61.12,-992.47,122.50,-656.25,-507.50,1,94.538,
01/01/2000,01:23:45.70,19.89,-61.12,-992.59,253.75,-525.0,-341.25,1,94.561,
01/01/2000,01:23:45.71,20.01,-61.12,-992.35,43.75,-656.25,-218.75,1,94.583,
01/01/2000,01:23:45.72,19.76,-61.24,-992.23,35.0,-638.75,-376.25,1,94.215,
01/01/2000,01:23:45.73,19.76,-61.37,-992.23,148.75,-665.0,-376.25,1,94.239,
01/01/2000,01:23:45.74,19.89,-61.24,-992.35,245.0,-656.25,-376.25,1,94.262,
01/01/2000,01:23:45.75,19.89,-61.24,-992.47,43.75,-700.0,-236.25,1,94.286,
01/01/2000,01:23:45.76,19.89,-61.12,-992.35,227.50,-656.25,-341.25,1,94.309,
01/01/2000,01:23:45.77,19.89,-61.12,-992.35,122.50,-542.50,-288.75,1,94.332,
01/01/2000,01:23:45.79,19.76,-61.24,-992.59,288.75,-717.50,-446.25,1,94.355,
01/01/2000,01:23:45.80,20.01,-61.24,-992.71,78.75,-717.50,-350.0,1,94.378,
01/01/2000,01:23:45.81,20.01,-61.24,-992.84,183.75,-682.50,-376.25,1,94.400,
01/01/2000,01:23:45.82,20.13,-61.24,-992.47,105.0,-665.0,-341.25,1,94.422,
01/01/2000,01:23:45.83,20.01,-61.37,-992.23,140.0,-700.0,-288.75,1,94.444,
01/01/2000,01:23:45.84,20.01,-61.37,-992.10,87.50,-717.50,-498.75,1,94.466,
01/01/2000,01:23:45.85,20.13,-61.37,-992.23,236.25,-682.50,-245.0,1,94.488,
01/01/2000,01:23:45.86,20.13,-61.12,-992.10,175.0,-787.50,-271.25,1,94.510,
01/01/2000,01:23:45.88,20.01,-61.37,-992.23,70.0,-726.25,-402.50,1,94.163,
01/01/2000,01:23:45.89,20.01,-61.37,-992.35,52.50,-752.50,-446.25,1,94.186,
01/01/2000,01:23:45.90,20.01,-61.24,-992.35,192.50,-700.0,-262.50,1,94.208,
01/01/2000,01:23:45.91,20.01,-61.24,-992.47,43.75,-638.75,-402.50,1,94.231,
01/01/2000,01:23:45.92,20.01,-61.24,-992.47,297.50,-735.0,-210.0,1,94.253,
01/01/2000,01:23:45.93,20.01,-61.37,-992.59,122.50,-612.50,-280.0,1,94.275,
01/01/2000,01:23:45.94,20.01,-61.24,-992.47,192.50,-665.0,-358.75,1,94.297,
01/01/2000,01:23:45.95,20.01,-61.37,-992.71,210.0,-708.75,-332.50,1,94.318,
01/01/2000,01:23:45.96,20.13,-61.37,-992.71,253.75,-778.75,-253.75,1,94.340,
01/01/2000,01:23:45.97,20.01,-61.24,-992.47,236.25,-665.0,-227.50,1,94.361,
01/01/2000,01:23:45.98,20.01,-61.24,-992.47,201.25,-691.25,-332.50,1,94.382,
01/01/2000,01:23:45.99,19.89,-61.24,-992.47,148.75,-630.0,-367.50,1,94.403,
01/01/2000,01:23:46.00,19.89,-61.24,-992.59,131.25,-743.75,-201.25,1,94.424,
01/01/2000,01:23:46.01,19.89,-61.24,-992.59,157.50,-735.0,-297.50,1,94.444,
01/01/2000,01:23:46.02,19.76,-61.24,-992.59,192.50,-752.50,-323.75,1,94.465,
01/01/2000,01:23:46.03,19.76,-61.12,-992.47,122.50,-700.0,-315.0,1,94.485,
01/01/2000,01:23:46.04,19.89,-61.12,-992.23,166.25,-656.25,-367.50,1,94.505,
01/01/2000,01:23:46.05,19.89,-61.12,-992.23,218.75,-682.50,-306.25,1,94.526,
01/01/2000,01:23:46.06,19.76,-61.0,-992.35,113.75,-708.75,-332.50,1,94.545,
01/01/2000,01:23:46.07,19.76,-61.12,-992.35,157.50,-752.50,-481.25,1,94.224,
01/01/2000,01:23:46.08,19.76,-61.12,-992.35,192.50,-770.0,-297.50,1,94.585,
01/01/2000,01:23:46.09,19.89,-61.24,-992.35,175.0,-761.25,-323.75,1,94.265,
01/01/2000,01:23:46.10,19.76,-61.12,-992.35,122.50,-813.75,-210.0,1,94.286,
01/01/2000,01:23:46.11,19.64,-61.24,-992.35,245.0,-726.25,-297.50,1,94.306,
01/01/2000,01:23:46.12,19.64,-61.37,-992.35,201.25,-612.50,-385.0,1,94.326,
01/01/2000,01:23:46.14,19.76,-61.12,-992.59,78.75,-717.50,-306.25,1,94.346,
01/01/2000,01:23:46.15,20.01,-61.0,-992.71,227.50,-647.50,-341.25,1,94.366,
01/01/2000,01:23:46.16,20.01,-61.0,-992.84,227.50,-726.25,-341.25,1,94.386,
01/01/2000,01:23:46.17,19.89,-61.24,-992.84,140.0,-752.50,-411.25,1,94.406,
01/01/2000,01:23:46.18,19.76,-61.24,-992.71,157.50,-647.50,-306.25,1,94.425,
01/01/2000,01:23:46.19,19.89,-61.24,-992.59,183.75,-691.25,-393.75,1,94.444,
01/01/2000,01:23:46.20,19.89,-61.0,-992.59,131.25,-822.50,-341.25,1,94.464,
01/01/2000,01:23:46.21,19.76,-61.0,-992.59,105.0,-700.0,-385.0,1,94.483,
01/01/2000,01:23:46.22,19.76,-61.12,-992.59,236.25,-822.50,-297.50,1,94.502,
01/01/2000,01:23:46.23,19.76,-61.24,-992.59,131.25,-700.0,-315.0,1,94.521,
01/01/2000,01:23:46.24,19.76,-61.24,-992.59,183.75,-673.75,-367.50,1,94.539,
01/01/2000,01:23:46.25,19.64,-61.37,-992.59,297.50,-586.25,-288.75,1,94.558,
01/01/2000,01:23:46.26,19.76,-61.24,-992.35,166.25,-700.0,-262.50,1,94.576,
01/01/2000,01:23:46.27,19.76,-61.24,-992.35,183.75,-586.25,-350.0,1,94.595,
01/01/2000,01:23:46.28,19.52,-61.37,-992.47,192.50,-735.0,-393.75,1,94.295,
01/01/2000,01:23:46.29,19.64,-61.37,-992.59,122.50,-673.75,-341.25,1,94.314,
01/01/2000,01:23:46.30,19.76,-61.24,-992.71,157.50,-603.75,-297.50,1,94.333,
01/01/2000,01:23:46.31,19.76,-61.24,-992.59,306.25,-682.50,-323.75,1,94.352,
01/01/2000,01:23:46.32,19.64,-61.24,-992.35,122.50,-612.50,-393.75,1,94.371,
01/01/2000,01:23:46.33,19.52,-61.37,-992.35,262.50,-630.0,-332.50,1,94.389,
01/01/2000,01:23:46.35,19.76,-61.24,-992.59,87.50,-708.75,-315.0,1,94.408,
01/01/2000,01:23:46.36,20.01,-61.24,-992.71,78.75,-700.0,-306.25,1,94.426,
01/01/2000,01:23:46.37,19.89,-61.12,-992.71,131.25,-603.75,-306.25,1,94.444,
01/01/2000,01:23:46.38,19.89,-61.0,-992.47,183.75,-770.0,-367.50,1,94.156,
01/01/2000,01:23:46.39,20.01,-61.12,-992.59,140.0,-612.50,-315.0,1,94.175,
01/01/2000,01:23:46.40,19.89,-61.12,-992.71,192.50,-805.0,-315.0,1,94.194,
01/01/2000,01:23:46.41,19.89,-61.24,-992.59,96.25,-787.50,-385.0,1,94.212,
01/01/2000,01:23:46.43,19.76,-61.24,-992.35,131.25,-708.75,-367.50,1,94.231,
01/01/2000,01:23:46.44,19.76,-61.12,-992.35,262.50,-752.50,-350.0,1,94.249,
01/01/2000,01:23:46.45,19.89,-61.0,-992.47,236.25,-726.25,-306.25,1,94.268,
01/01/2000,01:23:46.46,20.01,-61.0,-992.59,26.25,-717.50,-297.50,1,94.286,
01/01/2000,01:23:46.47,19.89,-61.12,-992.35,262.50,-630.0,-376.25,1,94.304,
01/01/2000,01:23:46.48,19.76,-61.12,-992.10,175.0,-665.0,-350.0,1,94.322,
01/01/2000,01:23:46.49,19.89,-61.0,-992.10,87.50,-647.50,-332.50,1,94.340,
01/01/2000,01:23:46.50,19.89,-61.0,-992.23,288.75,-708.75,-323.75,1,94.357,
01/01/2000,01:23:46.51,19.89,-60.76,-992.35,8.75,-708.75,-280.0,1,94.375,
01/01/2000,01:23:46.52,20.01,-61.12,-992.47,192.50,-656.25,-376.25,1,94.393,
01/01/2000,01:23:46.53,19.76,-61.12,-992.47,210.0,-665.0,-323.75,1,94.410,
01/01/2000,01:23:46.54,19.76,-61.24,-992.47,227.50,-656.25,-385.0,1,94.427,
01/01/2000,01:23:46.55,19.89,-61.12,-992.47,113.75,-743.75,-323.75,1,94.444,
01/01/2000,01:23:46.56,19.89,-61.0,-992.35,157.50,-700.0,-288.75,1,94.462,
01/01/2000,01:23:46.57,19.89,-61.12,-992.47,105.0,-726.25,-341.25,1,94.479,
01/01/2000,01:23:46.58,19.76,-61.0,-992.47,227.50,-638.75,-411.25,1,94.495,
01/01/2000,01:23:46.59,19.76,-61.12,-992.47,183.75,-586.25,-385.0,1,94.512,
01/01/2000,01:23:46.60,19.76,-61.12,-992.47,148.75,-717.50,-420.0,1,94.529,
01/01/2000,01:23:46.61,19.76,-61.12,-992.59,175.0,-630.0,-393.75,1,94.545,
01/01/2000,01:23:46.62,19.76,-61.24,-992.59,280.0,-805.0,-332.50,1,94.562,
01/01/2000,01:23:46.64,19.76,-61.24,-992.59,201.25,-682.50,-358.75,1,94.294,
01/01/2000,01:23:46.65,19.76,-61.12,-992.84,218.75,-700.0,-393.75,1,94.311,
01/01/2000,01:23:46.66,19.76,-61.24,-992.71,96.25,-630.0,-323.75,1,94.328,
01/01/2000,01:23:46.67,19.89,-61.24,-992.59,131.25,-700.0,-341.25,1,94.345,
01/01/2000,01:23:46.68,19.76,-61.24,-992.47,43.75,-665.0,-385.0,1,94.362,
01/01/2000,01:23:46.69,19.76,-61.37,-992.47,166.25,-726.25,-463.75,1,94.379,
01/01/2000,01:23:46.70,19.76,-61.24,-992.59,43.75,-647.50,-297.50,1,94.395,
01/01/2000,01:23:46.71,19.64,-61.12,-992.59,157.50,-612.50,-271.25,1,94.412,
01/01/2000,01:23:46.72,19.64,-61.24,-992.59,166.25,-726.25,-350.0,1,94.428,
01/01/2000,01:23:46.73,19.76,-61.24,-992.59,96.25,-621.25,-376.25,1,94.444,
01/01/2000,01:23:46.74,20.01,-61.24,-992.59,131.25,-778.75,-341.25,1,94.461,
01/01/2000,01:23:46.75,20.01,-61.24,-992.71,218.75,-726.25,-210.0,1,94.477,
01/01/2000,01:23:46.76,19.76,-61.24,-992.71,210.0,-673.75,-455.0,1,94.493,
01/01/2000,01:23:46.77,19.76,-61.12,-992.71,175.0,-735.0,-341.25,1,94.236,
01/01/2000,01:23:46.78,18.91,-61.24,-992.96,612.50,-752.50,-70.0,1,94.253,
01/01/2000,01:23:46.79,20.13,-60.27,-992.59,-516.25,-770.0,-726.25,1,94.269,
01/01/2000,01:23:46.80,19.89,-61.49,-992.47,831.25,-752.50,-61.25,1,94.286,
01/01/2000,01:23:46.81,20.13,-60.63,-992.23,-367.50,-621.25,-490.0,1,94.302,
01/01/2000,01:23:46.82,19.52,-61.61,-992.35,542.50,-691.25,-113.75,1,94.318,
01/01/2000,01:23:46.83,20.01,-61.24,-992.59,210.0,-787.50,-315.0,1,94.334,
01/01/2000,01:23:46.85,20.01,-60.88,-992.84,-87.50,-647.50,-367.50,1,94.350,
01/01/2000,01:23:46.86,19.89,-61.12,-992.59,420.0,-595.0,-227.50,1,94.366,
01/01/2000,01:23:46.87,20.01,-60.76,-992.35,-122.50,-770.0,-455.0,1,94.382,
01/01/2000,01:23:46.88,20.01,-61.24,-992.23,332.50,-595.0,-122.50,1,94.398,
01/01/2000,01:23:46.89,20.01,-61.49,-992.59,306.25,-726.25,-297.50,1,94.150,
01/01/2000,01:23:46.90,20.25,-61.24,-992.47,166.25,-708.75,-463.75,1,94.167,
01/01/2000,01:23:46.91,20.13,-61.12,-992.35,271.25,-708.75,-288.75,1,94.183,
01/01/2000,01:23:46.92,20.01,-61.0,-992.10,218.75,-673.75,-236.25,1,94.199,
01/01/2000,01:23:46.93,20.13,-61.0,-992.10,78.75,-665.0,-306.25,1,94.215,
01/01/2000,01:23:46.94,20.25,-61.24,-992.35,332.50,-735.0,-262.50,1,94.231,
01/01/2000,01:23:46.95,20.25,-61.0,-992.47,61.25,-586.25,-306.25,1,94.247,
01/01/2000,01:23:46.96,20.13,-61.49,-992.35,105.0,-691.25,-411.25,1,94.262,
01/01/2000,01:23:46.98,20.01,-61.12,-991.98,113.75,-673.75,-245.0,1,94.278,
01/01/2000,01:23:46.99,20.01,-61.0,-992.10,87.50,-682.50,-402.50,1,94.293,
01/01/2000,01:23:47.00,20.01,-61.0,-992.47,262.50,-682.50,-358.75,1,94.309,
01/01/2000,01:23:47.01,20.13,-60.88,-992.71,78.75,-673.75,-288.75,1,94.324,
01/01/2000,01:23:47.02,20.01,-61.24,-992.59,236.25,-647.50,-218.75,1,94.340,
01/01/2000,01:23:47.03,19.89,-61.0,-992.23,105.0,-647.50,-472.50,1,94.355,
01/01/2000,01:23:47.04,19.76,-60.88,-992.10,140.0,-787.50,-227.50,1,94.370,
01/01/2000,01:23:47.05,19.89,-60.88,-992.10,113.75,-770.0,-297.50,1,94.385,
01/01/2000,01:23:47.06,20.01,-60.76,-992.23,157.50,-778.75,-358.75,1,94.400,
01/01/2000,01:23:47.07,20.01,-61.0,-992.35,280.0,-717.50,-402.50,1,94.415,
01/01/2000,01:23:47.08,20.01,-61.0,-992.10,183.75,-656.25,-446.25,1,94.430,
01/01/2000,01:23:47.09,20.13,-61.0,-991.86,183.75,-673.75,-323.75,1,94.444,
01/01/2000,01:23:47.10,20.13,-61.12,-991.86,122.50,-673.75,-393.75,1,94.459,
01/01/2000,01:23:47.11,20.01,-61.24,-992.10,78.75,-691.25,-420.0,1,94.474,
01/01/2000,01:23:47.12,19.76,-61.24,-992.35,166.25,-621.25,-323.75,1,94.488,
01/01/2000,01:23:47.13,19.76,-61.24,-992.35,140.0,-691.25,-306.25,1,94.256,
01/01/2000,01:23:47.14,19.52,-61.12,-992.35,157.50,-665.0,-262.50,1,94.271,
01/01/2000,01:23:47.15,19.52,-60.88,-992.10,148.75,-682.50,-393.75,1,94.286,
01/01/2000,01:23:47.16,19.64,-61.0,-992.10,323.75,-682.50,-306.25,1,94.301,
01/01/2000,01:23:47.17,19.76,-61.0,-992.35,253.75,-726.25,-288.75,1,94.315,
01/01/2000,01:23:47.18,19.76,-61.12,-992.59,148.75,-682.50,-376.25,1,94.330,
01/01/2000,01:23:47.20,19.89,-61.12,-992.71,140.0,-735.0,-350.0,1,94.344,
01/01/2000,01:23:47.21,19.76,-61.0,-992.35,245.0,-787.50,-376.25,1,94.359,
01/01/2000,01:23:47.22,19.76,-60.88,-992.35,61.25,-682.50,-297.50,1,94.373,
01/01/2000,01:23:47.23,19.76,-61.0,-992.23,87.50,-673.75,-341.25,1,94.388,
01/01/2000,01:23:47.24,19.76,-61.12,-992.35,218.75,-726.25,-253.75,1,94.402,
01/01/2000,01:23:47.25,19.89,-61.24,-992.47,306.25,-647.50,-341.25,1,94.416,
01/01/2000,01:23:47.26,19.76,-61.24,-992.47,271.25,-691.25,-315.0,1,94.430,
01/01/2000,01:23:47.27,19.52,-61.24,-992.10,131.25,-630.0,-411.25,1,94.444,
01/01/2000,01:23:47.28,19.64,-61.12,-992.10,96.25,-656.25,-253.75,1,94.458,
01/01/2000,01:23:47.29,19.64,-61.12,-992.10,218.75,-717.50,-306.25,1,94.472,
01/01/2000,01:23:47.30,19.52,-61.12,-992.23,183.75,-656.25,-341.25,1,94.486,
01/01/2000,01:23:47.31,19.64,-61.0,-992.23,175.0,-770.0,-385.0,1,94.500,
01/01/2000,01:23:47.32,19.64,-60.88,-992.10,140.0,-717.50,-315.0,1,94.514,
01/01/2000,01:23:47.33,19.76,-60.88,-992.10,96.25,-805.0,-402.50,1,94.527,
01/01/2000,01:23:47.34,19.76,-61.12,-992.10,175.0,-805.0,-393.75,1,94.307,
01/01/2000,01:23:47.35,19.76,-61.0,-992.10,113.75,-743.75,-402.50,1,94.321,
01/01/2000,01:23:47.36,19.76,-61.12,-992.23,227.50,-778.75,-481.25,1,94.335,
01/01/2000,01:23:47.37,19.76,-61.0,-992.23,131.25,-708.75,-323.75,1,94.349,
01/01/2000,01:23:47.38,19.76,-61.0,-991.98,175.0,-691.25,-411.25,1,94.363,
01/01/2000,01:23:47.40,19.76,-61.0,-991.98,218.75,-726.25,-402.50,1,94.377,
01/01/2000,01:23:47.41,19.89,-61.0,-992.23,70.0,-778.75,-236.25,1,94.161,
01/01/2000,01:23:47.42,20.01,-61.0,-992.47,131.25,-603.75,-341.25,1,94.175,
01/01/2000,01:23:47.43,19.76,-61.12,-992.35,140.0,-796.25,-271.25,1,94.189,
01/01/2000,01:23:47.44,19.76,-61.12,-992.10,52.50,-726.25,-358.75,1,94.203,
01/01/2000,01:23:47.45,19.89,-61.0,-992.23,175.0,-787.50,-323.75,1,94.217,
01/01/2000,01:23:47.46,20.01,-61.0,-992.23,218.75,-542.50,-358.75,1,94.231,
01/01/2000,01:23:47.47,20.13,-61.12,-992.35,131.25,-691.25,-332.50,1,94.245,
01/01/2000,01:23:47.49,20.01,-61.12,-992.23,96.25,-752.50,-315.0,1,94.258,
01/01/2000,01:23:47.50,20.13,-61.0,-992.35,70.0,-656.25,-358.75,1,94.272,
01/01/2000,01:23:47.51,20.13,-61.0,-992.10,35.0,-691.25,-420.0,1,94.286,
01/01/2000,01:23:47.52,20.13,-61.0,-992.23,148.75,-673.75,-323.75,1,94.299,
01/01/2000,01:23:47.53,20.01,-61.0,-992.10,43.75,-630.0,-420.0,1,94.313,
01/01/2000,01:23:47.54,20.01,-61.12,-992.10,306.25,-656.25,-481.25,1,94.326,
01/01/2000,01:23:47.55,20.01,-61.12,-992.10,271.25,-822.50,-323.75,1,94.340,
01/01/2000,01:23:47.56,20.01,-61.0,-992.35,210.0,-778.75,-218.75,1,94.353,
01/01/2000,01:23:47.57,20.13,-60.88,-992.35,323.75,-630.0,-411.25,1,94.366,
01/01/2000,01:23:47.58,20.13,-61.0,-992.10,113.75,-743.75,-358.75,1,94.379,
01/01/2000,01:23:47.59,20.01,-61.24,-992.10,183.75,-761.25,-332.50,1,94.393,
01/01/2000,01:23:47.60,20.01,-61.24,-992.10,166.25,-735.0,-323.75,1,94.406,
01/01/2000,01:23:47.61,20.01,-61.0,-992.23,78.75,-717.50,-323.75,1,94.419,
01/01/2000,01:23:47.62,20.13,-61.0,-992.23,35.0,-761.25,-332.50,1,94.432,
01/01/2000,01:23:47.63,20.01,-61.12,-992.10,210.0,-638.75,-271.25,1,94.444,
01/01/2000,01:23:47.64,19.89,-61.12,-992.10,131.25,-700.0,-315.0,1,94.457,
01/01/2000,01:23:47.65,20.13,-61.12,-991.98,52.50,-691.25,-297.50,1,94.470,
01/01/2000,01:23:47.66,20.13,-61.12,-991.86,183.75,-717.50,-253.75,1,94.483,
01/01/2000,01:23:47.67,20.13,-61.12,-991.86,131.25,-665.0,-367.50,1,94.495,
01/01/2000,01:23:47.68,20.13,-61.0,-991.86,0.0,-726.25,-323.75,1,94.292,
01/01/2000,01:23:47.70,20.01,-61.0,-991.86,140.0,-665.0,-411.25,1,94.305,
01/01/2000,01:23:47.71,20.13,-60.76,-991.98,183.75,-735.0,-297.50,1,94.318,
01/01/2000,01:23:47.72,20.01,-60.76,-992.10,210.0,-700.0,-341.25,1,94.331,
01/01/2000,01:23:47.73,20.01,-60.76,-991.86,52.50,-595.0,-385.0,1,94.344,
01/01/2000,01:23:47.74,19.89,-61.0,-991.86,227.50,-735.0,-455.0,1,94.357,
01/01/2000,01:23:47.75,19.89,-60.76,-991.86,122.50,-603.75,-288.75,1,94.369,
01/01/2000,01:23:47.76,19.76,-60.88,-991.98,148.75,-638.75,-420.0,1,94.382,
01/01/2000,01:23:47.77,20.01,-61.0,-992.23,218.75,-656.25,-323.75,1,94.395,
01/01/2000,01:23:47.78,19.89,-61.12,-992.23,183.75,-682.50,-420.0,1,94.407,
01/01/2000,01:23:47.79,19.89,-61.0,-991.98,52.50,-743.75,-411.25,1,94.420,
01/01/2000,01:23:47.80,19.76,-60.88,-991.74,87.50,-761.25,-367.50,1,94.432,
01/01/2000,01:23:47.81,19.76,-60.88,-991.86,148.75,-700.0,-245.0,1,94.444,
01/01/2000,01:23:47.82,19.89,-60.76,-992.10,183.75,-761.25,-332.50,1,94.457,
01/01/2000,01:23:47.83,19.89,-60.88,-992.35,131.25,-708.75,-350.0,1,94.260,
01/01/2000,01:23:47.84,20.01,-61.0,-992.35,201.25,-726.25,-428.75,1,94.273,
01/01/2000,01:23:47.85,20.01,-61.0,-992.23,245.0,-621.25,-402.50,1,94.286,
01/01/2000,01:23:47.86,20.13,-61.0,-992.35,183.75,-778.75,-271.25,1,94.298,
01/01/2000,01:23:47.87,20.13,-60.76,-992.59,52.50,-551.25,-297.50,1,94.311,
01/01/2000,01:23:47.88,20.13,-61.0,-992.47,87.50,-700.0,-315.0,1,94.323,
01/01/2000,01:23:47.89,20.01,-61.12,-992.35,96.25,-778.75,-350.0,1,94.336,
01/01/2000,01:23:47.91,20.01,-61.12,-992.23,236.25,-682.50,-332.50,1,94.348,
01/01/2000,01:23:47.93,20.25,-61.12,-992.35,113.75,-735.0,-341.25,1,94.156,
01/01/2000,01:23:47.94,20.01,-61.24,-992.23,210.0,-647.50,-306.25,1,94.168,
01/01/2000,01:23:47.95,20.01,-61.24,-992.10,157.50,-656.25,-358.75,1,94.181,
01/01/2000,01:23:47.96,19.89,-61.12,-992.23,157.50,-700.0,-402.50,1,94.194,
01/01/2000,01:23:47.97,20.01,-60.88,-992.10,26.25,-682.50,-393.75,1,94.206,
01/01/2000,01:23:47.98,20.01,-61.0,-992.10,192.50,-691.25,-393.75,1,94.218,
01/01/2000,01:23:47.99,19.89,-61.24,-992.23,52.50,-735.0,-227.50,1,94.231,
01/01/2000,01:23:48.00,19.89,-61.37,-992.35,245.0,-752.50,-323.75,1,94.243,
01/01/2000,01:23:48.01,19.89,-61.24,-992.35,166.25,-743.75,-341.25,1,94.255,
01/01/2000,01:23:48.02,20.01,-61.0,-992.59,157.50,-708.75,-411.25,1,94.268,
01/01/2000,01:23:48.03,20.01,-61.0,-992.47,131.25,-656.25,-280.0,1,94.280,
01/01/2000,01:23:48.04,19.89,-61.0,-992.23,113.75,-796.25,-385.0,1,94.292,
01/01/2000,01:23:48.05,19.89,-61.12,-992.23,148.75,-813.75,-297.50,1,94.304,
01/01/2000,01:23:48.06,20.01,-61.24,-992.23,192.50,-595.0,-385.0,1,94.316,
01/01/2000,01:23:48.07,20.01,-61.12,-992.23,253.75,-700.0,-341.25,1,94.328,
01/01/2000,01:23:48.08,20.01,-61.24,-992.10,192.50,-708.75,-393.75,1,94.340,
01/01/2000,01:23:48.09,20.01,-61.0,-991.98,166.25,-673.75,-236.25,1,94.351,
01/01/2000,01:23:48.10,20.01,-61.12,-991.98,175.0,-822.50,-306.25,1,94.363,
01/01/2000,01:23:48.11,20.01,-61.12,-992.10,140.0,-761.25,-428.75,1,94.375,
01/01/2000,01:23:48.12,20.01,-61.24,-992.10,157.50,-682.50,-367.50,1,94.387,
01/01/2000,01:23:48.13,20.01,-61.24,-992.10,210.0,-630.0,-411.25,1,94.398,
01/01/2000,01:23:48.14,20.01,-61.12,-991.86,183.75,-796.25,-332.50,1,94.410,
01/01/2000,01:23:48.15,20.01,-61.12,-991.98,96.25,-638.75,-350.0,1,94.421,
01/01/2000,01:23:48.16,20.01,-61.0,-992.23,131.25,-743.75,-341.25,1,94.433,
01/01/2000,01:23:48.17,20.01,-61.0,-992.35,148.75,-752.50,-323.75,1,94.444,
01/01/2000,01:23:48.18,20.13,-61.24,-992.10,218.75,-787.50,-367.50,1,94.456,
01/01/2000,01:23:48.20,19.89,-61.24,-991.98,131.25,-708.75,-271.25,1,94.274,
01/01/2000,01:23:48.21,19.76,-61.24,-992.10,227.50,-708.75,-411.25,1,94.286,
01/01/2000,01:23:48.22,19.76,-61.24,-992.10,52.50,-673.75,-253.75,1,94.297,
01/01/2000,01:23:48.23,19.76,-61.37,-992.10,105.0,-770.0,-306.25,1,94.309,
01/01/2000,01:23:48.24,19.76,-61.49,-992.10,70.0,-647.50,-323.75,1,94.320,
01/01/2000,01:23:48.25,19.52,-61.61,-991.86,183.75,-656.25,-332.50,1,94.332,
01/01/2000,01:23:48.26,19.64,-61.49,-991.86,236.25,-638.75,-472.50,1,94.343,
01/01/2000,01:23:48.27,19.89,-61.37,-991.86,175.0,-717.50,-262.50,1,94.355,
01/01/2000,01:23:48.28,19.89,-61.37,-991.98,-61.25,-673.75,-297.50,1,94.366,
01/01/2000,01:23:48.29,19.76,-61.49,-991.86,218.75,-743.75,-376.25,1,94.378,
01/01/2000,01:23:48.30,19.64,-61.49,-991.62,245.0,-673.75,-350.0,1,94.389,
01/01/2000,01:23:48.31,19.76,-61.37,-991.62,87.50,-761.25,-411.25,1,94.400,
01/01/2000,01:23:48.32,19.76,-61.24,-991.86,236.25,-638.75,-358.75,1,94.411,
01/01/2000,01:23:48.33,19.76,-61.24,-991.98,131.25,-735.0,-350.0,1,94.235,
01/01/2000,01:23:48.34,19.64,-61.37,-991.98,131.25,-761.25,-350.0,1,94.246,
01/01/2000,01:23:48.35,19.52,-61.24,-991.86,183.75,-717.50,-367.50,1,94.257,
01/01/2000,01:23:48.36,19.76,-61.12,-991.86,122.50,-717.50,-385.0,1,94.269,
01/01/2000,01:23:48.37,19.89,-61.24,-991.86,288.75,-577.50,-297.50,1,94.280,
01/01/2000,01:23:48.38,19.76,-61.12,-991.86,297.50,-638.75,-323.75,1,94.291,
01/01/2000,01:23:48.39,19.76,-61.12,-991.86,131.25,-621.25,-288.75,1,94.303,
01/01/2000,01:23:48.41,19.64,-61.12,-991.98,105.0,-586.25,-350.0,1,94.314,
01/01/2000,01:23:48.42,19.76,-61.0,-992.10,105.0,-752.50,-315.0,1,94.325,
01/01/2000,01:23:48.43,19.76,-61.0,-992.10,201.25,-691.25,-280.0,1,94.152,
01/01/2000,01:23:48.44,19.52,-61.0,-992.10,52.50,-726.25,-332.50,1,94.163,
01/01/2000,01:23:48.45,19.52,-61.24,-992.23,113.75,-743.75,-271.25,1,94.175,
01/01/2000,01:23:48.46,19.76,-61.12,-992.23,52.50,-752.50,-297.50,1,94.186,
01/01/2000,01:23:48.47,19.89,-61.12,-992.23,236.25,-796.25,-315.0,1,94.197,
01/01/2000,01:23:48.48,19.64,-60.88,-992.10,148.75,-805.0,-376.25,1,94.208,
01/01/2000,01:23:48.49,19.52,-60.76,-992.10,175.0,-691.25,-332.50,1,94.220,
01/01/2000,01:23:48.50,19.64,-60.88,-992.35,227.50,-665.0,-350.0,1,94.231,
01/01/2000,01:23:48.51,19.76,-60.76,-992.35,183.75,-700.0,-280.0,1,94.242,
01/01/2000,01:23:48.52,20.01,-61.0,-992.47,78.75,-708.75,-393.75,1,94.253,
01/01/2000,01:23:48.54,20.01,-61.0,-992.35,122.50,-647.50,-358.75,1,94.264,
01/01/2000,01:23:48.55,19.89,-60.88,-992.35,148.75,-743.75,-297.50,1,94.275,
01/01/2000,01:23:48.56,20.74,-60.76,-991.86,183.75,-665.0,-411.25,1,94.286,
01/01/2000,01:23:48.57,15.37,-60.02,-966.85,-140.0,-376.25,3167.50,1,94.297,
01/01/2000,01:23:48.58,8.66,-57.95,-947.94,656.25,-1627.50,1242.50,1,94.307,
01/01/2000,01:23:48.59,14.52,-60.27,-973.80,-1330.0,-2012.50,-3841.25,1,94.318,
01/01/2000,01:23:48.60,24.40,-67.22,-1011.87,1540.0,-971.25,-2922.50,1,94.329,
01/01/2000,01:23:48.61,29.28,-64.90,-1039.44,8.75,402.50,2502.50,1,94.340,
01/01/2000,01:23:48.62,26.72,-58.93,-1036.15,-542.50,-227.50,-568.75,1,94.350,
01/01/2000,01:23:48.63,21.72,-55.27,-999.30,813.75,-673.75,-1890.0,1,94.361,
01/01/2000,01:23:48.64,19.28,-55.39,-978.07,-393.75,-1058.75,402.50,1,94.371,
01/01/2000,01:23:48.65,18.18,-62.10,-970.75,253.75,-1295.0,2870.0,1,94.382,
01/01/2000,01:23:48.66,20.37,-66.98,-979.05,253.75,-1137.50,35.0,1,94.393,
01/01/2000,01:23:48.67,21.96,-68.93,-994.67,175.0,-813.75,-2992.50,1,94.403,
01/01/2000,01:23:48.68,22.08,-62.46,-1006.13,253.75,-201.25,-280.0,1,94.238,
01/01/2000,01:23:48.69,18.54,-53.80,-999.67,236.25,-420.0,1216.25,1,94.249,
01/01/2000,01:23:48.70,17.45,-52.70,-990.88,-236.25,-525.0,840.0,1,94.259,
01/01/2000,01:23:48.71,18.30,-57.58,-984.30,350.0,-726.25,813.75,1,94.270,
01/01/2000,01:23:48.72,19.52,-63.44,-983.20,35.0,-927.50,-175.0,1,94.280,
01/01/2000,01:23:48.73,21.96,-68.93,-990.40,175.0,-866.25,-1732.50,1,94.291,
01/01/2000,01:23:48.75,22.45,-67.10,-994.91,428.75,-665.0,-2441.25,1,94.301,
01/01/2000,01:23:48.76,20.01,-58.19,-994.30,105.0,-621.25,-577.50,1,94.312,
01/01/2000,01:23:48.77,18.06,-54.17,-991.25,218.75,-542.50,1163.75,1,94.322,
01/01/2000,01:23:48.78,17.32,-54.66,-989.18,-70.0,-533.75,1715.0,1,94.333,
01/01/2000,01:23:48.79,18.06,-61.49,-989.79,227.50,-621.25,437.50,1,94.343,
01/01/2000,01:23:48.80,20.98,-65.76,-991.98,78.75,-761.25,-1163.75,1,94.353,
01/01/2000,01:23:48.81,21.84,-67.10,-992.96,157.50,-770.0,-2030.0,1,94.364,
01/01/2000,01:23:48.82,20.62,-62.46,-991.74,148.75,-708.75,-962.50,1,94.203,
01/01/2000,01:23:48.83,19.28,-58.56,-990.76,288.75,-638.75,140.0,1,94.213,
01/01/2000,01:23:48.84,18.06,-56.61,-991.13,157.50,-612.50,813.75,1,94.224,
01/01/2000,01:23:48.85,18.54,-58.93,-992.84,131.25,-682.50,411.25,1,94.234,
01/01/2000,01:23:48.86,19.76,-62.10,-993.45,288.75,-638.75,-446.25,1,94.245,
01/01/2000,01:23:48.87,20.74,-64.17,-992.96,70.0,-595.0,-1128.75,1,94.255,
01/01/2000,01:23:48.88,21.11,-64.42,-991.37,87.50,-796.25,-831.25,1,94.265,
01/01/2000,01:23:48.90,20.25,-61.73,-990.27,218.75,-787.50,70.0,1,94.275,
01/01/2000,01:23:48.91,19.03,-58.80,-991.98,166.25,-717.50,393.75,1,94.286,
01/01/2000,01:23:48.92,18.79,-58.80,-993.32,262.50,-595.0,96.25,1,94.296,
01/01/2000,01:23:48.93,19.03,-59.90,-993.93,157.50,-481.25,-236.25,1,94.306,
01/01/2000,01:23:48.94,20.01,-62.34,-991.98,148.75,-603.75,-726.25,1,94.316,
01/01/2000,01:23:48.95,20.74,-62.95,-990.27,148.75,-857.50,-560.0,1,94.159,
01/01/2000,01:23:48.96,20.62,-62.34,-990.52,157.50,-787.50,-411.25,1,94.170,
01/01/2000,01:23:48.97,20.13,-61.24,-991.86,70.0,-682.50,-358.75,1,94.180,
01/01/2000,01:23:48.98,18.91,-60.15,-993.45,131.25,-568.75,-192.50,1,94.190,
01/01/2000,01:23:48.99,18.91,-60.02,-993.20,166.25,-603.75,-245.0,1,94.200,
01/01/2000,01:23:49.00,19.52,-60.39,-991.98,157.50,-603.75,-192.50,1,94.211,
01/01/2000,01:23:49.01,20.25,-61.24,-990.88,201.25,-708.75,-175.0,1,94.221,
01/01/2000,01:23:49.02,20.62,-62.22,-990.76,87.50,-813.75,-236.25,1,94.231,
01/01/2000,01:23:49.04,20.37,-62.71,-991.86,96.25,-630.0,-455.0,1,94.241,
01/01/2000,01:23:49.05,19.76,-61.73,-992.59,157.50,-603.75,-638.75,1,94.251,
01/01/2000,01:23:49.06,19.15,-60.63,-992.84,166.25,-691.25,-341.25,1,94.261,
01/01/2000,01:23:49.07,19.15,-59.78,-992.10,227.50,-673.75,70.0,1,94.271,
01/01/2000,01:23:49.08,19.76,-60.27,-991.62,245.0,-831.25,26.25,1,94.281,
01/01/2000,01:23:49.09,20.25,-61.61,-991.62,218.75,-796.25,-315.0,1,94.291,
01/01/2000,01:23:49.10,20.50,-62.59,-991.98,-17.50,-691.25,-507.50,1,94.301,
01/01/2000,01:23:49.11,20.01,-62.34,-992.59,122.50,-700.0,-638.75,1,94.310,
01/01/2000,01:23:49.12,19.52,-61.24,-992.59,175.0,-568.75,-376.25,1,94.320,
01/01/2000,01:23:49.13,19.15,-60.02,-992.35,52.50,-682.50,-166.25,1,94.330,
01/01/2000,01:23:49.14,19.28,-59.90,-992.23,201.25,-735.0,-61.25,1,94.340,
01/01/2000,01:23:49.15,19.76,-60.88,-992.47,70.0,-630.0,-227.50,1,94.349,
01/01/2000,01:23:49.16,20.01,-61.98,-992.47,131.25,-708.75,-341.25,1,94.359,
01/01/2000,01:23:49.17,20.01,-62.22,-992.35,183.75,-656.25,-630.0,1,94.369,
01/01/2000,01:23:49.18,19.64,-61.49,-992.23,227.50,-673.75,-507.50,1,94.378,
01/01/2000,01:23:49.19,19.52,-60.51,-992.35,271.25,-735.0,-218.75,1,94.388,
01/01/2000,01:23:49.20,19.52,-60.15,-992.84,175.0,-691.25,-201.25,1,94.237,
01/01/2000,01:23:49.21,19.52,-60.88,-992.84,236.25,-708.75,-218.75,1,94.407,
01/01/2000,01:23:49.22,19.76,-61.49,-992.71,122.50,-682.50,-271.25,1,94.257,
01/01/2000,01:23:49.23,19.89,-62.22,-992.35,271.25,-577.50,-420.0,1,94.266,
01/01/2000,01:23:49.25,20.13,-61.98,-991.98,218.75,-787.50,-271.25,1,94.276,
01/01/2000,01:23:49.26,20.01,-61.24,-992.23,218.75,-726.25,-315.0,1,94.286,
01/01/2000,01:23:49.27,19.76,-60.76,-992.59,280.0,-708.75,-201.25,1,94.295,
01/01/2000,01:23:49.28,19.52,-60.88,-992.71,262.50,-595.0,-175.0,1,94.305,
01/01/2000,01:23:49.29,19.52,-61.24,-992.47,201.25,-612.50,-376.25,1,94.314,
01/01/2000,01:23:49.30,19.76,-61.49,-992.10,175.0,-717.50,-376.25,1,94.324,
01/01/2000,01:23:49.31,20.01,-61.61,-992.10,157.50,-805.0,-341.25,1,94.333,
01/01/2000,01:23:49.32,19.89,-61.24,-992.35,105.0,-603.75,-385.0,1,94.343,
01/01/2000,01:23:49.33,19.76,-61.0,-992.59,210.0,-717.50,-341.25,1,94.352,
01/01/2000,01:23:49.34,19.64,-60.76,-992.59,210.0,-691.25,-306.25,1,94.362,
01/01/2000,01:23:49.35,19.76,-60.76,-992.47,113.75,-525.0,-236.25,1,94.371,
01/01/2000,01:23:49.36,19.89,-60.76,-992.10,148.75,-708.75,-245.0,1,94.380,
01/01/2000,01:23:49.37,20.13,-61.0,-991.86,210.0,-770.0,-280.0,1,94.389,
01/01/2000,01:23:49.38,20.01,-61.24,-991.86,131.25,-700.0,-306.25,1,94.399,
01/01/2000,01:23:49.39,19.76,-61.49,-992.23,201.25,-595.0,-542.50,1,94.253,
01/01/2000,01:23:49.40,19.76,-61.0,-992.47,87.50,-682.50,-306.25,1,94.262,
01/01/2000,01:23:49.41,19.89,-60.88,-992.47,113.75,-568.75,-288.75,1,94.272,
01/01/2000,01:23:49.42,19.76,-61.0,-992.35,245.0,-708.75,-131.25,1,94.281,
01/01/2000,01:23:49.43,19.89,-61.24,-992.23,26.25,-638.75,-297.50,1,94.290,
01/01/2000,01:23:49.44,20.01,-61.61,-992.35,166.25,-708.75,-376.25,1,94.300,
01/01/2000,01:23:49.46,20.01,-61.24,-992.35,78.75,-726.25,-367.50,1,94.156,
01/01/2000,01:23:49.47,20.01,-60.76,-992.35,218.75,-708.75,-280.0,1,94.165,
01/01/2000,01:23:49.48,19.76,-60.88,-992.35,271.25,-735.0,-245.0,1,94.175,
01/01/2000,01:23:49.49,19.76,-60.88,-992.35,-8.75,-700.0,-402.50,1,94.184,
01/01/2000,01:23:49.50,20.01,-61.24,-992.35,17.50,-656.25,-210.0,1,94.194,
01/01/2000,01:23:49.51,19.89,-61.37,-992.35,87.50,-673.75,-367.50,1,94.203,
01/01/2000,01:23:49.52,19.76,-61.24,-992.10,183.75,-612.50,-428.75,1,94.212,
01/01/2000,01:23:49.54,19.76,-61.0,-992.10,157.50,-735.0,-367.50,1,94.222,
01/01/2000,01:23:49.55,20.01,-60.76,-992.23,192.50,-708.75,-376.25,1,94.231,
01/01/2000,01:23:49.56,20.01,-60.76,-992.59,61.25,-621.25,-306.25,1,94.240,
01/01/2000,01:23:49.57,20.01,-61.12,-992.47,43.75,-708.75,-201.25,1,94.249,
01/01/2000,01:23:49.58,19.89,-61.24,-992.35,148.75,-647.50,-288.75,1,94.258,
01/01/2000,01:23:49.59,20.01,-61.49,-992.35,148.75,-682.50,-437.50,1,94.268,
01/01/2000,01:23:49.60,19.89,-61.37,-992.35,122.50,-612.50,-280.0,1,94.277,
01/01/2000,01:23:49.61,19.76,-61.0,-992.59,70.0,-647.50,-332.50,1,94.286,
01/01/2000,01:23:49.62,19.89,-61.0,-992.71,236.25,-700.0,-306.25,1,94.295,
01/01/2000,01:23:49.63,19.89,-60.88,-992.59,96.25,-752.50,-323.75,1,94.304,
01/01/2000,01:23:49.64,20.01,-61.24,-992.35,280.0,-717.50,-402.50,1,94.313,
01/01/2000,01:23:49.65,20.01,-61.24,-992.35,122.50,-778.75,-218.75,1,94.322,
01/01/2000,01:23:49.66,20.01,-61.24,-992.35,262.50,-691.25,-297.50,1,94.331,
01/01/2000,01:23:49.67,20.01,-61.49,-992.35,227.50,-682.50,-306.25,1,94.340,
01/01/2000,01:23:49.68,19.76,-61.12,-992.35,96.25,-717.50,-262.50,1,94.349,
01/01/2000,01:23:49.69,19.76,-61.12,-992.35,218.75,-603.75,-358.75,1,94.357,
01/01/2000,01:23:49.70,19.76,-61.24,-992.10,157.50,-717.50,-323.75,1,94.366,
01/01/2000,01:23:49.71,19.89,-61.12,-992.23,-26.25,-630.0,-420.0,1,94.375,
01/01/2000,01:23:49.72,20.01,-61.49,-992.23,288.75,-717.50,-315.0,1,94.384,
01/01/2000,01:23:49.73,19.76,-61.24,-992.23,131.25,-656.25,-297.50,1,94.393,
01/01/2000,01:23:49.75,19.52,-61.24,-992.35,70.0,-726.25,-262.50,1,94.255,
01/01/2000,01:23:49.76,19.64,-60.88,-992.59,157.50,-796.25,-280.0,1,94.264,
01/01/2000,01:23:49.77,19.89,-61.0,-992.59,183.75,-700.0,-315.0,1,94.272,
01/01/2000,01:23:49.78,19.76,-61.0,-992.47,175.0,-621.25,-245.0,1,94.281,
01/01/2000,01:23:49.79,19.76,-61.24,-992.35,148.75,-630.0,-332.50,1,94.290,
01/01/2000,01:23:49.80,19.76,-61.24,-992.35,148.75,-673.75,-385.0,1,94.299,
01/01/2000,01:23:49.81,19.89,-61.24,-992.35,70.0,-621.25,-367.50,1,94.308,
01/01/2000,01:23:49.82,20.01,-61.0,-992.47,113.75,-682.50,-376.25,1,94.316,
01/01/2000,01:23:49.83,19.89,-61.12,-992.35,262.50,-638.75,-393.75,1,94.325,
01/01/2000,01:23:49.84,19.76,-61.37,-992.35,105.0,-673.75,-472.50,1,94.334,
01/01/2000,01:23:49.85,19.76,-61.37,-992.23,70.0,-831.25,-428.75,1,94.343,
01/01/2000,01:23:49.86,20.01,-61.37,-992.10,227.50,-682.50,-315.0,1,94.351,
01/01/2000,01:23:49.87,20.01,-61.24,-992.23,183.75,-708.75,-271.25,1,94.360,
01/01/2000,01:23:49.89,19.89,-61.0,-992.35,148.75,-726.25,-306.25,1,94.225,
01/01/2000,01:23:49.90,19.76,-61.24,-992.35,113.75,-708.75,-306.25,1,94.234,
01/01/2000,01:23:49.91,19.76,-61.24,-992.23,122.50,-612.50,-280.0,1,94.242,
01/01/2000,01:23:49.92,19.76,-61.49,-992.10,78.75,-726.25,-350.0,1,94.251,
01/01/2000,01:23:49.93,19.89,-61.49,-992.35,218.75,-673.75,-402.50,1,94.260,
01/01/2000,01:23:49.94,19.89,-61.24,-992.23,70.0,-665.0,-306.25,1,94.268,
01/01/2000,01:23:49.95,19.76,-61.24,-992.35,218.75,-665.0,-323.75,1,94.277,
01/01/2000,01:23:49.96,19.76,-61.12,-992.35,201.25,-682.50,-341.25,1,94.144,
01/01/2000,01:23:49.98,19.76,-61.0,-992.23,35.0,-743.75,-245.0,1,94.153,
01/01/2000,01:23:49.99,19.89,-61.37,-992.23,253.75,-595.0,-350.0,1,94.162,
01/01/2000,01:23:50.00,19.64,-61.24,-992.23,105.0,-621.25,-455.0,1,94.170,
01/01/2000,01:23:50.01,19.52,-61.0,-992.23,113.75,-665.0,-323.75,1,94.179,
01/01/2000,01:23:50.02,19.52,-61.12,-992.23,183.75,-708.75,-297.50,1,94.188,
01/01/2000,01:23:50.03,19.52,-60.76,-992.23,122.50,-691.25,-332.50,1,94.196,
01/01/2000,01:23:50.04,19.52,-61.0,-992.47,218.75,-630.0,-332.50,1,94.205,
01/01/2000,01:23:50.05,19.52,-61.24,-992.35,245.0,-490.0,-332.50,1,94.214,
01/01/2000,01:23:50.06,19.40,-61.12,-992.10,122.50,-761.25,-288.75,1,94.222,
01/01/2000,01:23:50.07,19.52,-61.24,-992.10,70.0,-612.50,-411.25,1,94.231,
01/01/2000,01:23:50.08,19.52,-61.0,-992.35,148.75,-665.0,-288.75,1,94.239,
01/01/2000,01:23:50.09,19.52,-61.0,-992.35,87.50,-813.75,-341.25,1,94.109,
01/01/2000,01:23:50.10,19.52,-60.88,-992.35,105.0,-778.75,-385.0,1,94.118,
01/01/2000,01:23:50.11,19.52,-61.12,-992.35,262.50,-708.75,-218.75,1,94.126,
01/01/2000,01:23:50.12,19.64,-61.0,-992.35,43.75,-787.50,-420.0,1,94.135,
01/01/2000,01:23:50.13,19.64,-61.24,-992.23,271.25,-735.0,-332.50,1,94.143,
01/01/2000,01:23:50.14,19.76,-61.12,-992.10,87.50,-726.25,-367.50,1,94.152,
01/01/2000,01:23:50.15,19.76,-61.0,-992.10,218.75,-577.50,-315.0,1,94.161,
01/01/2000,01:23:50.16,19.52,-60.76,-992.35,-26.25,-726.25,-323.75,1,94.169,
01/01/2000,01:23:50.17,19.64,-61.0,-992.23,227.50,-726.25,-323.75,1,94.178,
01/01/2000,01:23:50.19,19.52,-61.0,-991.98,148.75,-647.50,-376.25,1,94.186,
01/01/2000,01:23:50.20,19.52,-61.24,-991.86,227.50,-700.0,-315.0,1,94.194,
01/01/2000,01:23:50.21,19.64,-61.12,-991.98,87.50,-682.50,-350.0,1,94.203,
01/01/2000,01:23:50.22,19.64,-61.12,-992.10,-35.0,-612.50,-367.50,1,94.211,
01/01/2000,01:23:50.23,19.52,-60.88,-992.23,105.0,-761.25,-288.75,1,94.220,
01/01/2000,01:23:50.24,19.52,-61.0,-992.35,148.75,-630.0,-350.0,1,94.228,
01/01/2000,01:23:50.25,19.64,-61.0,-992.10,-17.50,-717.50,-288.75,1,94.236,
01/01/2000,01:23:50.26,19.76,-61.24,-992.10,253.75,-691.25,-472.50,1,94.245,
01/01/2000,01:23:50.27,19.76,-61.12,-991.98,105.0,-682.50,-271.25,1,94.253,
01/01/2000,01:23:50.28,19.64,-61.0,-991.98,218.75,-656.25,-358.75,1,94.261,
01/01/2000,01:23:50.29,19.76,-61.0,-991.98,113.75,-691.25,-280.0,1,94.269,
01/01/2000,01:23:50.30,19.52,-60.76,-992.10,192.50,-621.25,-280.0,1,94.278,
01/01/2000,01:23:50.31,19.52,-60.76,-992.23,61.25,-682.50,-236.25,1,94.151,
01/01/2000,01:23:50.32,19.76,-61.12,-992.10,332.50,-735.0,-350.0,1,94.160,
01/01/2000,01:23:50.33,19.76,-61.24,-992.10,183.75,-761.25,-402.50,1,94.168,
01/01/2000,01:23:50.34,19.89,-61.37,-992.10,227.50,-761.25,-402.50,1,94.176,
01/01/2000,01:23:50.35,20.01,-61.24,-991.98,306.25,-665.0,-341.25,1,94.184,
01/01/2000,01:23:50.36,20.01,-61.0,-992.23,175.0,-682.50,-393.75,1,94.193,
01/01/2000,01:23:50.37,19.89,-61.0,-992.35,52.50,-700.0,-175.0,1,94.201,
01/01/2000,01:23:50.39,19.76,-61.0,-992.10,183.75,-813.75,-280.0,1,94.209,
01/01/2000,01:23:50.40,19.76,-61.24,-992.10,157.50,-647.50,-385.0,1,94.217,
01/01/2000,01:23:50.41,19.76,-61.0,-992.10,122.50,-735.0,-402.50,1,94.225,
01/01/2000,01:23:50.42,19.76,-61.0,-992.23,166.25,-638.75,-288.75,1,94.233,
01/01/2000,01:23:50.43,19.52,-60.76,-992.10,218.75,-612.50,-271.25,1,94.242,
01/01/2000,01:23:50.44,19.40,-60.88,-992.10,0.0,-752.50,-350.0,1,94.250,
01/01/2000,01:23:50.45,19.40,-60.88,-992.23,131.25,-700.0,-350.0,1,94.258,
01/01/2000,01:23:50.46,19.40,-61.0,-992.23,166.25,-647.50,-332.50,1,94.266,
01/01/2000,01:23:50.47,19.52,-61.12,-992.23,175.0,-743.75,-420.0,1,94.274,
01/01/2000,01:23:50.48,19.40,-61.24,-992.10,35.0,-752.50,-280.0,1,94.150,
01/01/2000,01:23:50.50,19.52,-61.37,-992.10,175.0,-813.75,-428.75,1,94.159,
01/01/2000,01:23:50.50,19.40,-61.49,-992.10,166.25,-656.25,-393.75,1,94.167,
01/01/2000,01:23:50.52,19.28,-61.24,-992.10,0.0,-735.0,-262.50,1,94.175,
01/01/2000,01:23:50.53,19.64,-61.12,-992.23,297.50,-647.50,-490.0,1,94.183,
01/01/2000,01:23:50.54,19.52,-61.24,-992.10,140.0,-708.75,-332.50,1,94.191,
01/01/2000,01:23:50.55,19.64,-61.49,-992.23,70.0,-700.0,-367.50,1,94.199,
01/01/2000,01:23:50.56,19.76,-61.61,-992.35,157.50,-778.75,-411.25,1,94.207,
01/01/2000,01:23:50.57,19.64,-61.49,-992.47,140.0,-656.25,-341.25,1,94.215,
01/01/2000,01:23:50.58,19.76,-61.24,-992.47,113.75,-708.75,-411.25,1,94.223,
01/01/2000,01:23:50.59,19.52,-61.0,-992.35,245.0,-700.0,-358.75,1,94.231,
01/01/2000,01:23:50.60,19.64,-61.0,-992.35,61.25,-647.50,-245.0,1,94.239,
01/01/2000,01:23:50.61,19.76,-61.24,-992.35,271.25,-822.50,-402.50,1,94.247,
01/01/2000,01:23:50.62,19.76,-61.24,-992.47,253.75,-778.75,-350.0,1,94.254,
01/01/2000,01:23:50.63,19.76,-61.24,-992.47,201.25,-682.50,-420.0,1,94.262,
01/01/2000,01:23:50.64,19.76,-61.24,-992.47,175.0,-735.0,-350.0,1,94.270,
01/01/2000,01:23:50.65,19.64,-61.0,-992.35,183.75,-682.50,-402.50,1,94.278,
01/01/2000,01:23:50.66,19.76,-61.0,-992.35,122.50,-665.0,-288.75,1,94.286,
01/01/2000,01:23:50.67,19.89,-61.24,-992.35,148.75,-770.0,-393.75,1,94.293,
01/01/2000,01:23:50.68,19.89,-61.37,-992.23,105.0,-700.0,-288.75,1,94.301,
01/01/2000,01:23:50.69,19.89,-61.49,-992.23,131.25,-726.25,-376.25,1,94.309,
01/01/2000,01:23:50.70,20.01,-61.37,-992.23,122.50,-630.0,-253.75,1,94.189,
01/01/2000,01:23:50.71,19.89,-61.37,-992.35,227.50,-682.50,-332.50,1,94.324,
01/01/2000,01:23:50.72,19.89,-61.37,-992.47,122.50,-805.0,-393.75,1,94.205,
01/01/2000,01:23:50.74,20.01,-61.24,-992.35,131.25,-743.75,-385.0,1,94.213,
01/01/2000,01:23:50.75,20.01,-61.24,-992.35,131.25,-630.0,-315.0,1,94.220,
01/01/2000,01:23:50.76,20.13,-61.0,-992.23,175.0,-595.0,-420.0,1,94.228,
01/01/2000,01:23:50.77,20.13,-61.24,-992.35,201.25,-551.25,-402.50,1,94.236,
01/01/2000,01:23:50.78,20.13,-61.24,-992.47,218.75,-735.0,-350.0,1,94.244,
01/01/2000,01:23:50.79,20.01,-61.24,-992.35,8.75,-700.0,-358.75,1,94.251,
01/01/2000,01:23:50.80,20.01,-61.24,-992.35,245.0,-700.0,-358.75,1,94.259,
01/01/2000,01:23:50.81,19.89,-61.0,-992.35,122.50,-612.50,-376.25,1,94.267,
01/01/2000,01:23:50.82,19.89,-61.24,-992.35,70.0,-770.0,-271.25,1,94.274,
01/01/2000,01:23:50.83,19.89,-61.24,-992.35,183.75,-752.50,-376.25,1,94.282,
01/01/2000,01:23:50.84,20.01,-61.49,-992.59,288.75,-708.75,-376.25,1,94.290,
01/01/2000,01:23:50.85,20.01,-61.24,-992.59,122.50,-630.0,-420.0,1,94.297,
01/01/2000,01:23:50.86,19.89,-61.12,-992.47,105.0,-638.75,-411.25,1,94.305,
01/01/2000,01:23:50.87,19.89,-61.0,-992.35,210.0,-743.75,-446.25,1,94.312,
01/01/2000,01:23:50.88,19.89,-61.0,-992.35,113.75,-603.75,-323.75,1,94.195,
01/01/2000,01:23:50.89,20.01,-61.24,-992.35,148.75,-752.50,-437.50,1,94.203,
01/01/2000,01:23:50.90,19.89,-61.49,-992.35,210.0,-700.0,-367.50,1,94.211,
01/01/2000,01:23:50.91,19.89,-61.24,-992.35,157.50,-735.0,-463.75,1,94.218,
01/01/2000,01:23:50.92,19.76,-61.12,-992.23,358.75,-673.75,-245.0,1,94.226,
01/01/2000,01:23:50.93,19.89,-61.24,-992.23,122.50,-726.25,-288.75,1,94.233,
01/01/2000,01:23:50.94,19.76,-61.24,-992.35,131.25,-673.75,-332.50,1,94.241,
01/01/2000,01:23:50.96,19.89,-61.49,-992.35,253.75,-595.0,-315.0,1,94.248,
01/01/2000,01:23:50.97,19.89,-61.49,-992.35,192.50,-691.25,-367.50,1,94.256,
01/01/2000,01:23:50.98,19.89,-61.49,-992.23,192.50,-577.50,-367.50,1,94.263,
01/01/2000,01:23:50.99,20.01,-61.37,-992.35,105.0,-778.75,-236.25,1,94.271,
01/01/2000,01:23:51.00,19.89,-61.49,-992.47,-8.75,-752.50,-271.25,1,94.156,
01/01/2000,01:23:51.01,19.89,-61.49,-992.59,253.75,-726.25,-297.50,1,94.163,
01/01/2000,01:23:51.02,20.01,-61.61,-992.59,271.25,-630.0,-341.25,1,94.171,
01/01/2000,01:23:51.03,20.01,-61.49,-992.35,201.25,-735.0,-490.0,1,94.179,
01/01/2000,01:23:51.04,20.01,-61.49,-992.23,245.0,-700.0,-297.50,1,94.186,
01/01/2000,01:23:51.05,19.76,-61.37,-992.35,131.25,-700.0,-280.0,1,94.194,
01/01/2000,01:23:51.06,19.89,-61.49,-992.35,201.25,-735.0,-420.0,1,94.201,
01/01/2000,01:23:51.07,20.01,-61.49,-992.47,113.75,-691.25,-332.50,1,94.208,
01/01/2000,01:23:51.08,20.01,-61.37,-992.35,218.75,-726.25,-288.75,1,94.216,
01/01/2000,01:23:51.10,20.01,-61.37,-992.23,122.50,-665.0,-455.0,1,94.223,
01/01/2000,01:23:51.11,19.76,-61.24,-992.10,157.50,-665.0,-385.0,1,94.231,
01/01/2000,01:23:51.12,19.89,-61.24,-992.23,52.50,-682.50,-367.50,1,94.238,
01/01/2000,01:23:51.13,20.01,-61.24,-992.23,245.0,-577.50,-315.0,1,94.246,
01/01/2000,01:23:51.14,19.89,-61.12,-992.35,166.25,-735.0,-315.0,1,94.253,
01/01/2000,01:23:51.15,19.89,-61.24,-992.35,210.0,-743.75,-358.75,1,94.260,
01/01/2000,01:23:51.16,19.64,-61.24,-992.35,70.0,-700.0,-455.0,1,94.268,
01/01/2000,01:23:51.17,19.76,-61.24,-992.23,96.25,-630.0,-271.25,1,94.275,
01/01/2000,01:23:51.18,19.89,-61.0,-992.35,78.75,-673.75,-402.50,1,94.282,
01/01/2000,01:23:51.19,19.76,-61.0,-992.23,113.75,-656.25,-402.50,1,94.289,
01/01/2000,01:23:51.20,19.64,-60.88,-992.35,70.0,-796.25,-306.25,1,94.297,
01/01/2000,01:23:51.21,19.64,-61.0,-992.23,192.50,-682.50,-393.75,1,94.304,
01/01/2000,01:23:51.22,19.64,-61.12,-992.23,-8.75,-621.25,-323.75,1,94.311,
01/01/2000,01:23:51.23,19.64,-60.88,-992.10,175.0,-708.75,-297.50,1,94.199,
01/01/2000,01:23:51.24,19.64,-60.88,-992.23,227.50,-735.0,-280.0,1,94.207,
01/01/2000,01:23:51.25,19.64,-61.0,-992.23,61.25,-577.50,-350.0,1,94.214,
01/01/2000,01:23:51.26,19.52,-60.76,-992.35,61.25,-673.75,-280.0,1,94.221,
01/01/2000,01:23:51.27,19.64,-60.88,-992.23,175.0,-682.50,-236.25,1,94.228,
01/01/2000,01:23:51.28,19.76,-60.63,-992.23,105.0,-735.0,87.50,1,94.236,
01/01/2000,01:23:51.29,19.76,-60.27,-992.35,210.0,-682.50,376.25,1,94.243,
01/01/2000,01:23:51.31,19.76,-60.02,-992.47,78.75,-551.25,1408.75,1,94.250,
01/01/2000,01:23:51.32,19.64,-59.78,-992.59,183.75,-656.25,2651.25,1,94.257,
01/01/2000,01:23:51.33,19.52,-59.78,-992.59,78.75,-516.25,4908.75,1,94.264,
01/01/2000,01:23:51.34,19.28,-59.54,-992.59,148.75,-306.25,8531.25,1,94.271,
01/01/2000,01:23:51.35,19.52,-59.78,-992.35,-52.50,-315.0,10106.25,1,94.279,
01/01/2000,01:23:51.36,19.52,-59.78,-992.35,-78.75,-411.25,10797.50,1,94.286,
01/01/2000,01:23:51.37,19.64,-60.15,-992.35,210.0,-271.25,10902.50,1,94.293,
01/01/2000,01:23:51.38,19.52,-60.39,-992.35,87.50,-358.75,10640.0,1,94.300,
01/01/2000,01:23:51.39,19.64,-60.27,-992.35,43.75,-297.50,10535.0,1,94.307,
01/01/2000,01:23:51.40,19.64,-59.29,-992.23,0.0,-245.0,11497.50,1,94.314,
01/01/2000,01:23:51.41,19.64,-58.32,-992.10,-35.0,-201.25,13571.25,1,94.321,
01/01/2000,01:23:51.42,19.52,-57.71,-992.35,-175.0,-227.50,16441.25,1,94.328,
01/01/2000,01:23:51.43,19.28,-57.58,-992.35,-52.50,-87.50,19346.25,1,94.335,
01/01/2000,01:23:51.45,19.40,-58.68,-992.47,87.50,8.75,22881.25,1,94.226,
01/01/2000,01:23:51.46,19.52,-59.54,-992.47,-35.0,105.0,24316.25,1,94.233,
01/01/2000,01:23:51.47,19.76,-60.39,-991.98,-148.75,96.25,23511.25,1,94.240,
01/01/2000,01:23:51.48,20.01,-60.39,-991.62,8.75,-26.25,21533.75,1,94.247,
01/01/2000,01:23:51.49,19.76,-59.29,-991.62,-148.75,-122.50,19652.50,1,94.254,
01/01/2000,01:23:51.50,19.28,-58.93,-992.23,8.75,-166.25,16826.25,1,94.261,
01/01/2000,01:23:51.51,19.15,-59.78,-992.35,192.50,-122.50,16721.25,1,94.268,
01/01/2000,01:23:51.52,19.28,-60.02,-992.35,-131.25,-113.75,17815.0,1,94.161,
01/01/2000,01:23:51.53,19.52,-60.51,-992.10,-87.50,-70.0,21455.0,1,94.168,
01/01/2000,01:23:51.54,19.76,-60.76,-991.86,70.0,201.25,24255.0,1,94.175,
01/01/2000,01:23:51.55,19.52,-60.02,-991.98,-192.50,245.0,26460.0,1,94.182,
01/01/2000,01:23:51.56,19.40,-60.15,-992.23,78.75,280.0,27107.50,1,94.189,
01/01/2000,01:23:51.57,19.15,-59.78,-992.59,35.0,262.50,24202.50,1,94.196,
01/01/2000,01:23:51.58,19.40,-60.39,-992.47,-105.0,61.25,21892.50,1,94.203,
01/01/2000,01:23:51.59,19.64,-61.12,-992.10,35.0,-8.75,19845.0,1,94.210,
01/01/2000,01:23:51.60,19.76,-61.61,-991.98,-26.25,-105.0,18296.25,1,94.217,
01/01/2000,01:23:51.61,19.89,-62.95,-991.86,236.25,-43.75,17115.0,1,94.224,
01/01/2000,01:23:51.62,19.76,-63.20,-991.98,140.0,-183.75,16730.0,1,94.231,
01/01/2000,01:23:51.63,19.76,-62.59,-992.10,35.0,-192.50,16712.50,1,94.238,
01/01/2000,01:23:51.64,19.76,-61.98,-992.10,52.50,-17.50,16826.25,1,94.245,
01/01/2000,01:23:51.66,19.52,-61.24,-992.10,35.0,8.75,18401.25,1,94.251,
01/01/2000,01:23:51.67,19.52,-61.49,-991.98,0.0,-17.50,21026.25,1,94.258,
01/01/2000,01:23:51.68,19.76,-61.49,-992.10,-52.50,148.75,22898.75,1,94.265,
01/01/2000,01:23:51.69,19.89,-62.46,-991.98,183.75,175.0,23187.50,1,94.272,
01/01/2000,01:23:51.70,19.76,-62.22,-991.98,-358.75,0.0,19757.50,1,94.279,
01/01/2000,01:23:51.71,19.89,-62.95,-991.86,253.75,-236.25,13002.50,1,94.286,
01/01/2000,01:23:51.72,19.89,-63.44,-991.86,446.25,-603.75,1837.50,1,94.293,
01/01/2000,01:23:51.73,19.76,-62.95,-992.10,280.0,-717.50,-2038.75,1,94.299,
01/01/2000,01:23:51.74,19.89,-62.95,-992.35,35.0,-682.50,551.25,1,94.194,
01/01/2000,01:23:51.75,20.01,-62.95,-992.35,-43.75,-682.50,2170.0,1,94.313,
01/01/2000,01:23:51.76,20.01,-63.20,-992.10,271.25,-603.75,1557.50,1,94.208,
01/01/2000,01:23:51.77,19.76,-63.20,-991.74,140.0,-700.0,1470.0,1,94.215,
01/01/2000,01:23:51.78,19.52,-62.83,-991.86,113.75,-595.0,2082.50,1,94.222,
01/01/2000,01:23:51.79,19.52,-62.59,-992.23,70.0,-560.0,2642.50,1,94.229,
01/01/2000,01:23:51.81,19.76,-62.22,-992.35,70.0,-533.75,3325.0,1,94.235,
01/01/2000,01:23:51.82,19.76,-62.34,-992.23,61.25,-630.0,3395.0,1,94.242,
01/01/2000,01:23:51.83,19.76,-62.46,-991.86,70.0,-682.50,3430.0,1,94.249,
01/01/2000,01:23:51.84,19.64,-62.71,-991.62,87.50,-647.50,2738.75,1,94.256,
01/01/2000,01:23:51.85,19.64,-62.83,-992.10,140.0,-603.75,2248.75,1,94.262,
01/01/2000,01:23:51.86,19.76,-62.71,-992.23,192.50,-595.0,1610.0,1,94.269,
01/01/2000,01:23:51.87,19.52,-62.34,-992.35,61.25,-612.50,743.75,1,94.276,
01/01/2000,01:23:51.88,19.52,-61.85,-992.10,175.0,-638.75,437.50,1,94.282,
01/01/2000,01:23:51.89,19.64,-62.10,-992.10,122.50,-708.75,332.50,1,94.289,
01/01/2000,01:23:51.90,19.76,-61.98,-992.10,218.75,-682.50,131.25,1,94.296,
01/01/2000,01:23:51.91,19.64,-62.22,-992.35,201.25,-708.75,148.75,1,94.302,
01/01/2000,01:23:51.92,19.52,-62.22,-992.35,323.75,-770.0,-52.50,1,94.309,
01/01/2000,01:23:51.93,19.40,-61.73,-992.35,87.50,-638.75,-323.75,1,94.316,
01/01/2000,01:23:51.94,19.52,-61.37,-992.23,253.75,-656.25,-236.25,1,94.213,
01/01/2000,01:23:51.95,19.64,-61.24,-992.35,245.0,-673.75,-105.0,1,94.220,
01/01/2000,01:23:51.96,19.76,-61.37,-992.35,148.75,-743.75,-87.50,1,94.226,
01/01/2000,01:23:51.97,19.64,-61.73,-992.35,218.75,-761.25,-52.50,1,94.233,
01/01/2000,01:23:51.98,19.64,-61.85,-992.35,148.75,-577.50,-288.75,1,94.240,
01/01/2000,01:23:51.99,19.64,-61.73,-992.10,35.0,-647.50,-385.0,1,94.246,
01/01/2000,01:23:52.00,19.76,-61.49,-992.23,218.75,-638.75,-280.0,1,94.253,
01/01/2000,01:23:52.02,19.76,-61.37,-992.35,192.50,-638.75,-288.75,1,94.259,
01/01/2000,01:23:52.03,19.64,-61.61,-992.23,192.50,-682.50,-376.25,1,94.158,
01/01/2000,01:23:52.04,19.64,-61.73,-992.10,236.25,-761.25,-472.50,1,94.165,
01/01/2000,01:23:52.05,19.76,-61.73,-992.10,105.0,-735.0,-490.0,1,94.171,
01/01/2000,01:23:52.06,19.64,-61.49,-992.10,227.50,-691.25,-341.25,1,94.178,
01/01/2000,01:23:52.07,19.64,-61.12,-992.23,175.0,-682.50,-201.25,1,94.185,
01/01/2000,01:23:52.08,19.64,-61.24,-992.23,175.0,-647.50,-253.75,1,94.191,
01/01/2000,01:23:52.09,19.52,-61.37,-992.23,17.50,-577.50,-393.75,1,94.198,
01/01/2000,01:23:52.10,19.76,-61.37,-992.23,113.75,-813.75,-350.0,1,94.205,
01/01/2000,01:23:52.11,19.89,-61.49,-992.23,96.25,-682.50,-341.25,1,94.211,
01/01/2000,01:23:52.12,19.89,-61.24,-992.23,236.25,-735.0,-367.50,1,94.218,
01/01/2000,01:23:52.13,19.76,-61.24,-992.10,201.25,-761.25,-306.25,1,94.224,
01/01/2000,01:23:52.14,19.64,-61.24,-992.10,218.75,-735.0,-385.0,1,94.231,
01/01/2000,01:23:52.16,19.52,-61.12,-992.23,175.0,-656.25,-393.75,1,94.237,
01/01/2000,01:23:52.17,19.64,-61.37,-992.10,315.0,-665.0,-455.0,1,94.244,
01/01/2000,01:23:52.18,19.52,-61.24,-992.10,288.75,-700.0,-420.0,1,94.250,
01/01/2000,01:23:52.19,19.52,-61.61,-991.98,166.25,-726.25,-280.0,1,94.257,
01/01/2000,01:23:52.20,19.52,-61.61,-991.98,26.25,-700.0,-306.25,1,94.263,
01/01/2000,01:23:52.21,19.64,-61.49,-991.98,183.75,-752.50,-437.50,1,94.270,
01/01/2000,01:23:52.22,19.64,-61.49,-992.10,192.50,-665.0,-350.0,1,94.276,
01/01/2000,01:23:52.23,19.40,-61.37,-991.86,262.50,-682.50,-297.50,1,94.283,
01/01/2000,01:23:52.24,19.52,-61.37,-991.86,131.25,-647.50,-542.50,1,94.289,
01/01/2000,01:23:52.25,19.52,-61.37,-991.86,183.75,-621.25,-280.0,1,94.295,
01/01/2000,01:23:52.26,19.52,-61.37,-992.10,122.50,-726.25,-437.50,1,94.302,
01/01/2000,01:23:52.27,19.52,-61.24,-992.23,245.0,-735.0,-315.0,1,94.308,
01/01/2000,01:23:52.28,19.52,-61.12,-992.23,192.50,-813.75,-358.75,1,94.314,
01/01/2000,01:23:52.29,19.28,-61.24,-991.86,253.75,-717.50,-192.50,1,94.216,
01/01/2000,01:23:52.30,19.40,-61.37,-992.10,140.0,-726.25,-402.50,1,94.222,
01/01/2000,01:23:52.31,19.40,-61.49,-992.23,175.0,-630.0,-358.75,1,94.229,
01/01/2000,01:23:52.32,19.52,-61.24,-992.35,17.50,-682.50,-332.50,1,94.235,
01/01/2000,01:23:52.33,19.52,-61.24,-992.23,175.0,-673.75,-376.25,1,94.241,
01/01/2000,01:23:52.34,19.28,-61.12,-992.10,175.0,-586.25,-323.75,1,94.248,
01/01/2000,01:23:52.35,19.28,-61.12,-992.10,227.50,-770.0,-350.0,1,94.254,
01/01/2000,01:23:52.37,19.40,-61.0,-992.10,35.0,-656.25,-341.25,1,94.260,
01/01/2000,01:23:52.38,19.52,-61.24,-992.23,315.0,-700.0,-323.75,1,94.267,
01/01/2000,01:23:52.39,19.40,-61.24,-992.23,166.25,-647.50,-420.0,1,94.273,
01/01/2000,01:23:52.40,19.40,-61.37,-991.98,131.25,-848.75,-507.50,1,94.279,
01/01/2000,01:23:52.41,19.28,-61.0,-991.86,201.25,-700.0,-463.75,1,94.286,
01/01/2000,01:23:52.42,19.52,-61.0,-992.10,113.75,-700.0,-288.75,1,94.292,
01/01/2000,01:23:52.43,19.52,-61.0,-992.35,183.75,-612.50,-288.75,1,94.298,
01/01/2000,01:23:52.44,19.40,-61.24,-992.10,78.75,-700.0,-367.50,1,94.304,
01/01/2000,01:23:52.45,19.28,-61.24,-991.86,166.25,-726.25,-428.75,1,94.311,
01/01/2000,01:23:52.46,19.40,-61.24,-991.86,393.75,-638.75,-402.50,1,94.317,
01/01/2000,01:23:52.47,19.52,-61.0,-992.10,183.75,-682.50,-288.75,1,94.323,
01/01/2000,01:23:52.48,19.40,-61.0,-992.23,78.75,-813.75,-358.75,1,94.329,
01/01/2000,01:23:52.49,19.40,-61.24,-992.35,113.75,-787.50,-367.50,1,94.233,
01/01/2000,01:23:52.51,19.28,-61.24,-992.35,148.75,-813.75,-323.75,1,94.239,
01/01/2000,01:23:52.52,19.40,-61.0,-992.23,105.0,-761.25,-498.75,1,94.245,
01/01/2000,01:23:52.53,19.64,-61.0,-992.35,253.75,-840.0,-358.75,1,94.150,
01/01/2000,01:23:52.54,19.52,-61.12,-992.23,131.25,-700.0,-402.50,1,94.156,
01/01/2000,01:23:52.55,19.28,-61.0,-992.35,201.25,-665.0,-455.0,1,94.162,
01/01/2000,01:23:52.56,19.40,-61.12,-992.23,192.50,-638.75,-463.75,1,94.168,
01/01/2000,01:23:52.57,19.40,-61.24,-992.23,87.50,-700.0,-236.25,1,94.175,
01/01/2000,01:23:52.58,19.28,-61.24,-992.23,78.75,-647.50,-428.75,1,94.181,
01/01/2000,01:23:52.59,19.28,-61.37,-992.23,201.25,-700.0,-323.75,1,94.187,
01/01/2000,01:23:52.60,19.28,-61.37,-992.23,245.0,-586.25,-437.50,1,94.194,
01/01/2000,01:23:52.62,19.28,-61.24,-992.23,306.25,-568.75,-332.50,1,94.200,
01/01/2000,01:23:52.62,19.28,-61.24,-992.10,175.0,-708.75,-358.75,1,94.206,
01/01/2000,01:23:52.64,19.52,-61.24,-992.10,227.50,-735.0,-376.25,1,94.212,
01/01/2000,01:23:52.65,19.52,-61.49,-992.10,262.50,-638.75,-358.75,1,94.218,
01/01/2000,01:23:52.66,19.64,-61.49,-992.23,140.0,-726.25,-297.50,1,94.225,
01/01/2000,01:23:52.67,19.52,-61.37,-992.23,166.25,-813.75,-376.25,1,94.231,
01/01/2000,01:23:52.68,19.64,-61.37,-992.10,122.50,-673.75,-341.25,1,94.237,
01/01/2000,01:23:52.69,19.76,-61.12,-992.10,78.75,-665.0,-323.75,1,94.243,
01/01/2000,01:23:52.70,19.64,-61.12,-992.23,218.75,-630.0,-227.50,1,94.249,
01/01/2000,01:23:52.71,19.64,-61.12,-992.35,175.0,-752.50,-385.0,1,94.255,
01/01/2000,01:23:52.72,19.40,-61.24,-992.35,96.25,-770.0,-367.50,1,94.261,
01/01/2000,01:23:52.73,19.40,-61.24,-992.10,105.0,-840.0,-367.50,1,94.268,
01/01/2000,01:23:52.74,19.28,-61.12,-992.23,131.25,-647.50,-245.0,1,94.274,
01/01/2000,01:23:52.75,19.28,-60.76,-992.35,131.25,-708.75,-376.25,1,94.280,
01/01/2000,01:23:52.76,19.64,-60.63,-992.10,148.75,-787.50,-341.25,1,94.286,
01/01/2000,01:23:52.77,19.76,-60.88,-991.74,201.25,-630.0,-175.0,1,94.292,
01/01/2000,01:23:52.78,19.15,-61.24,-991.98,148.75,-665.0,-306.25,1,94.298,
01/01/2000,01:23:52.79,19.03,-61.24,-991.98,227.50,-586.25,-446.25,1,94.204,
01/01/2000,01:23:52.80,19.52,-60.76,-991.86,183.75,-595.0,-621.25,1,94.211,
01/01/2000,01:23:52.81,20.01,-60.76,-991.86,245.0,-665.0,-192.50,1,94.217,
01/01/2000,01:23:52.82,19.76,-61.0,-991.74,35.0,-735.0,-96.25,1,94.223,
01/01/2000,01:23:52.83,19.40,-61.61,-991.62,113.75,-603.75,-568.75,1,94.229,
01/01/2000,01:23:52.84,19.28,-61.73,-991.86,105.0,-673.75,-437.50,1,94.235,
01/01/2000,01:23:52.85,19.52,-61.24,-992.10,183.75,-726.25,-402.50,1,94.241,
01/01/2000,01:23:52.87,19.64,-61.12,-992.10,166.25,-770.0,-183.75,1,94.247,
01/01/2000,01:23:52.88,19.52,-61.0,-992.10,105.0,-735.0,-245.0,1,94.253,
01/01/2000,01:23:52.89,19.52,-61.37,-991.98,17.50,-778.75,-332.50,1,94.259,
01/01/2000,01:23:52.90,19.40,-61.73,-992.10,218.75,-717.50,-385.0,1,94.265,
01/01/2000,01:23:52.91,19.52,-61.37,-992.35,52.50,-752.50,-367.50,1,94.271,
01/01/2000,01:23:52.92,19.64,-61.24,-992.23,105.0,-691.25,-376.25,1,94.277,
01/01/2000,01:23:52.93,19.52,-61.24,-992.10,245.0,-735.0,-288.75,1,94.185,
01/01/2000,01:23:52.94,19.52,-61.24,-991.86,175.0,-638.75,-428.75,1,94.191,
01/01/2000,01:23:52.95,19.40,-61.49,-991.98,201.25,-682.50,-402.50,1,94.197,
01/01/2000,01:23:52.96,19.52,-61.49,-992.10,253.75,-638.75,-428.75,1,94.203,
01/01/2000,01:23:52.97,19.52,-61.24,-992.10,70.0,-752.50,-245.0,1,94.209,
01/01/2000,01:23:52.98,19.52,-61.12,-991.86,245.0,-673.75,-402.50,1,94.215,
01/01/2000,01:23:52.99,19.40,-61.24,-991.74,280.0,-630.0,-306.25,1,94.221,
01/01/2000,01:23:53.01,19.28,-61.49,-991.86,175.0,-595.0,-463.75,1,94.227,
01/01/2000,01:23:53.02,19.28,-61.49,-992.23,105.0,-726.25,-437.50,1,94.233,
01/01/2000,01:23:53.03,19.52,-61.37,-992.35,271.25,-770.0,-253.75,1,94.239,
01/01/2000,01:23:53.04,19.28,-61.24,-992.10,122.50,-673.75,-341.25,1,94.245,
01/01/2000,01:23:53.05,19.15,-61.37,-992.10,61.25,-630.0,-358.75,1,94.251,
01/01/2000,01:23:53.06,19.40,-61.49,-992.10,148.75,-735.0,-428.75,1,94.256,
01/01/2000,01:23:53.07,19.52,-61.49,-992.10,183.75,-586.25,-315.0,1,94.262,
01/01/2000,01:23:53.08,19.52,-61.37,-992.23,122.50,-682.50,-323.75,1,94.172,
01/01/2000,01:23:53.09,19.52,-61.37,-992.10,148.75,-682.50,-446.25,1,94.178,
01/01/2000,01:23:53.10,19.52,-61.24,-991.86,78.75,-761.25,-245.0,1,94.184,
01/01/2000,01:23:53.11,19.52,-61.37,-991.86,175.0,-700.0,-411.25,1,94.190,
01/01/2000,01:23:53.12,19.64,-61.61,-992.10,175.0,-708.75,-428.75,1,94.196,
01/01/2000,01:23:53.13,19.76,-61.49,-992.10,157.50,-708.75,-271.25,1,94.201,
01/01/2000,01:23:53.14,19.64,-61.61,-991.86,288.75,-708.75,-420.0,1,94.207,
01/01/2000,01:23:53.15,19.52,-61.61,-991.74,105.0,-665.0,-358.75,1,94.213,
01/01/2000,01:23:53.16,19.40,-61.49,-991.74,122.50,-708.75,-393.75,1,94.219,
01/01/2000,01:23:53.17,19.64,-61.49,-991.98,350.0,-778.75,-262.50,1,94.225,
01/01/2000,01:23:53.19,19.64,-61.37,-992.10,210.0,-621.25,-245.0,1,94.231,
01/01/2000,01:23:53.19,19.52,-61.49,-991.86,70.0,-743.75,-358.75,1,94.237,
01/01/2000,01:23:53.21,19.40,-61.24,-991.86,227.50,-708.75,-332.50,1,94.242,
01/01/2000,01:23:53.22,19.52,-61.24,-991.74,218.75,-638.75,-411.25,1,94.248,
01/01/2000,01:23:53.23,19.52,-60.76,-991.86,105.0,-691.25,-315.0,1,94.254,
01/01/2000,01:23:53.24,19.52,-61.12,-991.86,288.75,-743.75,-271.25,1,94.260,
01/01/2000,01:23:53.25,19.52,-61.0,-991.86,175.0,-735.0,-288.75,1,94.266,
01/01/2000,01:23:53.26,19.64,-61.24,-991.86,393.75,-708.75,-463.75,1,94.271,
01/01/2000,01:23:53.27,19.52,-61.12,-991.86,78.75,-656.25,-367.50,1,94.277,
01/01/2000,01:23:53.28,19.64,-61.12,-992.10,8.75,-691.25,-323.75,1,94.283,
01/01/2000,01:23:53.29,19.64,-61.12,-991.86,122.50,-813.75,-385.0,1,94.289,
01/01/2000,01:23:53.30,19.52,-61.12,-991.86,140.0,-630.0,-367.50,1,94.294,
01/01/2000,01:23:53.31,19.52,-61.24,-991.86,52.50,-787.50,-288.75,1,94.300,
01/01/2000,01:23:53.32,19.52,-61.37,-991.86,297.50,-603.75,-516.25,1,94.306,
01/01/2000,01:23:53.33,19.64,-60.88,-991.86,-8.75,-831.25,-367.50,1,94.311,
01/01/2000,01:23:53.34,19.64,-61.37,-991.98,253.75,-612.50,-323.75,1,94.317,
01/01/2000,01:23:53.35,19.40,-61.24,-991.86,113.75,-595.0,-332.50,1,94.229,
01/01/2000,01:23:53.36,19.40,-61.24,-991.86,192.50,-761.25,-411.25,1,94.235,
01/01/2000,01:23:53.37,19.64,-61.24,-991.98,218.75,-656.25,-367.50,1,94.240,
01/01/2000,01:23:53.38,19.76,-61.37,-991.98,113.75,-656.25,-236.25,1,94.246,
01/01/2000,01:23:53.39,19.64,-61.49,-991.98,157.50,-673.75,-393.75,1,94.252,
01/01/2000,01:23:53.40,19.52,-61.49,-991.74,271.25,-691.25,-306.25,1,94.257,
01/01/2000,01:23:53.41,19.40,-61.49,-991.62,122.50,-665.0,-341.25,1,94.263,
01/01/2000,01:23:53.43,19.52,-61.24,-991.62,175.0,-743.75,-341.25,1,94.269,
01/01/2000,01:23:53.44,19.40,-61.12,-991.74,227.50,-700.0,-253.75,1,94.274,
01/01/2000,01:23:53.45,19.40,-61.12,-991.62,96.25,-743.75,-393.75,1,94.280,
01/01/2000,01:23:53.46,19.40,-61.24,-991.62,122.50,-665.0,-323.75,1,94.286,
01/01/2000,01:23:53.47,19.40,-61.49,-991.74,148.75,-752.50,-393.75,1,94.291,
01/01/2000,01:23:53.48,19.52,-61.49,-991.98,148.75,-665.0,-297.50,1,94.297,
01/01/2000,01:23:53.49,19.52,-61.24,-991.98,122.50,-770.0,-297.50,1,94.210,
01/01/2000,01:23:53.50,19.28,-61.24,-991.98,43.75,-700.0,-262.50,1,94.308,
01/01/2000,01:23:53.51,19.28,-61.37,-991.86,236.25,-682.50,-385.0,1,94.221,
01/01/2000,01:23:53.52,19.28,-61.49,-991.98,253.75,-665.0,-341.25,1,94.227,
01/01/2000,01:23:53.53,19.40,-61.49,-991.86,157.50,-612.50,-315.0,1,94.233,
01/01/2000,01:23:53.54,19.40,-61.49,-991.86,105.0,-796.25,-367.50,1,94.238,
01/01/2000,01:23:53.56,19.28,-61.61,-991.74,201.25,-761.25,-402.50,1,94.244,
01/01/2000,01:23:53.57,19.28,-61.49,-991.74,113.75,-621.25,-315.0,1,94.250,
01/01/2000,01:23:53.58,19.28,-61.49,-991.74,70.0,-726.25,-358.75,1,94.255,
01/01/2000,01:23:53.59,19.40,-61.49,-991.86,218.75,-752.50,-306.25,1,94.261,
01/01/2000,01:23:53.60,19.52,-61.49,-991.86,105.0,-735.0,-201.25,1,94.266,
01/01/2000,01:23:53.61,19.52,-61.49,-991.74,201.25,-691.25,-481.25,1,94.272,
01/01/2000,01:23:53.62,19.40,-61.61,-991.86,297.50,-787.50,-332.50,1,94.277,
01/01/2000,01:23:53.63,19.40,-61.37,-991.98,183.75,-682.50,-446.25,1,94.283,
01/01/2000,01:23:53.64,19.52,-61.24,-992.10,-96.25,-778.75,-210.0,1,94.197,
01/01/2000,01:23:53.65,19.52,-61.24,-991.86,218.75,-708.75,-297.50,1,94.203,
01/01/2000,01:23:53.66,19.52,-61.37,-991.62,87.50,-708.75,-367.50,1,94.208,
01/01/2000,01:23:53.67,19.52,-61.37,-991.62,166.25,-743.75,-393.75,1,94.214,
01/01/2000,01:23:53.68,19.52,-61.37,-991.74,70.0,-665.0,-280.0,1,94.220,
01/01/2000,01:23:53.69,19.64,-61.49,-991.98,148.75,-717.50,-262.50,1,94.225,
01/01/2000,01:23:53.71,19.64,-61.24,-991.98,122.50,-770.0,-332.50,1,94.231,
01/01/2000,01:23:53.72,19.76,-61.37,-991.86,105.0,-612.50,-402.50,1,94.236,
01/01/2000,01:23:53.73,19.64,-61.49,-991.86,105.0,-656.25,-402.50,1,94.242,
01/01/2000,01:23:53.74,19.64,-61.24,-991.74,227.50,-708.75,-393.75,1,94.247,
01/01/2000,01:23:53.75,19.64,-61.24,-991.86,201.25,-621.25,-341.25,1,94.253,
01/01/2000,01:23:53.76,19.52,-61.24,-991.74,-52.50,-726.25,-306.25,1,94.258,
01/01/2000,01:23:53.77,19.52,-61.37,-991.86,227.50,-577.50,-297.50,1,94.264,
01/01/2000,01:23:53.78,19.52,-61.24,-991.86,210.0,-673.75,-271.25,1,94.269,
01/01/2000,01:23:53.79,19.52,-61.24,-991.86,201.25,-708.75,-323.75,1,94.275,
01/01/2000,01:23:53.80,19.64,-61.37,-991.98,105.0,-700.0,-332.50,1,94.280,
01/01/2000,01:23:53.81,19.76,-61.37,-991.86,297.50,-603.75,-297.50,1,94.286,
01/01/2000,01:23:53.82,19.89,-61.37,-991.86,183.75,-717.50,-490.0,1,94.291,
01/01/2000,01:23:53.83,19.76,-61.24,-991.86,236.25,-700.0,-306.25,1,94.297,
01/01/2000,01:23:53.84,19.76,-61.12,-991.98,17.50,-717.50,-455.0,1,94.302,
01/01/2000,01:23:53.85,19.76,-61.12,-991.98,52.50,-682.50,-297.50,1,94.218,
01/01/2000,01:23:53.87,19.76,-61.49,-992.10,157.50,-726.25,-306.25,1,94.223,
01/01/2000,01:23:53.87,19.64,-61.37,-992.10,157.50,-673.75,-428.75,1,94.229,
01/01/2000,01:23:53.89,19.64,-61.37,-992.23,122.50,-726.25,-332.50,1,94.234,
01/01/2000,01:23:53.90,19.52,-61.37,-992.10,43.75,-682.50,-280.0,1,94.240,
01/01/2000,01:23:53.91,19.40,-61.37,-991.98,218.75,-691.25,-297.50,1,94.245,
01/01/2000,01:23:53.92,19.64,-61.24,-991.86,192.50,-630.0,-288.75,1,94.251,
01/01/2000,01:23:53.93,19.52,-61.24,-991.86,157.50,-691.25,-245.0,1,94.256,
01/01/2000,01:23:53.94,19.40,-61.24,-991.86,78.75,-743.75,-332.50,1,94.262,
01/01/2000,01:23:53.95,19.40,-61.24,-991.74,140.0,-743.75,-323.75,1,94.267,
01/01/2000,01:23:53.96,19.52,-61.37,-991.86,175.0,-595.0,-306.25,1,94.272,
01/01/2000,01:23:53.97,19.40,-61.12,-991.98,113.75,-761.25,-323.75,1,94.278,
01/01/2000,01:23:53.98,19.52,-61.49,-991.86,245.0,-647.50,-122.50,1,94.283,
01/01/2000,01:23:53.99,19.52,-61.49,-991.86,280.0,-621.25,-323.75,1,94.200,
01/01/2000,01:23:54.00,19.64,-61.49,-991.86,61.25,-647.50,-288.75,1,94.206,
01/01/2000,01:23:54.01,19.76,-61.24,-991.98,175.0,-691.25,-376.25,1,94.211,
01/01/2000,01:23:54.02,19.64,-61.24,-991.86,148.75,-726.25,-367.50,1,94.216,
01/01/2000,01:23:54.03,19.52,-61.24,-991.86,201.25,-656.25,-385.0,1,94.222,
01/01/2000,01:23:54.04,19.40,-61.12,-991.74,113.75,-761.25,-350.0,1,94.227,
01/01/2000,01:23:54.06,19.52,-61.24,-991.62,122.50,-691.25,-367.50,1,94.233,
01/01/2000,01:23:54.07,19.52,-61.49,-991.62,210.0,-682.50,-420.0,1,94.150,
01/01/2000,01:23:54.08,19.52,-61.49,-991.74,245.0,-700.0,-367.50,1,94.156,
01/01/2000,01:23:54.09,19.52,-61.49,-991.86,61.25,-726.25,-306.25,1,94.161,
01/01/2000,01:23:54.10,19.52,-61.61,-991.86,253.75,-647.50,-297.50,1,94.167,
01/01/2000,01:23:54.11,19.52,-61.37,-991.74,113.75,-525.0,-280.0,1,94.172,
01/01/2000,01:23:54.12,19.52,-61.37,-991.62,148.75,-682.50,-455.0,1,94.177,
01/01/2000,01:23:54.13,19.52,-61.24,-991.62,70.0,-656.25,-332.50,1,94.183,
01/01/2000,01:23:54.14,19.64,-61.24,-991.62,166.25,-682.50,-192.50,1,94.188,
01/01/2000,01:23:54.15,19.64,-61.37,-991.74,262.50,-647.50,-245.0,1,94.194,
01/01/2000,01:23:54.16,19.76,-61.49,-991.74,157.50,-691.25,-358.75,1,94.199,
01/01/2000,01:23:54.17,19.64,-61.24,-991.62,192.50,-638.75,-393.75,1,94.204,
01/01/2000,01:23:54.18,19.64,-61.24,-991.62,122.50,-708.75,-481.25,1,94.210,
01/01/2000,01:23:54.19,19.52,-61.24,-991.49,-8.75,-691.25,-350.0,1,94.215,
01/01/2000,01:23:54.21,19.40,-61.24,-991.62,271.25,-708.75,-288.75,1,94.220,
01/01/2000,01:23:54.22,19.40,-61.37,-991.74,262.50,-735.0,-323.75,1,94.225,
01/01/2000,01:23:54.23,19.52,-61.49,-991.86,166.25,-717.50,-402.50,1,94.231,
01/01/2000,01:23:54.24,19.64,-61.37,-991.86,166.25,-717.50,-428.75,1,94.236,
01/01/2000,01:23:54.25,19.52,-61.49,-991.86,218.75,-700.0,-350.0,1,94.241,
01/01/2000,01:23:54.26,19.40,-61.49,-991.74,96.25,-708.75,-385.0,1,94.247,
01/01/2000,01:23:54.27,19.40,-61.49,-991.62,280.0,-621.25,-402.50,1,94.252,
01/01/2000,01:23:54.28,19.52,-61.12,-991.62,35.0,-708.75,-297.50,1,94.257,
01/01/2000,01:23:54.29,19.40,-61.24,-991.62,323.75,-682.50,-350.0,1,94.262,
01/01/2000,01:23:54.30,19.40,-61.24,-991.62,148.75,-656.25,-288.75,1,94.268,
01/01/2000,01:23:54.31,19.28,-61.0,-991.62,113.75,-647.50,-236.25,1,94.273,
01/01/2000,01:23:54.32,19.52,-61.24,-991.74,192.50,-647.50,-341.25,1,94.278,
01/01/2000,01:23:54.33,19.52,-61.24,-991.86,122.50,-621.25,-297.50,1,94.283,
01/01/2000,01:23:54.34,19.52,-61.24,-991.98,253.75,-708.75,-385.0,1,94.203,
01/01/2000,01:23:54.35,19.52,-61.24,-991.86,87.50,-700.0,-341.25,1,94.208,
01/01/2000,01:23:54.36,19.52,-61.24,-991.62,236.25,-708.75,-420.0,1,94.213,
01/01/2000,01:23:54.37,19.28,-61.24,-991.62,78.75,-735.0,-271.25,1,94.219,
01/01/2000,01:23:54.38,19.28,-61.12,-991.86,87.50,-665.0,-288.75,1,94.224,
01/01/2000,01:23:54.39,19.28,-61.24,-991.86,183.75,-568.75,-280.0,1,94.229,
01/01/2000,01:23:54.40,19.40,-61.0,-991.86,271.25,-665.0,-236.25,1,94.234,
01/01/2000,01:23:54.42,19.40,-61.0,-991.98,236.25,-630.0,-385.0,1,94.239,
01/01/2000,01:23:54.43,19.64,-61.0,-991.98,105.0,-656.25,-463.75,1,94.245,
01/01/2000,01:23:54.44,19.76,-61.24,-991.86,227.50,-647.50,-481.25,1,94.250,
01/01/2000,01:23:54.45,19.76,-61.0,-991.74,175.0,-796.25,-288.75,1,94.255,
01/01/2000,01:23:54.46,19.52,-61.12,-991.62,271.25,-638.75,-385.0,1,94.260,
01/01/2000,01:23:54.47,19.40,-61.0,-991.62,183.75,-691.25,-306.25,1,94.265,
01/01/2000,01:23:54.48,19.52,-60.88,-991.98,210.0,-595.0,-306.25,1,94.270,
01/01/2000,01:23:54.49,19.52,-61.12,-991.98,78.75,-673.75,-245.0,1,94.275,
01/01/2000,01:23:54.50,19.64,-61.24,-991.98,323.75,-735.0,-350.0,1,94.281,
01/01/2000,01:23:54.51,19.64,-61.24,-991.86,166.25,-743.75,-350.0,1,94.286,
01/01/2000,01:23:54.52,19.52,-61.24,-991.74,157.50,-717.50,-341.25,1,94.291,
01/01/2000,01:23:54.53,19.40,-61.0,-991.86,166.25,-673.75,-367.50,1,94.296,
01/01/2000,01:23:54.54,19.40,-60.76,-991.98,140.0,-673.75,-341.25,1,94.301,
01/01/2000,01:23:54.56,19.52,-61.0,-992.23,175.0,-586.25,-358.75,1,94.222,
01/01/2000,01:23:54.56,19.52,-61.12,-991.98,52.50,-752.50,-437.50,1,94.227,
01/01/2000,01:23:54.58,19.52,-61.24,-991.86,113.75,-638.75,-332.50,1,94.232,
01/01/2000,01:23:54.59,19.64,-60.88,-992.10,43.75,-822.50,-393.75,1,94.238,
01/01/2000,01:23:54.60,19.76,-61.0,-992.10,192.50,-691.25,-288.75,1,94.243,
01/01/2000,01:23:54.61,19.76,-61.0,-992.10,175.0,-717.50,-341.25,1,94.248,
01/01/2000,01:23:54.62,19.64,-61.12,-992.10,78.75,-787.50,-323.75,1,94.253,
01/01/2000,01:23:54.63,19.64,-61.24,-991.86,113.75,-682.50,-411.25,1,94.258,
01/01/2000,01:23:54.64,19.76,-61.12,-991.86,122.50,-708.75,-385.0,1,94.180,
01/01/2000,01:23:54.65,19.76,-61.0,-991.74,157.50,-726.25,-227.50,1,94.268,
01/01/2000,01:23:54.66,19.76,-61.24,-991.86,210.0,-647.50,-402.50,1,94.190,
01/01/2000,01:23:54.67,19.64,-61.24,-991.98,227.50,-743.75,-402.50,1,94.195,
01/01/2000,01:23:54.68,19.64,-61.12,-991.86,236.25,-691.25,-420.0,1,94.200,
01/01/2000,01:23:54.69,19.76,-60.88,-991.86,105.0,-691.25,-262.50,1,94.205,
01/01/2000,01:23:54.70,19.76,-61.0,-991.62,280.0,-665.0,-420.0,1,94.211,
01/01/2000,01:23:54.71,19.52,-61.0,-991.62,131.25,-787.50,-341.25,1,94.216,
01/01/2000,01:23:54.72,19.52,-60.88,-991.62,78.75,-700.0,-376.25,1,94.221,
01/01/2000,01:23:54.73,19.52,-61.0,-991.74,218.75,-752.50,-297.50,1,94.226,
01/01/2000,01:23:54.74,19.40,-60.76,-991.86,113.75,-700.0,-350.0,1,94.231,
01/01/2000,01:23:54.75,19.40,-60.76,-991.98,245.0,-682.50,-315.0,1,94.236,
01/01/2000,01:23:54.77,19.52,-60.76,-992.10,113.75,-717.50,-376.25,1,94.241,
01/01/2000,01:23:54.78,19.52,-60.76,-992.10,61.25,-735.0,-332.50,1,94.246,
01/01/2000,01:23:54.79,19.40,-61.12,-992.10,192.50,-621.25,-280.0,1,94.251,
01/01/2000,01:23:54.80,19.40,-61.24,-991.98,122.50,-533.75,-271.25,1,94.256,
01/01/2000,01:23:54.81,19.40,-61.0,-992.10,-35.0,-770.0,-376.25,1,94.261,
01/01/2000,01:23:54.82,19.52,-61.12,-992.10,43.75,-752.50,-288.75,1,94.266,
01/01/2000,01:23:54.83,19.40,-61.0,-992.10,87.50,-752.50,-402.50,1,94.271,
01/01/2000,01:23:54.84,19.40,-61.12,-992.10,218.75,-691.25,-341.25,1,94.276,
01/01/2000,01:23:54.85,19.40,-61.0,-992.10,236.25,-708.75,-288.75,1,94.281,
01/01/2000,01:23:54.86,19.40,-61.12,-991.98,148.75,-665.0,-420.0,1,94.286,
01/01/2000,01:23:54.87,19.40,-61.12,-991.98,113.75,-717.50,-393.75,1,94.291,
01/01/2000,01:23:54.88,19.28,-61.24,-991.86,192.50,-708.75,-332.50,1,94.296,
01/01/2000,01:23:54.89,19.28,-61.12,-991.74,332.50,-752.50,-306.25,1,94.301,
01/01/2000,01:23:54.90,19.28,-61.0,-991.86,-35.0,-682.50,-315.0,1,94.224,
01/01/2000,01:23:54.91,19.28,-61.12,-991.86,105.0,-761.25,-315.0,1,94.229,
01/01/2000,01:23:54.92,19.40,-61.24,-991.86,113.75,-630.0,-288.75,1,94.234,
01/01/2000,01:23:54.93,19.40,-61.24,-991.74,218.75,-691.25,-350.0,1,94.239,
01/01/2000,01:23:54.94,19.28,-61.24,-991.74,113.75,-726.25,-472.50,1,94.244,
01/01/2000,01:23:54.95,19.52,-61.24,-991.74,280.0,-682.50,-323.75,1,94.249,
01/01/2000,01:23:54.96,19.40,-61.12,-991.86,192.50,-551.25,-227.50,1,94.254,
01/01/2000,01:23:54.98,19.28,-61.24,-991.86,148.75,-743.75,-297.50,1,94.259,
01/01/2000,01:23:54.99,19.28,-61.61,-991.86,210.0,-638.75,-367.50,1,94.264,
01/01/2000,01:23:55.00,19.52,-61.49,-991.86,105.0,-656.25,-350.0,1,94.269,
01/01/2000,01:23:55.01,19.52,-61.73,-991.86,157.50,-630.0,-192.50,1,94.274,
01/01/2000,01:23:55.02,19.28,-61.73,-991.86,175.0,-682.50,-376.25,1,94.278,
01/01/2000,01:23:55.03,19.15,-61.37,-991.86,87.50,-586.25,-385.0,1,94.283,
01/01/2000,01:23:55.04,19.40,-61.37,-991.86,43.75,-647.50,-262.50,1,94.288,
01/01/2000,01:23:55.05,19.52,-61.37,-991.86,148.75,-665.0,-420.0,1,94.293,
01/01/2000,01:23:55.06,19.52,-61.49,-991.86,122.50,-735.0,-280.0,1,94.298,
01/01/2000,01:23:55.07,19.40,-61.98,-991.86,113.75,-805.0,-306.25,1,94.303,
01/01/2000,01:23:55.08,19.52,-61.85,-992.10,148.75,-630.0,-358.75,1,94.228,
01/01/2000,01:23:55.10,19.64,-61.37,-992.23,105.0,-673.75,-288.75,1,94.232,
01/01/2000,01:23:55.11,19.52,-61.37,-992.10,131.25,-717.50,-376.25,1,94.237,
01/01/2000,01:23:55.12,19.52,-61.24,-991.98,157.50,-787.50,-227.50,1,94.242,
01/01/2000,01:23:55.13,19.40,-61.49,-991.86,78.75,-743.75,-280.0,1,94.247,
01/01/2000,01:23:55.14,19.52,-61.49,-991.86,192.50,-691.25,-420.0,1,94.252,
01/01/2000,01:23:55.15,19.64,-61.49,-992.10,218.75,-717.50,-306.25,1,94.257,
01/01/2000,01:23:55.16,19.64,-61.37,-992.23,218.75,-691.25,-315.0,1,94.262,
01/01/2000,01:23:55.17,19.52,-61.24,-992.10,78.75,-700.0,-367.50,1,94.266,
01/01/2000,01:23:55.18,19.40,-61.24,-992.10,87.50,-647.50,-402.50,1,94.271,
01/01/2000,01:23:55.19,19.64,-61.24,-992.10,122.50,-577.50,-262.50,1,94.276,
01/01/2000,01:23:55.20,19.89,-61.24,-991.86,113.75,-691.25,-402.50,1,94.281,
01/01/2000,01:23:55.21,19.76,-61.49,-991.98,78.75,-656.25,-201.25,1,94.286,
01/01/2000,01:23:55.22,19.40,-61.73,-992.10,105.0,-743.75,-376.25,1,94.291,
01/01/2000,01:23:55.23,19.28,-61.49,-992.23,140.0,-805.0,-376.25,1,94.295,
01/01/2000,01:23:55.24,19.52,-61.24,-992.23,113.75,-665.0,-297.50,1,94.300,
01/01/2000,01:23:55.25,19.52,-61.12,-992.35,271.25,-656.25,-306.25,1,94.305,
01/01/2000,01:23:55.27,19.40,-61.49,-992.10,192.50,-673.75,-358.75,1,94.231,
01/01/2000,01:23:55.28,19.52,-61.49,-992.10,105.0,-796.25,-358.75,1,94.236,
01/01/2000,01:23:55.29,19.28,-61.49,-991.86,218.75,-656.25,-437.50,1,94.240,
01/01/2000,01:23:55.30,19.28,-61.37,-992.10,166.25,-708.75,-411.25,1,94.245,
01/01/2000,01:23:55.31,19.40,-61.0,-992.35,227.50,-612.50,-227.50,1,94.250,
01/01/2000,01:23:55.32,19.40,-61.0,-992.35,105.0,-717.50,-385.0,1,94.255,
01/01/2000,01:23:55.33,19.28,-61.12,-992.35,0.0,-691.25,-323.75,1,94.260,
01/01/2000,01:23:55.34,19.28,-61.49,-992.23,87.50,-673.75,-393.75,1,94.264,
01/01/2000,01:23:55.35,19.40,-61.49,-992.35,96.25,-700.0,-402.50,1,94.269,
01/01/2000,01:23:55.36,19.40,-61.37,-992.10,78.75,-665.0,-385.0,1,94.274,
01/01/2000,01:23:55.37,19.28,-61.24,-992.10,437.50,-691.25,-428.75,1,94.279,
01/01/2000,01:23:55.38,19.40,-61.0,-991.98,-8.75,-656.25,-297.50,1,94.283,
01/01/2000,01:23:55.39,19.40,-61.37,-991.98,113.75,-603.75,-227.50,1,94.288,
01/01/2000,01:23:55.40,19.28,-61.73,-992.23,210.0,-656.25,-560.0,1,94.215,
01/01/2000,01:23:55.41,19.64,-61.37,-992.10,87.50,-778.75,-210.0,1,94.220,
01/01/2000,01:23:55.42,19.76,-61.49,-991.86,192.50,-586.25,-385.0,1,94.224,
01/01/2000,01:23:55.43,19.28,-61.49,-992.10,350.0,-647.50,-271.25,1,94.229,
01/01/2000,01:23:55.44,19.28,-61.24,-992.35,-17.50,-603.75,-446.25,1,94.234,
01/01/2000,01:23:55.45,19.64,-61.49,-992.35,288.75,-796.25,-385.0,1,94.239,
01/01/2000,01:23:55.46,19.64,-61.12,-992.47,105.0,-656.25,-183.75,1,94.243,
01/01/2000,01:23:55.48,19.15,-61.49,-992.10,-26.25,-700.0,-288.75,1,94.248,
01/01/2000,01:23:55.49,19.52,-61.61,-991.86,253.75,-673.75,-376.25,1,94.253,
01/01/2000,01:23:55.50,19.52,-61.49,-991.86,87.50,-682.50,-393.75,1,94.258,
01/01/2000,01:23:55.51,19.52,-61.24,-992.23,26.25,-638.75,-341.25,1,94.262,
01/01/2000,01:23:55.52,19.40,-61.49,-992.23,236.25,-726.25,-288.75,1,94.267,
01/01/2000,01:23:55.53,19.52,-61.24,-992.10,148.75,-621.25,-280.0,1,94.272,
01/01/2000,01:23:55.54,19.52,-61.37,-992.10,52.50,-700.0,-271.25,1,94.276,
01/01/2000,01:23:55.55,19.64,-61.49,-992.10,8.75,-805.0,-411.25,1,94.204,
01/01/2000,01:23:55.56,19.76,-61.49,-992.10,192.50,-726.25,-428.75,1,94.286,
01/01/2000,01:23:55.57,19.52,-61.24,-992.10,78.75,-665.0,-227.50,1,94.214,
01/01/2000,01:23:55.58,19.28,-61.24,-992.23,96.25,-761.25,-297.50,1,94.295,
01/01/2000,01:23:55.60,19.52,-61.0,-992.10,175.0,-752.50,-411.25,1,94.223,
01/01/2000,01:23:55.61,19.76,-61.24,-992.10,105.0,-682.50,-183.75,1,94.228,
01/01/2000,01:23:55.62,19.64,-61.24,-992.10,113.75,-743.75,-306.25,1,94.232,
01/01/2000,01:23:55.63,19.52,-61.49,-992.10,105.0,-673.75,-332.50,1,94.237,
01/01/2000,01:23:55.64,19.52,-61.49,-992.10,245.0,-787.50,-393.75,1,94.242,
01/01/2000,01:23:55.65,19.52,-61.24,-992.23,-8.75,-647.50,-297.50,1,94.246,
01/01/2000,01:23:55.66,19.28,-61.0,-992.10,17.50,-708.75,-245.0,1,94.251,
01/01/2000,01:23:55.67,19.28,-61.12,-992.10,61.25,-726.25,-297.50,1,94.256,
01/01/2000,01:23:55.68,19.28,-61.12,-992.10,227.50,-612.50,-367.50,1,94.260,
01/01/2000,01:23:55.69,19.40,-61.12,-992.23,122.50,-621.25,-428.75,1,94.265,
01/01/2000,01:23:55.70,19.40,-61.24,-992.10,140.0,-717.50,-376.25,1,94.270,
01/01/2000,01:23:55.71,19.64,-61.0,-992.10,35.0,-735.0,-253.75,1,94.274,
01/01/2000,01:23:55.72,19.64,-61.0,-992.10,201.25,-638.75,-428.75,1,94.279,
01/01/2000,01:23:55.73,19.52,-61.12,-992.10,61.25,-717.50,-201.25,1,94.283,
01/01/2000,01:23:55.74,19.64,-61.12,-992.35,175.0,-726.25,-385.0,1,94.288,
01/01/2000,01:23:55.75,19.64,-61.37,-992.47,61.25,-673.75,-358.75,1,94.217,
01/01/2000,01:23:55.76,19.76,-61.49,-992.35,113.75,-805.0,-367.50,1,94.222,
01/01/2000,01:23:55.77,19.89,-61.49,-992.35,245.0,-691.25,-376.25,1,94.226,
01/01/2000,01:23:55.78,19.89,-61.37,-992.23,245.0,-778.75,-385.0,1,94.231,
01/01/2000,01:23:55.79,19.64,-61.49,-992.35,70.0,-638.75,-271.25,1,94.235,
01/01/2000,01:23:55.80,19.52,-61.49,-992.35,-35.0,-682.50,-376.25,1,94.240,
01/01/2000,01:23:55.81,19.64,-61.49,-992.35,218.75,-665.0,-306.25,1,94.245,
01/01/2000,01:23:55.83,19.76,-61.49,-992.35,175.0,-691.25,-288.75,1,94.249,
01/01/2000,01:23:55.84,19.52,-61.73,-992.35,175.0,-708.75,-376.25,1,94.254,
01/01/2000,01:23:55.85,19.52,-61.49,-992.35,140.0,-621.25,-323.75,1,94.258,
01/01/2000,01:23:55.86,19.64,-61.37,-992.47,192.50,-717.50,-253.75,1,94.263,
01/01/2000,01:23:55.87,19.64,-61.49,-992.47,122.50,-665.0,-358.75,1,94.268,
01/01/2000,01:23:55.88,19.52,-61.49,-992.47,96.25,-743.75,-402.50,1,94.272,
01/01/2000,01:23:55.89,19.52,-61.61,-992.35,166.25,-700.0,-490.0,1,94.277,
01/01/2000,01:23:55.90,19.76,-61.73,-992.23,358.75,-656.25,-437.50,1,94.281,
01/01/2000,01:23:55.91,19.64,-61.73,-992.35,288.75,-726.25,-323.75,1,94.211,
01/01/2000,01:23:55.92,19.52,-61.73,-992.47,157.50,-656.25,-393.75,1,94.216,
01/01/2000,01:23:55.93,19.64,-61.49,-992.59,183.75,-647.50,-271.25,1,94.220,
01/01/2000,01:23:55.94,19.64,-61.37,-992.47,201.25,-682.50,-297.50,1,94.225,
01/01/2000,01:23:55.95,19.76,-61.49,-992.59,297.50,-691.25,-288.75,1,94.229,
01/01/2000,01:23:55.97,19.76,-61.49,-992.35,131.25,-647.50,-481.25,1,94.234,
01/01/2000,01:23:55.98,19.64,-61.37,-992.47,201.25,-691.25,-306.25,1,94.238,
01/01/2000,01:23:55.99,19.52,-61.49,-992.59,166.25,-673.75,-323.75,1,94.243,
01/01/2000,01:23:56.00,19.52,-61.37,-992.71,166.25,-761.25,-393.75,1,94.247,
01/01/2000,01:23:56.01,19.52,-61.24,-992.71,253.75,-717.50,-306.25,1,94.252,
01/01/2000,01:23:56.02,19.40,-61.37,-992.47,113.75,-665.0,-271.25,1,94.256,
01/01/2000,01:23:56.03,19.40,-61.37,-992.35,113.75,-700.0,-323.75,1,94.261,
01/01/2000,01:23:56.04,19.28,-61.24,-992.23,175.0,-673.75,-411.25,1,94.266,
01/01/2000,01:23:56.05,19.28,-61.24,-992.47,166.25,-813.75,-350.0,1,94.270,
01/01/2000,01:23:56.06,19.28,-61.24,-992.59,175.0,-700.0,-245.0,1,94.275,
01/01/2000,01:23:56.07,19.52,-61.49,-992.47,315.0,-595.0,-428.75,1,94.279,
01/01/2000,01:23:56.08,19.40,-61.24,-992.23,236.25,-752.50,-315.0,1,94.283,
01/01/2000,01:23:56.09,19.15,-61.24,-992.23,175.0,-761.25,-402.50,1,94.288,
01/01/2000,01:23:56.11,19.28,-61.49,-992.47,218.75,-717.50,-376.25,1,94.219,
01/01/2000,01:23:56.12,19.28,-61.37,-992.59,227.50,-787.50,-332.50,1,94.223,
01/01/2000,01:23:56.13,19.28,-61.12,-992.47,105.0,-778.75,-420.0,1,94.228,
01/01/2000,01:23:56.14,19.40,-61.0,-992.47,157.50,-665.0,-236.25,1,94.232,
01/01/2000,01:23:56.15,19.40,-61.24,-992.47,218.75,-735.0,-315.0,1,94.237,
01/01/2000,01:23:56.16,19.28,-61.24,-992.47,192.50,-717.50,-315.0,1,94.241,
01/01/2000,01:23:56.17,19.40,-61.24,-992.59,218.75,-647.50,-350.0,1,94.246,
01/01/2000,01:23:56.18,19.40,-61.37,-992.59,315.0,-778.75,-367.50,1,94.250,
01/01/2000,01:23:56.19,19.28,-61.24,-992.47,113.75,-630.0,-236.25,1,94.255,
01/01/2000,01:23:56.20,19.28,-61.24,-992.23,87.50,-638.75,-385.0,1,94.259,
01/01/2000,01:23:56.21,19.28,-61.37,-992.23,105.0,-805.0,-332.50,1,94.264,
01/01/2000,01:23:56.22,19.28,-61.49,-992.35,175.0,-691.25,-402.50,1,94.268,
01/01/2000,01:23:56.23,19.40,-61.49,-992.35,140.0,-638.75,-323.75,1,94.272,
01/01/2000,01:23:56.24,19.28,-61.37,-992.35,175.0,-752.50,-341.25,1,94.277,
01/01/2000,01:23:56.25,19.28,-61.49,-992.23,271.25,-691.25,-367.50,1,94.208,
01/01/2000,01:23:56.26,19.40,-61.24,-992.35,105.0,-735.0,-332.50,1,94.213,
01/01/2000,01:23:56.27,19.64,-61.37,-992.47,411.25,-735.0,-428.75,1,94.217,
01/01/2000,01:23:56.28,19.52,-61.24,-992.47,-8.75,-770.0,-262.50,1,94.222,
01/01/2000,01:23:56.29,19.52,-61.49,-992.35,262.50,-717.50,-323.75,1,94.226,
01/01/2000,01:23:56.30,19.52,-61.49,-992.35,183.75,-673.75,-315.0,1,94.231,
01/01/2000,01:23:56.32,19.52,-61.37,-992.47,131.25,-735.0,-358.75,1,94.235,
01/01/2000,01:23:56.33,19.52,-61.24,-992.47,87.50,-700.0,-306.25,1,94.240,
01/01/2000,01:23:56.34,19.52,-61.37,-992.59,192.50,-752.50,-271.25,1,94.244,
01/01/2000,01:23:56.35,19.52,-61.61,-992.59,201.25,-735.0,-332.50,1,94.248,
01/01/2000,01:23:56.36,19.52,-61.73,-992.59,175.0,-612.50,-437.50,1,94.253,
01/01/2000,01:23:56.37,19.52,-61.61,-992.59,192.50,-656.25,-428.75,1,94.257,
01/01/2000,01:23:56.38,19.64,-61.24,-992.59,70.0,-708.75,-341.25,1,94.262,
01/01/2000,01:23:56.39,19.64,-61.37,-992.71,166.25,-682.50,-350.0,1,94.266,
01/01/2000,01:23:56.40,19.64,-61.37,-992.84,26.25,-603.75,-271.25,1,94.270,
01/01/2000,01:23:56.41,19.64,-61.61,-992.59,288.75,-682.50,-420.0,1,94.275,
01/01/2000,01:23:56.42,19.64,-61.37,-992.59,78.75,-778.75,-393.75,1,94.279,
01/01/2000,01:23:56.43,19.52,-61.49,-992.47,157.50,-726.25,-236.25,1,94.284,
01/01/2000,01:23:56.44,19.64,-61.49,-992.59,96.25,-682.50,-245.0,1,94.288,
01/01/2000,01:23:56.45,19.64,-61.49,-992.59,148.75,-682.50,-297.50,1,94.292,
01/01/2000,01:23:56.46,19.52,-61.49,-992.59,148.75,-743.75,-341.25,1,94.225,
01/01/2000,01:23:56.47,19.40,-61.49,-992.35,157.50,-717.50,-376.25,1,94.229,
01/01/2000,01:23:56.48,19.40,-61.37,-992.35,78.75,-796.25,-253.75,1,94.234,
01/01/2000,01:23:56.49,19.52,-61.61,-992.47,236.25,-761.25,-455.0,1,94.238,
01/01/2000,01:23:56.50,19.64,-61.61,-992.47,157.50,-708.75,-358.75,1,94.242,
01/01/2000,01:23:56.51,19.52,-61.37,-992.47,61.25,-691.25,-323.75,1,94.247,
01/01/2000,01:23:56.53,19.52,-61.24,-992.35,78.75,-682.50,-288.75,1,94.251,
01/01/2000,01:23:56.54,19.76,-61.24,-992.35,122.50,-813.75,-437.50,1,94.255,
01/01/2000,01:23:56.55,19.89,-61.49,-992.47,87.50,-761.25,-385.0,1,94.260,
01/01/2000,01:23:56.56,19.76,-61.37,-992.47,122.50,-761.25,-288.75,1,94.264,
01/01/2000,01:23:56.57,19.52,-61.49,-992.35,183.75,-752.50,-341.25,1,94.268,
01/01/2000,01:23:56.58,19.64,-61.49,-992.35,17.50,-708.75,-315.0,1,94.273,
01/01/2000,01:23:56.59,19.52,-61.49,-992.23,210.0,-665.0,-323.75,1,94.277,
01/01/2000,01:23:56.60,19.52,-61.24,-992.23,245.0,-586.25,-315.0,1,94.281,
01/01/2000,01:23:56.62,19.52,-61.37,-992.23,227.50,-717.50,-393.75,1,94.215,
01/01/2000,01:23:56.63,19.40,-61.49,-992.47,17.50,-717.50,-245.0,1,94.219,
01/01/2000,01:23:56.64,19.52,-61.49,-992.59,201.25,-595.0,-315.0,1,94.224,
01/01/2000,01:23:56.65,19.52,-61.49,-992.35,157.50,-621.25,-376.25,1,94.228,
01/01/2000,01:23:56.66,19.52,-61.24,-992.35,157.50,-717.50,-262.50,1,94.232,
01/01/2000,01:23:56.67,19.52,-61.24,-992.23,148.75,-673.75,-315.0,1,94.237,
01/01/2000,01:23:56.68,19.52,-61.49,-992.10,148.75,-647.50,-376.25,1,94.241,
01/01/2000,01:23:56.69,19.28,-61.49,-992.23,192.50,-691.25,-358.75,1,94.245,
01/01/2000,01:23:56.70,19.40,-61.37,-991.98,-17.50,-708.75,-288.75,1,94.249,
01/01/2000,01:23:56.71,19.52,-61.37,-992.23,105.0,-673.75,-315.0,1,94.254,
01/01/2000,01:23:56.72,19.40,-61.37,-992.35,43.75,-630.0,-323.75,1,94.258,
01/01/2000,01:23:56.73,19.28,-61.24,-992.35,96.25,-691.25,-288.75,1,94.262,
01/01/2000,01:23:56.74,19.52,-61.37,-992.23,105.0,-656.25,-288.75,1,94.267,
01/01/2000,01:23:56.75,19.40,-61.49,-992.10,297.50,-700.0,-498.75,1,94.271,
01/01/2000,01:23:56.76,19.40,-61.49,-992.23,105.0,-770.0,-428.75,1,94.275,
01/01/2000,01:23:56.77,19.52,-61.49,-992.10,175.0,-691.25,-376.25,1,94.279,
01/01/2000,01:23:56.78,19.52,-61.24,-992.23,87.50,-717.50,-262.50,1,94.284,
01/01/2000,01:23:56.79,19.40,-61.37,-992.23,192.50,-665.0,-376.25,1,94.288,
01/01/2000,01:23:56.80,19.52,-61.37,-992.35,210.0,-735.0,-376.25,1,94.292,
01/01/2000,01:23:56.81,19.52,-61.24,-992.47,140.0,-691.25,-306.25,1,94.296,
01/01/2000,01:23:56.82,19.40,-61.49,-992.35,175.0,-743.75,-306.25,1,94.301,
01/01/2000,01:23:56.83,19.40,-61.49,-992.35,183.75,-630.0,-350.0,1,94.305,
01/01/2000,01:23:56.84,19.40,-61.73,-992.47,253.75,-682.50,-428.75,1,94.239,
01/01/2000,01:23:56.85,19.40,-61.37,-992.59,175.0,-700.0,-446.25,1,94.313,
01/01/2000,01:23:56.86,19.52,-61.24,-992.59,262.50,-761.25,-332.50,1,94.248,
01/01/2000,01:23:56.87,19.52,-61.24,-992.47,201.25,-726.25,-306.25,1,94.252,
01/01/2000,01:23:56.89,19.52,-61.49,-992.35,253.75,-735.0,-341.25,1,94.256,
01/01/2000,01:23:56.90,19.52,-61.49,-992.23,183.75,-673.75,-306.25,1,94.260,
01/01/2000,01:23:56.91,19.76,-61.49,-992.35,280.0,-691.25,-253.75,1,94.265,
01/01/2000,01:23:56.92,19.64,-61.37,-992.35,280.0,-630.0,-393.75,1,94.269,
01/01/2000,01:23:56.93,19.52,-61.24,-992.35,113.75,-700.0,-358.75,1,94.273,
01/01/2000,01:23:56.94,19.40,-61.24,-992.35,218.75,-656.25,-280.0,1,94.277,
01/01/2000,01:23:56.95,19.76,-61.49,-992.35,227.50,-761.25,-297.50,1,94.282,
01/01/2000,01:23:56.96,19.76,-61.49,-992.35,122.50,-630.0,-428.75,1,94.286,
01/01/2000,01:23:56.97,19.76,-61.61,-992.35,148.75,-743.75,-367.50,1,94.290,
01/01/2000,01:23:56.98,19.64,-61.61,-992.47,297.50,-752.50,-341.25,1,94.294,
01/01/2000,01:23:56.99,19.52,-61.24,-992.35,218.75,-761.25,-393.75,1,94.298,
01/01/2000,01:23:57.00,19.52,-61.37,-992.47,245.0,-630.0,-350.0,1,94.302,
01/01/2000,01:23:57.01,19.40,-61.37,-992.47,61.25,-665.0,-358.75,1,94.307,
01/01/2000,01:23:57.02,19.52,-61.37,-992.47,52.50,-700.0,-271.25,1,94.242,
01/01/2000,01:23:57.03,19.52,-61.49,-992.35,183.75,-796.25,-490.0,1,94.246,
01/01/2000,01:23:57.04,19.40,-61.73,-992.59,262.50,-700.0,-358.75,1,94.250,
01/01/2000,01:23:57.05,19.40,-61.37,-992.59,70.0,-770.0,-201.25,1,94.255,
01/01/2000,01:23:57.06,19.40,-61.37,-992.59,183.75,-761.25,-350.0,1,94.259,
01/01/2000,01:23:57.07,19.64,-61.24,-992.59,113.75,-656.25,-280.0,1,94.263,
01/01/2000,01:23:57.08,19.52,-61.12,-992.47,26.25,-673.75,-297.50,1,94.267,
01/01/2000,01:23:57.10,19.52,-61.49,-992.35,323.75,-656.25,-358.75,1,94.271,
01/01/2000,01:23:57.11,19.64,-61.24,-992.35,96.25,-595.0,-315.0,1,94.275,
01/01/2000,01:23:57.12,19.64,-61.24,-992.47,113.75,-787.50,-280.0,1,94.211,
01/01/2000,01:23:57.14,19.52,-61.37,-992.35,218.75,-682.50,-376.25,1,94.215,
01/01/2000,01:23:57.15,19.52,-61.37,-992.35,0.0,-673.75,-271.25,1,94.220,
01/01/2000,01:23:57.16,19.52,-61.61,-992.59,105.0,-682.50,-376.25,1,94.224,
01/01/2000,01:23:57.17,19.28,-61.73,-992.47,175.0,-752.50,-376.25,1,94.228,
01/01/2000,01:23:57.18,19.40,-61.73,-992.35,43.75,-656.25,-385.0,1,94.232,
01/01/2000,01:23:57.19,19.28,-61.61,-992.23,315.0,-735.0,-315.0,1,94.236,
01/01/2000,01:23:57.20,19.40,-61.61,-992.10,17.50,-682.50,-358.75,1,94.240,
01/01/2000,01:23:57.21,19.28,-61.73,-992.10,166.25,-735.0,-376.25,1,94.245,
01/01/2000,01:23:57.22,19.28,-61.73,-992.23,70.0,-586.25,-262.50,1,94.249,
01/01/2000,01:23:57.23,19.28,-61.73,-992.23,218.75,-673.75,-402.50,1,94.253,
01/01/2000,01:23:57.24,19.40,-61.73,-992.23,192.50,-656.25,-376.25,1,94.257,
01/01/2000,01:23:57.25,19.28,-61.61,-992.23,131.25,-770.0,-428.75,1,94.261,
01/01/2000,01:23:57.26,19.28,-61.49,-992.10,192.50,-743.75,-358.75,1,94.265,
01/01/2000,01:23:57.27,19.28,-61.24,-992.10,17.50,-682.50,-341.25,1,94.269,
01/01/2000,01:23:57.28,19.28,-61.49,-992.23,87.50,-682.50,-393.75,1,94.273,
01/01/2000,01:23:57.29,19.15,-61.49,-992.23,157.50,-717.50,-428.75,1,94.278,
01/01/2000,01:23:57.30,19.28,-61.61,-992.35,-61.25,-682.50,-271.25,1,94.282,
01/01/2000,01:23:57.31,19.40,-61.49,-992.23,61.25,-743.75,-376.25,1,94.218,
01/01/2000,01:23:57.32,19.52,-61.49,-992.23,218.75,-735.0,-262.50,1,94.223,
01/01/2000,01:23:57.33,19.64,-61.49,-992.10,192.50,-638.75,-288.75,1,94.227,
01/01/2000,01:23:57.34,19.64,-61.24,-992.35,122.50,-647.50,-315.0,1,94.231,
01/01/2000,01:23:57.35,19.76,-61.24,-992.23,140.0,-630.0,-428.75,1,94.235,
01/01/2000,01:23:57.36,19.76,-61.49,-992.23,175.0,-673.75,-306.25,1,94.239,
01/01/2000,01:23:57.38,19.64,-61.37,-992.10,61.25,-761.25,-332.50,1,94.243,
01/01/2000,01:23:57.39,19.52,-61.37,-992.23,227.50,-796.25,-428.75,1,94.247,
01/01/2000,01:23:57.40,19.64,-61.37,-992.35,-17.50,-691.25,-341.25,1,94.251,
01/01/2000,01:23:57.41,19.52,-61.49,-992.35,210.0,-665.0,-367.50,1,94.255,
01/01/2000,01:23:57.42,19.52,-61.37,-992.35,78.75,-673.75,-271.25,1,94.259,
01/01/2000,01:23:57.43,19.40,-61.49,-992.10,192.50,-778.75,-262.50,1,94.263,
01/01/2000,01:23:57.44,19.40,-61.49,-992.23,218.75,-682.50,-297.50,1,94.268,
01/01/2000,01:23:57.45,19.52,-61.61,-992.35,218.75,-726.25,-411.25,1,94.272,
01/01/2000,01:23:57.46,19.52,-61.61,-992.35,157.50,-656.25,-236.25,1,94.276,
01/01/2000,01:23:57.47,19.40,-61.49,-992.23,140.0,-691.25,-306.25,1,94.280,
01/01/2000,01:23:57.48,19.52,-61.61,-992.23,148.75,-630.0,-385.0,1,94.284,
01/01/2000,01:23:57.49,19.40,-61.37,-992.35,218.75,-621.25,-297.50,1,94.288,
01/01/2000,01:23:57.50,19.52,-61.49,-992.35,78.75,-691.25,-323.75,1,94.292,
01/01/2000,01:23:57.51,19.40,-61.73,-992.35,78.75,-595.0,-297.50,1,94.229,
01/01/2000,01:23:57.52,19.28,-61.73,-992.23,148.75,-656.25,-420.0,1,94.233,
01/01/2000,01:23:57.54,19.28,-61.49,-992.10,253.75,-717.50,-446.25,1,94.238,
01/01/2000,01:23:57.54,19.28,-61.37,-991.98,113.75,-735.0,-402.50,1,94.242,
01/01/2000,01:23:57.56,19.40,-61.24,-992.10,157.50,-778.75,-245.0,1,94.246,
01/01/2000,01:23:57.57,19.40,-61.49,-992.23,122.50,-708.75,-315.0,1,94.250,
01/01/2000,01:23:57.58,19.52,-61.61,-992.23,183.75,-647.50,-367.50,1,94.254,
01/01/2000,01:23:57.59,19.64,-61.24,-992.10,61.25,-621.25,-350.0,1,94.258,
01/01/2000,01:23:57.60,19.64,-61.24,-992.10,323.75,-603.75,-350.0,1,94.262,
01/01/2000,01:23:57.61,19.52,-61.0,-991.98,78.75,-673.75,-297.50,1,94.266,
01/01/2000,01:23:57.62,19.52,-61.24,-992.35,70.0,-656.25,-306.25,1,94.270,
01/01/2000,01:23:57.63,19.64,-61.37,-992.47,78.75,-647.50,-350.0,1,94.208,
01/01/2000,01:23:57.64,19.52,-61.49,-992.35,183.75,-665.0,-428.75,1,94.212,
01/01/2000,01:23:57.65,19.64,-61.24,-992.23,131.25,-735.0,-315.0,1,94.216,
01/01/2000,01:23:57.67,19.64,-61.12,-992.10,271.25,-612.50,-358.75,1,94.220,
01/01/2000,01:23:57.68,19.52,-61.12,-992.23,70.0,-630.0,-288.75,1,94.224,
01/01/2000,01:23:57.69,19.40,-61.24,-992.35,192.50,-717.50,-437.50,1,94.228,
01/01/2000,01:23:57.70,19.52,-61.24,-992.47,210.0,-647.50,-367.50,1,94.232,
01/01/2000,01:23:57.71,19.52,-61.24,-992.47,157.50,-621.25,-367.50,1,94.236,
01/01/2000,01:23:57.72,19.52,-61.24,-992.47,175.0,-612.50,-341.25,1,94.240,
01/01/2000,01:23:57.73,19.52,-61.37,-992.35,131.25,-647.50,-341.25,1,94.244,
01/01/2000,01:23:57.74,19.28,-61.24,-992.35,70.0,-682.50,-288.75,1,94.248,
01/01/2000,01:23:57.75,19.40,-61.24,-992.59,245.0,-525.0,-420.0,1,94.252,
01/01/2000,01:23:57.76,19.52,-61.0,-992.59,148.75,-726.25,-341.25,1,94.256,
01/01/2000,01:23:57.77,19.52,-61.12,-992.47,280.0,-621.25,-393.75,1,94.260,
01/01/2000,01:23:57.78,19.40,-61.12,-992.35,105.0,-761.25,-306.25,1,94.264,
01/01/2000,01:23:57.79,19.28,-61.49,-992.47,113.75,-787.50,-288.75,1,94.268,
01/01/2000,01:23:57.80,19.40,-61.37,-992.59,192.50,-787.50,-350.0,1,94.272,
01/01/2000,01:23:57.81,19.28,-61.24,-992.59,122.50,-691.25,-341.25,1,94.276,
01/01/2000,01:23:57.82,19.40,-61.24,-992.35,131.25,-700.0,-271.25,1,94.280,
01/01/2000,01:23:57.83,19.40,-61.24,-992.35,113.75,-647.50,-341.25,1,94.284,
01/01/2000,01:23:57.84,19.40,-61.24,-992.35,148.75,-673.75,-393.75,1,94.288,
01/01/2000,01:23:57.85,19.52,-61.24,-992.35,192.50,-796.25,-218.75,1,94.292,
01/01/2000,01:23:57.86,19.52,-61.24,-992.47,131.25,-647.50,-402.50,1,94.296,
01/01/2000,01:23:57.87,19.52,-61.12,-992.59,262.50,-735.0,-323.75,1,94.235,
01/01/2000,01:23:57.88,19.40,-61.12,-992.59,87.50,-717.50,-288.75,1,94.239,
01/01/2000,01:23:57.89,19.64,-61.24,-992.47,236.25,-735.0,-315.0,1,94.243,
01/01/2000,01:23:57.90,19.76,-61.24,-992.47,210.0,-717.50,-306.25,1,94.247,
01/01/2000,01:23:57.91,19.76,-61.24,-992.59,245.0,-787.50,-332.50,1,94.251,
01/01/2000,01:23:57.92,19.52,-61.24,-992.47,210.0,-717.50,-446.25,1,94.254,
01/01/2000,01:23:57.94,19.52,-61.37,-992.35,210.0,-700.0,-306.25,1,94.258,
01/01/2000,01:23:57.95,19.52,-61.24,-992.35,61.25,-560.0,-350.0,1,94.262,
01/01/2000,01:23:57.96,19.40,-61.49,-992.35,175.0,-735.0,-367.50,1,94.266,
01/01/2000,01:23:57.97,19.28,-61.24,-992.59,157.50,-735.0,-306.25,1,94.270,
01/01/2000,01:23:57.98,19.28,-61.49,-992.35,236.25,-682.50,-455.0,1,94.274,
01/01/2000,01:23:57.99,19.28,-61.37,-992.35,52.50,-708.75,-385.0,1,94.278,
01/01/2000,01:23:58.00,19.28,-61.49,-992.35,183.75,-673.75,-385.0,1,94.282,
01/01/2000,01:23:58.01,19.52,-61.49,-992.35,280.0,-691.25,-367.50,1,94.286,
01/01/2000,01:23:58.02,19.40,-61.24,-992.47,70.0,-682.50,-297.50,1,94.290,
01/01/2000,01:23:58.03,19.40,-61.49,-992.47,367.50,-717.50,-218.75,1,94.293,
01/01/2000,01:23:58.04,19.40,-61.49,-992.35,280.0,-682.50,-358.75,1,94.297,
01/01/2000,01:23:58.05,19.15,-61.24,-992.35,122.50,-805.0,-227.50,1,94.301,
01/01/2000,01:23:58.06,19.40,-61.49,-992.35,192.50,-726.25,-376.25,1,94.305,
01/01/2000,01:23:58.07,19.52,-61.49,-992.47,-43.75,-691.25,-350.0,1,94.309,
01/01/2000,01:23:58.08,19.52,-61.37,-992.59,78.75,-735.0,-367.50,1,94.249,
01/01/2000,01:23:58.09,19.52,-61.49,-992.47,210.0,-787.50,-210.0,1,94.253,
01/01/2000,01:23:58.10,19.52,-61.24,-992.47,280.0,-621.25,-315.0,1,94.257,
01/01/2000,01:23:58.12,19.64,-61.12,-992.59,96.25,-586.25,-236.25,1,94.261,
01/01/2000,01:23:58.12,19.52,-61.24,-992.59,175.0,-717.50,-288.75,1,94.265,
01/01/2000,01:23:58.14,19.52,-61.24,-992.59,61.25,-682.50,-280.0,1,94.268,
01/01/2000,01:23:58.15,19.52,-61.37,-992.35,201.25,-700.0,-350.0,1,94.209,
01/01/2000,01:23:58.16,19.76,-61.24,-992.35,131.25,-638.75,-332.50,1,94.213,
01/01/2000,01:23:58.17,19.76,-61.24,-992.10,253.75,-682.50,-490.0,1,94.217,
01/01/2000,01:23:58.18,19.76,-61.24,-992.10,78.75,-761.25,-271.25,1,94.220,
01/01/2000,01:23:58.19,19.76,-61.24,-992.10,96.25,-612.50,-428.75,1,94.224,
01/01/2000,01:23:58.20,19.76,-61.49,-992.35,183.75,-586.25,-332.50,1,94.228,
01/01/2000,01:23:58.21,19.89,-61.24,-992.35,122.50,-743.75,-455.0,1,94.232,
01/01/2000,01:23:58.23,19.76,-61.24,-992.35,105.0,-717.50,-323.75,1,94.236,
01/01/2000,01:23:58.24,19.76,-61.24,-992.23,175.0,-805.0,-262.50,1,94.240,
01/01/2000,01:23:58.25,19.64,-61.12,-991.98,87.50,-726.25,-245.0,1,94.244,
01/01/2000,01:23:58.26,19.64,-61.37,-992.10,262.50,-735.0,-402.50,1,94.247,
01/01/2000,01:23:58.27,20.98,-61.24,-992.35,140.0,-612.50,-673.75,1,94.251,
01/01/2000,01:23:58.28,22.94,-61.37,-992.84,271.25,-717.50,-568.75,1,94.255,
01/01/2000,01:23:58.29,24.89,-61.12,-992.96,-96.25,-700.0,-341.25,1,94.259,
01/01/2000,01:23:58.30,26.84,-61.49,-991.98,358.75,-708.75,-315.0,1,94.263,
01/01/2000,01:23:58.31,27.69,-61.37,-991.25,148.75,-700.0,-323.75,1,94.267,
01/01/2000,01:23:58.32,28.43,-61.49,-991.74,227.50,-700.0,-428.75,1,94.270,
01/01/2000,01:23:58.33,29.04,-61.12,-992.71,96.25,-787.50,-367.50,1,94.274,
01/01/2000,01:23:58.34,29.52,-61.12,-993.45,131.25,-708.75,-402.50,1,94.278,
01/01/2000,01:23:58.35,29.89,-61.0,-993.45,192.50,-761.25,-192.50,1,94.282,
01/01/2000,01:23:58.36,30.26,-61.0,-992.47,210.0,-560.0,-428.75,1,94.286,
01/01/2000,01:23:58.37,30.99,-61.0,-991.62,96.25,-647.50,-490.0,1,94.290,
01/01/2000,01:23:58.38,32.94,-61.49,-991.01,192.50,-717.50,-752.50,1,94.293,
01/01/2000,01:23:58.39,34.28,-61.24,-991.37,61.25,-770.0,-621.25,1,94.297,
01/01/2000,01:23:58.40,35.62,-61.0,-991.74,87.50,-831.25,-402.50,1,94.301,
01/01/2000,01:23:58.41,36.97,-61.0,-992.10,166.25,-647.50,-350.0,1,94.305,
01/01/2000,01:23:58.42,37.94,-60.51,-992.35,-52.50,-787.50,-210.0,1,94.308,
01/01/2000,01:23:58.44,38.55,-61.12,-992.35,227.50,-743.75,-306.25,1,94.250,
01/01/2000,01:23:58.45,37.70,-61.24,-992.35,-52.50,-778.75,-227.50,1,94.254,
01/01/2000,01:23:58.46,36.36,-61.61,-992.23,218.75,-726.25,-218.75,1,94.257,
01/01/2000,01:23:58.47,34.89,-61.12,-991.98,113.75,-647.50,-376.25,1,94.261,
01/01/2000,01:23:58.48,33.18,-61.0,-991.74,218.75,-612.50,-315.0,1,94.265,
01/01/2000,01:23:58.49,31.60,-60.63,-991.37,131.25,-682.50,-367.50,1,94.269,
01/01/2000,01:23:58.50,29.65,-61.0,-991.13,210.0,-682.50,-253.75,1,94.273,
01/01/2000,01:23:58.51,29.77,-61.0,-991.25,140.0,-700.0,-393.75,1,94.276,
01/01/2000,01:23:58.52,30.99,-61.12,-991.86,280.0,-813.75,-586.25,1,94.280,
01/01/2000,01:23:58.53,31.96,-61.12,-992.35,17.50,-805.0,-498.75,1,94.284,
01/01/2000,01:23:58.54,32.09,-61.37,-991.98,140.0,-857.50,17.50,1,94.288,
01/01/2000,01:23:58.55,29.52,-61.61,-991.25,148.75,-770.0,78.75,1,94.291,
01/01/2000,01:23:58.56,26.72,-61.73,-991.13,-52.50,-700.0,-87.50,1,94.295,
01/01/2000,01:23:58.57,22.94,-61.37,-991.49,131.25,-743.75,-612.50,1,94.237,
01/01/2000,01:23:58.58,21.72,-60.51,-992.10,385.0,-560.0,-805.0,1,94.241,
01/01/2000,01:23:58.59,21.72,-59.78,-992.59,210.0,-656.25,-262.50,1,94.245,
01/01/2000,01:23:58.60,22.81,-60.02,-992.96,201.25,-612.50,-113.75,1,94.248,
01/01/2000,01:23:58.61,24.77,-61.24,-992.96,183.75,-603.75,-358.75,1,94.252,
01/01/2000,01:23:58.62,26.11,-61.98,-992.71,175.0,-717.50,-437.50,1,94.256,
01/01/2000,01:23:58.63,26.60,-62.22,-992.59,183.75,-778.75,-437.50,1,94.260,
01/01/2000,01:23:58.65,26.11,-61.73,-992.59,96.25,-735.0,-297.50,1,94.263,
01/01/2000,01:23:58.66,22.81,-60.76,-992.71,105.0,-691.25,87.50,1,94.267,
01/01/2000,01:23:58.67,18.67,-60.76,-992.35,105.0,-612.50,-35.0,1,94.271,
01/01/2000,01:23:58.68,16.84,-60.88,-992.10,166.25,-612.50,-472.50,1,94.213,
01/01/2000,01:23:58.69,16.10,-60.76,-992.23,70.0,-682.50,-656.25,1,94.278,
01/01/2000,01:23:58.70,17.08,-60.76,-992.35,87.50,-647.50,-778.75,1,94.221,
01/01/2000,01:23:58.71,19.15,-60.88,-992.35,271.25,-708.75,-507.50,1,94.225,
01/01/2000,01:23:58.72,21.96,-61.0,-992.59,131.25,-638.75,-192.50,1,94.228,
01/01/2000,01:23:58.73,23.18,-61.61,-992.71,131.25,-603.75,-201.25,1,94.232,
01/01/2000,01:23:58.74,23.55,-61.73,-992.84,140.0,-708.75,-516.25,1,94.236,
01/01/2000,01:23:58.75,23.18,-61.24,-993.08,113.75,-761.25,-323.75,1,94.239,
01/01/2000,01:23:58.76,22.45,-61.0,-993.08,262.50,-770.0,-262.50,1,94.243,
01/01/2000,01:23:58.77,20.74,-60.88,-992.71,113.75,-770.0,8.75,1,94.247,
01/01/2000,01:23:58.78,18.54,-61.0,-991.98,113.75,-743.75,-157.50,1,94.251,
01/01/2000,01:23:58.79,16.59,-61.73,-991.74,376.25,-586.25,-603.75,1,94.254,
01/01/2000,01:23:58.81,15.98,-61.12,-991.86,183.75,-577.50,-673.75,1,94.258,
01/01/2000,01:23:58.81,16.84,-61.0,-992.35,166.25,-726.25,-612.50,1,94.262,
01/01/2000,01:23:58.83,18.79,-60.88,-992.35,280.0,-682.50,-481.25,1,94.265,
01/01/2000,01:23:58.84,21.11,-60.76,-993.08,-8.75,-673.75,-175.0,1,94.269,
01/01/2000,01:23:58.85,22.20,-61.49,-993.20,70.0,-796.25,-113.75,1,94.273,
01/01/2000,01:23:58.86,22.94,-61.85,-993.08,210.0,-787.50,-402.50,1,94.277,
01/01/2000,01:23:58.87,22.45,-61.49,-992.84,8.75,-700.0,-332.50,1,94.280,
01/01/2000,01:23:58.88,21.47,-61.12,-992.47,-35.0,-761.25,-280.0,1,94.284,
01/01/2000,01:23:58.89,20.13,-61.12,-992.23,218.75,-770.0,-61.25,1,94.288,
01/01/2000,01:23:58.90,18.54,-60.76,-992.10,157.50,-717.50,-236.25,1,94.291,
01/01/2000,01:23:58.91,16.96,-60.76,-992.35,70.0,-647.50,-262.50,1,94.295,
01/01/2000,01:23:58.92,16.10,-61.24,-992.35,262.50,-621.25,-367.50,1,94.299,
01/01/2000,01:23:58.93,16.84,-61.0,-992.59,113.75,-717.50,-577.50,1,94.302,
01/01/2000,01:23:58.94,18.54,-61.0,-992.71,262.50,-595.0,-595.0,1,94.306,
01/01/2000,01:23:58.95,20.50,-61.0,-992.59,140.0,-717.50,-472.50,1,94.309,
01/01/2000,01:23:58.96,21.96,-61.24,-992.35,131.25,-691.25,-210.0,1,94.313,
01/01/2000,01:23:58.97,23.30,-61.49,-992.35,210.0,-700.0,-323.75,1,94.317,
01/01/2000,01:23:58.98,23.67,-61.73,-992.71,140.0,-708.75,-332.50,1,94.320,
01/01/2000,01:23:58.99,22.94,-61.49,-993.08,210.0,-761.25,-262.50,1,94.264,
01/01/2000,01:23:59.00,21.47,-61.24,-993.08,-17.50,-647.50,-87.50,1,94.268,
01/01/2000,01:23:59.01,19.40,-60.88,-992.84,78.75,-735.0,131.25,1,94.271,
01/01/2000,01:23:59.02,16.96,-60.88,-992.47,385.0,-612.50,-288.75,1,94.275,
01/01/2000,01:23:59.03,14.76,-61.0,-992.35,122.50,-673.75,-621.25,1,94.278,
01/01/2000,01:23:59.04,14.64,-60.76,-992.47,201.25,-743.75,-656.25,1,94.282,
01/01/2000,01:23:59.05,15.86,-60.51,-992.59,175.0,-682.50,-682.50,1,94.286,
01/01/2000,01:23:59.07,18.91,-60.76,-993.08,218.75,-717.50,-393.75,1,94.289,
01/01/2000,01:23:59.08,20.50,-61.24,-992.71,96.25,-647.50,-280.0,1,94.293,
01/01/2000,01:23:59.09,21.96,-61.85,-992.35,96.25,-752.50,-411.25,1,94.297,
01/01/2000,01:23:59.10,22.45,-61.98,-991.86,78.75,-673.75,-297.50,1,94.300,
01/01/2000,01:23:59.11,21.72,-61.98,-991.86,113.75,-831.25,-332.50,1,94.304,
01/01/2000,01:23:59.12,20.01,-61.49,-992.23,192.50,-735.0,-175.0,1,94.307,
01/01/2000,01:23:59.13,18.42,-61.37,-992.59,358.75,-638.75,-245.0,1,94.311,
01/01/2000,01:23:59.14,16.59,-60.63,-992.71,-17.50,-638.75,-455.0,1,94.255,
01/01/2000,01:23:59.15,16.47,-60.51,-992.59,210.0,-735.0,-358.75,1,94.259,
01/01/2000,01:23:59.16,17.81,-61.0,-992.35,157.50,-612.50,-481.25,1,94.262,
01/01/2000,01:23:59.18,19.89,-61.49,-992.47,157.50,-778.75,-350.0,1,94.266,
01/01/2000,01:23:59.19,21.35,-61.98,-992.47,131.25,-638.75,-437.50,1,94.270,
01/01/2000,01:23:59.20,22.69,-61.98,-992.59,253.75,-735.0,-463.75,1,94.273,
01/01/2000,01:23:59.21,22.94,-61.49,-992.71,-96.25,-752.50,-341.25,1,94.277,
01/01/2000,01:23:59.22,22.20,-61.37,-992.59,218.75,-752.50,-157.50,1,94.280,
01/01/2000,01:23:59.23,20.74,-61.12,-992.10,8.75,-831.25,17.50,1,94.284,
01/01/2000,01:23:59.24,17.45,-61.37,-991.98,78.75,-805.0,87.50,1,94.288,
01/01/2000,01:23:59.25,15.86,-61.49,-992.10,201.25,-621.25,-533.75,1,94.291,
01/01/2000,01:23:59.26,15.37,-61.37,-992.59,288.75,-673.75,-857.50,1,94.295,
01/01/2000,01:23:59.27,15.86,-60.88,-992.84,52.50,-638.75,-560.0,1,94.298,
01/01/2000,01:23:59.28,17.93,-60.63,-992.35,131.25,-577.50,-262.50,1,94.302,
01/01/2000,01:23:59.29,19.52,-60.76,-991.62,166.25,-717.50,-262.50,1,94.305,
01/01/2000,01:23:59.30,20.74,-61.12,-991.13,113.75,-726.25,-358.75,1,94.309,
01/01/2000,01:23:59.31,21.84,-61.98,-991.37,105.0,-708.75,-525.0,1,94.313,
01/01/2000,01:23:59.32,22.69,-61.98,-991.74,218.75,-647.50,-437.50,1,94.316,
01/01/2000,01:23:59.33,22.69,-61.73,-991.86,43.75,-735.0,-428.75,1,94.320,
01/01/2000,01:23:59.34,22.08,-61.12,-991.49,70.0,-892.50,-183.75,1,94.323,
01/01/2000,01:23:59.35,19.28,-60.51,-991.01,105.0,-770.0,210.0,1,94.268,
01/01/2000,01:23:59.36,17.45,-61.0,-992.23,122.50,-708.75,-498.75,1,94.271,
01/01/2000,01:23:59.37,16.59,-61.49,-995.15,122.50,-770.0,-551.25,1,94.275,
01/01/2000,01:23:59.38,16.59,-61.49,-996.01,157.50,-621.25,-525.0,1,94.279,
01/01/2000,01:23:59.40,16.84,-61.0,-995.40,105.0,-525.0,-350.0,1,94.282,
01/01/2000,01:23:59.41,17.81,-60.88,-993.81,201.25,-691.25,-437.50,1,94.286,
01/01/2000,01:23:59.42,19.52,-60.88,-991.86,61.25,-743.75,-280.0,1,94.289,
01/01/2000,01:23:59.43,20.74,-61.49,-991.74,140.0,-761.25,-385.0,1,94.293,
01/01/2000,01:23:59.44,22.33,-62.10,-992.47,43.75,-761.25,-463.75,1,94.296,
01/01/2000,01:23:59.45,22.94,-61.85,-993.32,35.0,-682.50,-428.75,1,94.300,
01/01/2000,01:23:59.46,22.33,-61.73,-993.81,78.75,-726.25,-148.75,1,94.303,
01/01/2000,01:23:59.47,20.74,-61.24,-993.32,70.0,-682.50,78.75,1,94.307,
01/01/2000,01:23:59.48,17.45,-61.24,-992.59,262.50,-770.0,-122.50,1,94.310,
01/01/2000,01:23:59.49,15.01,-61.0,-992.59,280.0,-708.75,-507.50,1,94.256,
01/01/2000,01:23:59.50,15.25,-61.0,-992.84,157.50,-813.75,-682.50,1,94.259,
01/01/2000,01:23:59.51,16.71,-60.88,-993.08,140.0,-638.75,-770.0,1,94.263,
01/01/2000,01:23:59.52,18.91,-60.88,-993.08,201.25,-708.75,-271.25,1,94.266,
01/01/2000,01:23:59.53,20.74,-60.88,-992.84,-8.75,-787.50,-236.25,1,94.270,
01/01/2000,01:23:59.54,22.33,-61.61,-992.10,61.25,-770.0,-253.75,1,94.273,
01/01/2000,01:23:59.55,22.57,-61.73,-991.25,175.0,-682.50,-280.0,1,94.277,
01/01/2000,01:23:59.57,22.20,-61.24,-991.13,253.75,-848.75,-455.0,1,94.280,
01/01/2000,01:23:59.58,21.11,-60.88,-991.74,105.0,-761.25,-236.25,1,94.284,
01/01/2000,01:23:59.59,19.28,-60.51,-992.23,-35.0,-656.25,175.0,1,94.287,
01/01/2000,01:23:59.60,17.32,-60.88,-993.20,210.0,-691.25,-236.25,1,94.291,
01/01/2000,01:23:59.61,15.37,-60.63,-993.81,210.0,-638.75,-656.25,1,94.294,
01/01/2000,01:23:59.62,15.62,-60.51,-993.93,175.0,-665.0,-735.0,1,94.298,
01/01/2000,01:23:59.63,17.20,-60.51,-993.45,271.25,-551.25,-577.50,1,94.301,
01/01/2000,01:23:59.64,20.01,-60.51,-992.71,113.75,-717.50,-297.50,1,94.305,
01/01/2000,01:23:59.65,21.35,-60.88,-992.10,35.0,-770.0,-140.0,1,94.308,
01/01/2000,01:23:59.66,22.08,-61.85,-991.25,227.50,-778.75,-148.75,1,94.312,
01/01/2000,01:23:59.67,21.47,-61.85,-991.37,245.0,-787.50,-533.75,1,94.315,
01/01/2000,01:23:59.69,20.98,-61.12,-992.10,122.50,-717.50,-437.50,1,94.261,
01/01/2000,01:23:59.70,20.50,-60.51,-993.08,87.50,-595.0,-131.25,1,94.265,
01/01/2000,01:23:59.71,18.79,-60.39,-993.32,43.75,-682.50,-61.25,1,94.268,
01/01/2000,01:23:59.72,17.45,-60.76,-993.20,236.25,-603.75,-245.0,1,94.272,
01/01/2000,01:23:59.73,16.96,-61.12,-993.32,332.50,-665.0,-481.25,1,94.275,
01/01/2000,01:23:59.74,17.69,-61.12,-993.08,175.0,-726.25,-647.50,1,94.279,
01/01/2000,01:23:59.75,19.28,-61.12,-992.71,87.50,-595.0,-726.25,1,94.282,
01/01/2000,01:23:59.76,20.74,-61.0,-992.47,96.25,-822.50,-490.0,1,94.286,
01/01/2000,01:23:59.77,21.47,-60.88,-992.10,105.0,-805.0,-70.0,1,94.289,
01/01/2000,01:23:59.78,21.47,-61.49,-991.86,288.75,-708.75,-218.75,1,94.293,
01/01/2000,01:23:59.79,21.23,-61.37,-991.86,96.25,-726.25,-376.25,1,94.296,
01/01/2000,01:23:59.80,20.98,-61.12,-992.10,122.50,-691.25,-367.50,1,94.300,
01/01/2000,01:23:59.81,20.37,-61.0,-992.35,61.25,-743.75,-218.75,1,94.303,
01/01/2000,01:23:59.82,19.28,-60.76,-992.47,70.0,-612.50,-122.50,1,94.306,
01/01/2000,01:23:59.83,17.45,-61.0,-992.71,183.75,-743.75,-201.25,1,94.310,
01/01/2000,01:23:59.84,16.59,-61.0,-993.08,8.75,-761.25,-490.0,1,94.313,
01/01/2000,01:23:59.85,16.84,-61.0,-993.32,43.75,-743.75,-420.0,1,94.260,
01/01/2000,01:23:59.86,17.69,-61.0,-993.32,8.75,-647.50,-542.50,1,94.263,
01/01/2000,01:23:59.87,19.03,-61.12,-993.08,210.0,-621.25,-498.75,1,94.267,
01/01/2000,01:23:59.88,20.86,-61.12,-992.35,201.25,-743.75,-253.75,1,94.270,
01/01/2000,01:23:59.89,21.23,-61.12,-991.86,26.25,-831.25,-271.25,1,94.274,
01/01/2000,01:23:59.90,21.72,-61.37,-991.37,166.25,-673.75,-332.50,1,94.277,
01/01/2000,01:23:59.92,21.84,-61.49,-991.74,253.75,-787.50,-463.75,1,94.281,
01/01/2000,01:23:59.93,21.72,-61.24,-992.10,-26.25,-743.75,-280.0,1,94.284,
01/01/2000,01:23:59.94,20.74,-61.0,-992.35,87.50,-743.75,-148.75,1,94.287,
01/01/2000,01:23:59.95,18.42,-61.0,-992.59,140.0,-682.50,-105.0,1,94.291,
01/01/2000,01:23:59.96,16.84,-61.12,-992.96,87.50,-717.50,-201.25,1,94.294,
01/01/2000,01:23:59.97,15.86,-61.12,-993.20,70.0,-700.0,-595.0,1,94.298,
01/01/2000,01:23:59.98,15.74,-61.37,-993.57,131.25,-612.50,-682.50,1,94.301,
01/01/2000,01:23:59.99,17.69,-60.76,-993.32,35.0,-708.75,-385.0,1,94.305,
01/01/2000,01:24:00.00,20.01,-60.76,-992.71,157.50,-560.0,-166.25,1,94.308,
01/01/2000,01:24:00.01,20.74,-61.12,-991.98,236.25,-708.75,-236.25,1,94.311,
01/01/2000,01:24:00.02,21.23,-61.73,-991.49,96.25,-717.50,-218.75,1,94.315,
01/01/2000,01:24:00.03,21.23,-61.85,-991.37,-35.0,-726.25,-463.75,1,94.318,
01/01/2000,01:24:00.04,21.11,-61.98,-991.86,262.50,-708.75,-315.0,1,94.322,
01/01/2000,01:24:00.05,19.40,-61.0,-992.23,105.0,-682.50,-78.75,1,94.325,
01/01/2000,01:24:00.06,17.45,-61.0,-992.35,131.25,-647.50,-297.50,1,94.272,
01/01/2000,01:24:00.07,16.59,-60.27,-992.59,210.0,-673.75,-446.25,1,94.275,
