rtcDate,rtcTime,aX,aY,aZ,gX,gY,gZ,dataRdy,output_Hz,
01/01/2000,01:32:38.80,14.88,-57.10,-863.15,122.50,-735.0,-350.0,1,0.0,
01/01/2000,01:32:38.81,15.37,-58.68,-886.09,122.50,-708.75,-323.75,1,100.0,
01/01/2000,01:32:38.82,15.74,-59.90,-905.12,26.25,-700.0,-297.50,1,100.0,
01/01/2000,01:32:38.83,15.86,-60.63,-915.98,218.75,-586.25,-376.25,1,100.0,
01/01/2000,01:32:38.84,15.98,-61.24,-925.49,17.50,-682.50,-367.50,1,100.0,
01/01/2000,01:32:38.85,16.10,-61.85,-937.45,26.25,-691.25,-271.25,1,100.0,
01/01/2000,01:32:38.86,16.35,-62.59,-944.28,218.75,-700.0,-341.25,1,100.0,
01/01/2000,01:32:38.88,16.47,-63.07,-950.38,157.50,-673.75,-315.0,1,100.0,
01/01/2000,01:32:38.89,16.47,-63.68,-955.50,61.25,-726.25,-367.50,1,100.0,
01/01/2000,01:32:38.90,16.35,-64.17,-962.09,96.25,-717.50,-455.0,1,100.0,
01/01/2000,01:32:38.91,16.71,-64.42,-965.87,218.75,-665.0,-428.75,1,100.0,
01/01/2000,01:32:38.92,16.84,-64.54,-969.66,175.0,-630.0,-341.25,1,100.0,
01/01/2000,01:32:38.93,16.84,-64.42,-972.95,61.25,-682.50,-227.50,1,100.0,
01/01/2000,01:32:38.94,16.71,-65.15,-976.49,96.25,-700.0,-420.0,1,100.0,
01/01/2000,01:32:38.95,16.71,-65.27,-978.44,-35.0,-691.25,-323.75,1,100.0,
01/01/2000,01:32:38.96,16.84,-65.39,-980.39,87.50,-647.50,-402.50,1,100.0,
01/01/2000,01:32:38.97,17.08,-65.39,-982.10,210.0,-735.0,-341.25,1,100.0,
01/01/2000,01:32:38.98,16.96,-65.39,-984.54,8.75,-822.50,-288.75,1,100.0,
01/01/2000,01:32:38.99,16.84,-65.51,-985.64,157.50,-761.25,-402.50,1,100.0,
01/01/2000,01:32:39.00,16.71,-65.64,-986.74,192.50,-612.50,-306.25,1,100.0,
01/01/2000,01:32:39.01,16.84,-65.64,-988.20,183.75,-665.0,-385.0,1,100.0,
01/01/2000,01:32:39.02,17.08,-65.64,-988.81,183.75,-726.25,-315.0,1,100.0,
01/01/2000,01:32:39.03,17.08,-65.39,-989.18,52.50,-595.0,-332.50,1,100.0,
01/01/2000,01:32:39.04,17.08,-65.64,-989.42,17.50,-796.25,-236.25,1,100.0,
01/01/2000,01:32:39.05,17.08,-65.76,-990.40,218.75,-813.75,-428.75,1,100.0,
01/01/2000,01:32:39.06,17.08,-65.64,-991.01,227.50,-708.75,-402.50,1,100.0,
01/01/2000,01:32:39.07,17.08,-65.64,-991.37,148.75,-735.0,-271.25,1,100.0,
01/01/2000,01:32:39.08,17.08,-65.88,-991.62,122.50,-700.0,-385.0,1,96.552,
01/01/2000,01:32:39.09,17.20,-66.00,-991.62,157.50,-656.25,-367.50,1,96.667,
01/01/2000,01:32:39.10,17.08,-66.00,-992.10,218.75,-630.0,-332.50,1,96.774,
01/01/2000,01:32:39.11,17.20,-66.00,-992.59,70.0,-778.75,-358.75,1,96.875,
01/01/2000,01:32:39.12,17.08,-66.12,-992.84,140.0,-735.0,-367.50,1,96.970,
01/01/2000,01:32:39.13,17.08,-65.88,-992.84,70.0,-717.50,-411.25,1,97.059,
01/01/2000,01:32:39.14,16.96,-65.88,-992.84,210.0,-673.75,-341.25,1,97.143,
01/01/2000,01:32:39.16,17.08,-66.00,-992.84,140.0,-726.25,-341.25,1,97.222,
01/01/2000,01:32:39.17,17.08,-66.12,-993.20,175.0,-708.75,-358.75,1,97.297,
01/01/2000,01:32:39.18,16.96,-66.25,-993.57,113.75,-656.25,-402.50,1,97.368,
01/01/2000,01:32:39.19,17.08,-66.12,-993.45,43.75,-647.50,-367.50,1,97.436,
01/01/2000,01:32:39.20,17.08,-66.00,-993.45,253.75,-700.0,-411.25,1,97.500,
01/01/2000,01:32:39.21,17.20,-65.88,-993.57,201.25,-813.75,-323.75,1,97.561,
01/01/2000,01:32:39.22,17.32,-65.88,-993.69,201.25,-691.25,-402.50,1,97.619,
01/01/2000,01:32:39.23,17.32,-66.12,-993.69,157.50,-691.25,-297.50,1,97.674,
01/01/2000,01:32:39.24,17.20,-66.12,-993.57,175.0,-691.25,-358.75,1,97.727,
01/01/2000,01:32:39.25,17.20,-66.12,-993.57,113.75,-665.0,-358.75,1,97.778,
01/01/2000,01:32:39.26,17.32,-66.00,-993.57,148.75,-577.50,-376.25,1,97.826,
01/01/2000,01:32:39.27,17.32,-66.00,-993.69,96.25,-647.50,-227.50,1,97.872,
01/01/2000,01:32:39.28,17.32,-66.00,-993.57,52.50,-630.0,-385.0,1,97.917,
01/01/2000,01:32:39.29,17.32,-66.12,-993.45,87.50,-743.75,-297.50,1,96.0,
01/01/2000,01:32:39.30,17.20,-66.12,-993.57,280.0,-752.50,-367.50,1,96.078,
01/01/2000,01:32:39.31,17.20,-66.00,-993.32,245.0,-673.75,-358.75,1,96.154,
01/01/2000,01:32:39.33,17.20,-65.88,-993.45,131.25,-673.75,-376.25,1,96.226,
01/01/2000,01:32:39.34,17.08,-66.12,-993.32,280.0,-673.75,-367.50,1,96.296,
01/01/2000,01:32:39.35,16.84,-66.12,-993.32,280.0,-708.75,-358.75,1,96.364,
01/01/2000,01:32:39.36,16.84,-66.12,-993.32,87.50,-665.0,-367.50,1,96.429,
01/01/2000,01:32:39.37,17.20,-65.88,-993.45,262.50,-673.75,-367.50,1,96.491,
01/01/2000,01:32:39.38,17.20,-65.88,-993.57,192.50,-595.0,-253.75,1,96.552,
01/01/2000,01:32:39.39,17.08,-66.00,-993.93,78.75,-770.0,-280.0,1,96.610,
01/01/2000,01:32:39.40,16.96,-66.12,-993.93,288.75,-770.0,-358.75,1,96.667,
01/01/2000,01:32:39.41,17.08,-66.00,-993.93,87.50,-743.75,-288.75,1,96.721,
01/01/2000,01:32:39.42,17.08,-65.64,-993.93,218.75,-735.0,-280.0,1,96.774,
01/01/2000,01:32:39.43,17.20,-65.64,-993.81,26.25,-743.75,-393.75,1,95.313,
01/01/2000,01:32:39.44,17.20,-65.76,-993.57,140.0,-708.75,-306.25,1,95.385,
01/01/2000,01:32:39.45,17.08,-66.00,-993.57,131.25,-735.0,-463.75,1,95.455,
01/01/2000,01:32:39.46,17.08,-66.00,-993.81,140.0,-682.50,-376.25,1,95.522,
01/01/2000,01:32:39.47,17.32,-65.88,-993.81,271.25,-647.50,-358.75,1,95.588,
01/01/2000,01:32:39.48,17.32,-65.64,-993.81,218.75,-778.75,-315.0,1,95.652,
01/01/2000,01:32:39.49,17.32,-65.64,-993.45,166.25,-735.0,-288.75,1,95.714,
01/01/2000,01:32:39.51,17.20,-65.88,-993.32,192.50,-656.25,-297.50,1,95.775,
01/01/2000,01:32:39.52,17.20,-65.88,-993.69,218.75,-700.0,-358.75,1,95.833,
01/01/2000,01:32:39.53,17.20,-65.76,-993.57,245.0,-673.75,-393.75,1,95.890,
01/01/2000,01:32:39.54,17.32,-65.64,-993.57,61.25,-647.50,-288.75,1,95.946,
01/01/2000,01:32:39.55,17.32,-65.76,-993.45,201.25,-612.50,-288.75,1,96.0,
01/01/2000,01:32:39.56,17.20,-65.88,-993.45,87.50,-630.0,-385.0,1,96.053,
01/01/2000,01:32:39.57,17.32,-66.00,-993.57,201.25,-735.0,-323.75,1,96.104,
01/01/2000,01:32:39.58,17.20,-65.88,-993.32,175.0,-691.25,-323.75,1,96.154,
01/01/2000,01:32:39.59,17.08,-65.88,-993.20,175.0,-673.75,-271.25,1,96.203,
01/01/2000,01:32:39.60,17.08,-65.76,-993.08,61.25,-752.50,-341.25,1,96.250,
01/01/2000,01:32:39.61,16.96,-65.88,-993.08,175.0,-717.50,-350.0,1,96.296,
01/01/2000,01:32:39.62,17.08,-65.88,-993.08,122.50,-638.75,-323.75,1,96.341,
01/01/2000,01:32:39.63,17.20,-66.00,-993.32,113.75,-700.0,-420.0,1,96.386,
01/01/2000,01:32:39.64,17.32,-65.88,-993.32,297.50,-595.0,-385.0,1,95.294,
01/01/2000,01:32:39.65,17.32,-65.64,-993.08,78.75,-682.50,-315.0,1,95.349,
01/01/2000,01:32:39.66,17.32,-65.64,-992.96,78.75,-822.50,-411.25,1,95.402,
01/01/2000,01:32:39.67,17.45,-65.64,-992.96,227.50,-717.50,-341.25,1,95.455,
01/01/2000,01:32:39.69,17.45,-65.51,-993.08,323.75,-656.25,-350.0,1,95.506,
01/01/2000,01:32:39.69,17.57,-65.64,-993.08,192.50,-761.25,-367.50,1,95.556,
01/01/2000,01:32:39.71,17.45,-65.39,-993.20,26.25,-770.0,-332.50,1,95.604,
01/01/2000,01:32:39.72,17.20,-65.51,-993.20,148.75,-708.75,-332.50,1,95.652,
01/01/2000,01:32:39.73,17.32,-65.64,-993.08,105.0,-665.0,-271.25,1,95.699,
01/01/2000,01:32:39.74,17.20,-65.64,-992.96,105.0,-752.50,-402.50,1,95.745,
01/01/2000,01:32:39.75,17.20,-65.64,-992.84,113.75,-752.50,-350.0,1,95.789,
01/01/2000,01:32:39.76,17.20,-65.51,-992.84,192.50,-665.0,-385.0,1,95.833,
01/01/2000,01:32:39.77,17.32,-65.51,-992.84,70.0,-717.50,-332.50,1,95.876,
01/01/2000,01:32:39.78,17.08,-65.76,-992.96,218.75,-691.25,-358.75,1,94.949,
01/01/2000,01:32:39.79,16.96,-65.88,-993.08,175.0,-717.50,-420.0,1,95.0,
01/01/2000,01:32:39.80,17.08,-65.64,-993.08,52.50,-787.50,-393.75,1,95.050,
01/01/2000,01:32:39.81,17.32,-65.64,-992.96,87.50,-726.25,-411.25,1,95.098,
01/01/2000,01:32:39.82,17.08,-65.76,-992.84,210.0,-673.75,-332.50,1,95.146,
01/01/2000,01:32:39.84,16.84,-65.76,-992.96,201.25,-708.75,-455.0,1,95.192,
01/01/2000,01:32:39.85,16.84,-65.64,-993.20,183.75,-656.25,-253.75,1,95.238,
01/01/2000,01:32:39.86,16.84,-65.64,-993.08,122.50,-630.0,-315.0,1,95.283,
01/01/2000,01:32:39.87,16.84,-65.64,-993.08,175.0,-691.25,-323.75,1,95.327,
01/01/2000,01:32:39.88,16.84,-65.76,-992.96,148.75,-743.75,-323.75,1,95.370,
01/01/2000,01:32:39.89,16.96,-65.88,-992.96,87.50,-813.75,-315.0,1,95.413,
01/01/2000,01:32:39.90,16.84,-65.88,-993.08,140.0,-691.25,-420.0,1,95.455,
01/01/2000,01:32:39.91,16.96,-65.64,-993.20,157.50,-665.0,-376.25,1,95.495,
01/01/2000,01:32:39.92,16.96,-65.64,-992.96,210.0,-700.0,-288.75,1,95.536,
01/01/2000,01:32:39.93,16.84,-65.51,-992.84,122.50,-630.0,-315.0,1,95.575,
01/01/2000,01:32:39.94,16.96,-65.64,-992.84,236.25,-735.0,-350.0,1,95.614,
01/01/2000,01:32:39.95,16.96,-65.88,-992.84,96.25,-673.75,-428.75,1,95.652,
01/01/2000,01:32:39.96,17.08,-65.76,-992.96,140.0,-700.0,-376.25,1,95.690,
01/01/2000,01:32:39.97,17.08,-65.64,-992.84,192.50,-656.25,-323.75,1,95.726,
01/01/2000,01:32:39.98,17.08,-65.39,-992.84,148.75,-743.75,-323.75,1,95.763,
01/01/2000,01:32:40.00,16.84,-65.39,-992.84,192.50,-691.25,-280.0,1,95.0,
01/01/2000,01:32:40.00,16.96,-65.39,-992.71,175.0,-717.50,-393.75,1,95.041,
01/01/2000,01:32:40.02,16.96,-65.64,-992.84,271.25,-708.75,-323.75,1,95.082,
01/01/2000,01:32:40.03,16.96,-65.76,-992.71,35.0,-691.25,-402.50,1,95.122,
01/01/2000,01:32:40.04,16.84,-65.64,-992.59,183.75,-682.50,-288.75,1,95.161,
01/01/2000,01:32:40.05,17.08,-65.64,-992.35,140.0,-778.75,-315.0,1,95.200,
01/01/2000,01:32:40.06,17.08,-65.39,-992.47,122.50,-638.75,-315.0,1,95.238,
01/01/2000,01:32:40.07,17.20,-65.39,-992.59,210.0,-717.50,-367.50,1,95.276,
01/01/2000,01:32:40.08,16.96,-65.64,-992.71,183.75,-551.25,-350.0,1,95.313,
01/01/2000,01:32:40.09,16.96,-65.64,-992.71,183.75,-682.50,-376.25,1,95.349,
01/01/2000,01:32:40.10,17.08,-65.64,-992.59,61.25,-743.75,-262.50,1,95.385,
01/01/2000,01:32:40.11,16.96,-65.51,-992.47,131.25,-656.25,-402.50,1,95.420,
01/01/2000,01:32:40.12,16.84,-65.39,-992.47,175.0,-700.0,-376.25,1,95.455,
01/01/2000,01:32:40.13,16.84,-65.27,-992.59,148.75,-682.50,-323.75,1,95.489,
01/01/2000,01:32:40.14,17.08,-65.39,-992.59,192.50,-682.50,-315.0,1,94.815,
01/01/2000,01:32:40.15,16.84,-65.51,-992.35,87.50,-708.75,-297.50,1,94.853,
01/01/2000,01:32:40.16,16.84,-65.51,-992.35,148.75,-708.75,-446.25,1,94.891,
01/01/2000,01:32:40.17,17.08,-65.39,-992.35,52.50,-726.25,-323.75,1,94.928,
01/01/2000,01:32:40.18,17.20,-65.15,-992.59,175.0,-743.75,-323.75,1,94.964,
01/01/2000,01:32:40.19,17.08,-65.27,-992.59,148.75,-787.50,-323.75,1,95.0,
01/01/2000,01:32:40.21,16.71,-65.39,-992.35,201.25,-682.50,-385.0,1,95.035,
01/01/2000,01:32:40.22,16.84,-65.39,-992.35,140.0,-647.50,-411.25,1,95.070,
01/01/2000,01:32:40.23,17.08,-65.15,-992.35,166.25,-691.25,-315.0,1,95.105,
01/01/2000,01:32:40.24,17.32,-65.15,-992.35,96.25,-726.25,-323.75,1,95.139,
01/01/2000,01:32:40.25,16.96,-65.39,-992.35,131.25,-647.50,-323.75,1,95.172,
01/01/2000,01:32:40.26,16.59,-65.39,-992.23,201.25,-656.25,-411.25,1,95.205,
01/01/2000,01:32:40.27,16.84,-65.39,-992.23,227.50,-673.75,-411.25,1,95.238,
01/01/2000,01:32:40.28,17.20,-65.03,-992.35,140.0,-647.50,-341.25,1,95.270,
01/01/2000,01:32:40.29,17.20,-65.15,-992.35,157.50,-726.25,-323.75,1,95.302,
01/01/2000,01:32:40.30,16.84,-65.39,-992.10,218.75,-673.75,-332.50,1,95.333,
01/01/2000,01:32:40.31,16.84,-65.39,-992.10,288.75,-673.75,-420.0,1,95.364,
01/01/2000,01:32:40.32,16.84,-65.15,-992.35,35.0,-717.50,-306.25,1,95.395,
01/01/2000,01:32:40.33,16.96,-65.15,-992.35,61.25,-665.0,-341.25,1,95.425,
01/01/2000,01:32:40.35,16.71,-65.39,-992.10,52.50,-761.25,-323.75,1,94.839,
01/01/2000,01:32:40.36,16.71,-65.64,-991.74,35.0,-630.0,-420.0,1,94.872,
01/01/2000,01:32:40.37,16.84,-65.64,-991.86,70.0,-735.0,-376.25,1,94.904,
01/01/2000,01:32:40.38,17.08,-65.39,-992.10,201.25,-630.0,-428.75,1,94.937,
01/01/2000,01:32:40.39,16.96,-65.39,-992.10,131.25,-787.50,-280.0,1,94.969,
01/01/2000,01:32:40.40,16.96,-65.39,-991.86,218.75,-752.50,-315.0,1,95.0,
01/01/2000,01:32:40.41,16.96,-65.51,-991.62,306.25,-665.0,-393.75,1,95.031,
01/01/2000,01:32:40.42,17.08,-65.51,-991.74,113.75,-761.25,-385.0,1,95.062,
01/01/2000,01:32:40.43,17.20,-65.51,-991.86,201.25,-682.50,-402.50,1,94.512,
01/01/2000,01:32:40.44,17.08,-65.27,-992.10,131.25,-665.0,-297.50,1,94.545,
01/01/2000,01:32:40.45,16.84,-65.27,-991.98,192.50,-708.75,-393.75,1,94.578,
01/01/2000,01:32:40.46,16.84,-65.15,-991.86,131.25,-612.50,-323.75,1,94.611,
01/01/2000,01:32:40.47,16.84,-65.27,-991.86,122.50,-787.50,-306.25,1,94.643,
01/01/2000,01:32:40.48,17.20,-65.39,-992.10,175.0,-761.25,-280.0,1,94.675,
01/01/2000,01:32:40.49,17.08,-65.51,-992.10,140.0,-595.0,-210.0,1,94.706,
01/01/2000,01:32:40.50,17.08,-65.39,-991.98,87.50,-796.25,-288.75,1,94.737,
01/01/2000,01:32:40.51,17.20,-65.51,-991.98,245.0,-647.50,-332.50,1,94.767,
01/01/2000,01:32:40.52,17.08,-65.39,-991.98,105.0,-682.50,-306.25,1,94.798,
01/01/2000,01:32:40.53,17.08,-65.39,-992.10,227.50,-805.0,-385.0,1,94.828,
01/01/2000,01:32:40.54,17.32,-65.39,-992.10,78.75,-761.25,-253.75,1,94.857,
01/01/2000,01:32:40.55,17.20,-65.39,-992.10,70.0,-621.25,-271.25,1,94.886,
01/01/2000,01:32:40.57,17.08,-65.51,-991.86,210.0,-743.75,-306.25,1,94.915,
01/01/2000,01:32:40.58,16.96,-65.39,-991.98,166.25,-743.75,-341.25,1,94.944,
01/01/2000,01:32:40.59,17.08,-65.39,-992.23,140.0,-735.0,-341.25,1,94.972,
01/01/2000,01:32:40.60,17.20,-65.15,-992.35,210.0,-726.25,-262.50,1,95.0,
01/01/2000,01:32:40.61,17.08,-65.15,-992.10,87.50,-595.0,-367.50,1,95.028,
01/01/2000,01:32:40.62,17.08,-65.39,-991.98,218.75,-708.75,-393.75,1,95.055,
01/01/2000,01:32:40.63,17.08,-65.64,-992.10,175.0,-665.0,-393.75,1,95.082,
01/01/2000,01:32:40.64,17.20,-65.39,-992.10,148.75,-700.0,-332.50,1,95.109,
01/01/2000,01:32:40.65,17.08,-65.39,-992.23,332.50,-603.75,-341.25,1,95.135,
01/01/2000,01:32:40.66,16.96,-65.39,-992.10,131.25,-673.75,-315.0,1,94.652,
01/01/2000,01:32:40.67,16.84,-65.39,-992.10,236.25,-752.50,-437.50,1,95.187,
01/01/2000,01:32:40.68,17.32,-65.27,-991.86,43.75,-673.75,-358.75,1,94.709,
01/01/2000,01:32:40.69,17.45,-65.64,-991.86,262.50,-778.75,-280.0,1,95.238,
01/01/2000,01:32:40.71,17.08,-66.25,-991.98,280.0,-717.50,-148.75,1,94.764,
01/01/2000,01:32:40.72,17.08,-65.88,-992.23,43.75,-682.50,-481.25,1,94.792,
01/01/2000,01:32:40.73,17.08,-65.76,-992.35,201.25,-682.50,-323.75,1,94.819,
01/01/2000,01:32:40.74,17.32,-65.39,-992.35,140.0,-735.0,-175.0,1,94.845,
01/01/2000,01:32:40.75,17.32,-65.51,-992.10,210.0,-682.50,-463.75,1,94.872,
01/01/2000,01:32:40.76,17.20,-65.88,-991.98,183.75,-717.50,-201.25,1,94.898,
01/01/2000,01:32:40.77,17.20,-65.88,-991.98,271.25,-673.75,-411.25,1,94.924,
01/01/2000,01:32:40.78,17.08,-65.88,-992.23,306.25,-743.75,-446.25,1,94.949,
01/01/2000,01:32:40.79,17.08,-65.64,-992.10,271.25,-577.50,-288.75,1,94.975,
01/01/2000,01:32:40.80,16.96,-65.51,-991.98,52.50,-752.50,-393.75,1,95.0,
01/01/2000,01:32:40.81,16.84,-65.64,-991.98,113.75,-717.50,-183.75,1,95.025,
01/01/2000,01:32:40.82,16.84,-65.76,-992.10,253.75,-735.0,-446.25,1,95.050,
01/01/2000,01:32:40.83,16.84,-66.00,-992.23,157.50,-673.75,-245.0,1,95.074,
01/01/2000,01:32:40.84,17.08,-65.64,-992.23,131.25,-656.25,-341.25,1,94.634,
01/01/2000,01:32:40.86,17.08,-65.39,-991.86,131.25,-673.75,-201.25,1,94.660,
01/01/2000,01:32:40.87,16.84,-65.39,-992.10,122.50,-778.75,-385.0,1,94.686,
01/01/2000,01:32:40.88,16.84,-65.64,-992.10,131.25,-630.0,-227.50,1,94.712,
01/01/2000,01:32:40.89,16.84,-65.51,-992.35,157.50,-752.50,-332.50,1,94.737,
01/01/2000,01:32:40.90,16.96,-65.51,-992.10,70.0,-770.0,-332.50,1,94.762,
01/01/2000,01:32:40.91,17.08,-65.39,-991.86,113.75,-735.0,-350.0,1,94.787,
01/01/2000,01:32:40.92,17.08,-65.64,-991.98,192.50,-752.50,-358.75,1,94.811,
01/01/2000,01:32:40.93,17.20,-65.51,-992.10,148.75,-682.50,-411.25,1,94.836,
01/01/2000,01:32:40.94,17.20,-65.64,-992.35,166.25,-656.25,-227.50,1,94.860,
01/01/2000,01:32:40.95,17.32,-65.64,-992.23,113.75,-665.0,-271.25,1,94.884,
01/01/2000,01:32:40.96,17.08,-65.64,-991.86,210.0,-778.75,-315.0,1,94.907,
01/01/2000,01:32:40.97,17.20,-65.51,-991.74,105.0,-726.25,-411.25,1,94.931,
01/01/2000,01:32:40.98,17.08,-65.64,-991.98,210.0,-630.0,-393.75,1,94.954,
01/01/2000,01:32:40.99,17.08,-65.64,-992.23,236.25,-682.50,-341.25,1,94.545,
01/01/2000,01:32:41.00,17.08,-65.51,-992.10,210.0,-621.25,-253.75,1,94.570,
01/01/2000,01:32:41.01,17.20,-65.39,-991.86,43.75,-630.0,-280.0,1,94.595,
01/01/2000,01:32:41.02,17.08,-65.64,-991.62,157.50,-735.0,-358.75,1,94.619,
01/01/2000,01:32:41.03,17.08,-65.76,-991.86,175.0,-621.25,-315.0,1,94.643,
01/01/2000,01:32:41.04,17.08,-65.88,-992.23,166.25,-647.50,-428.75,1,94.667,
01/01/2000,01:32:41.06,17.32,-65.64,-992.35,166.25,-752.50,-341.25,1,94.690,
01/01/2000,01:32:41.07,17.45,-65.51,-992.10,166.25,-665.0,-323.75,1,94.714,
01/01/2000,01:32:41.08,17.32,-65.64,-991.62,201.25,-595.0,-315.0,1,94.737,
01/01/2000,01:32:41.09,17.08,-65.76,-991.62,35.0,-743.75,-376.25,1,94.760,
01/01/2000,01:32:41.10,17.08,-66.00,-991.74,288.75,-656.25,-428.75,1,94.783,
01/01/2000,01:32:41.11,17.08,-66.12,-992.10,262.50,-638.75,-411.25,1,94.805,
01/01/2000,01:32:41.12,17.08,-65.88,-992.10,218.75,-700.0,-420.0,1,94.828,
01/01/2000,01:32:41.13,16.84,-65.64,-991.98,315.0,-603.75,-481.25,1,94.850,
01/01/2000,01:32:41.14,17.32,-65.15,-991.62,-140.0,-673.75,-455.0,1,94.872,
01/01/2000,01:32:41.15,17.32,-65.88,-991.62,437.50,-691.25,-17.50,1,94.894,
01/01/2000,01:32:41.16,16.96,-65.88,-991.98,-131.25,-726.25,-332.50,1,94.915,
01/01/2000,01:32:41.17,16.71,-66.12,-992.23,385.0,-743.75,-726.25,1,94.937,
01/01/2000,01:32:41.18,16.96,-65.88,-992.23,367.50,-770.0,-446.25,1,94.958,
01/01/2000,01:32:41.19,17.20,-65.03,-991.98,-122.50,-735.0,-271.25,1,94.979,
01/01/2000,01:32:41.20,16.84,-65.39,-991.74,96.25,-691.25,-192.50,1,94.606,
01/01/2000,01:32:41.21,16.84,-65.51,-991.86,78.75,-752.50,-376.25,1,94.628,
01/01/2000,01:32:41.22,16.96,-65.88,-992.23,236.25,-770.0,-367.50,1,94.650,
01/01/2000,01:32:41.23,16.96,-65.88,-992.35,236.25,-743.75,-315.0,1,94.672,
01/01/2000,01:32:41.24,16.96,-65.39,-992.23,105.0,-647.50,-437.50,1,94.694,
01/01/2000,01:32:41.25,16.96,-65.39,-991.98,157.50,-665.0,-341.25,1,94.715,
01/01/2000,01:32:41.27,16.96,-65.15,-991.86,105.0,-726.25,-227.50,1,94.737,
01/01/2000,01:32:41.28,16.84,-65.64,-992.10,166.25,-726.25,-341.25,1,94.758,
01/01/2000,01:32:41.29,16.96,-65.64,-992.23,35.0,-726.25,-253.75,1,94.779,
01/01/2000,01:32:41.30,17.08,-65.64,-992.10,61.25,-656.25,-455.0,1,94.800,
01/01/2000,01:32:41.31,16.84,-65.51,-991.86,210.0,-612.50,-245.0,1,94.821,
01/01/2000,01:32:41.32,16.84,-65.15,-991.74,148.75,-673.75,-376.25,1,94.841,
01/01/2000,01:32:41.33,16.84,-65.15,-991.98,227.50,-761.25,-166.25,1,94.862,
01/01/2000,01:32:41.34,16.84,-65.51,-992.23,105.0,-603.75,-288.75,1,94.510,
01/01/2000,01:32:41.35,16.84,-65.39,-992.23,78.75,-700.0,-402.50,1,94.531,
01/01/2000,01:32:41.37,16.84,-65.39,-991.74,96.25,-700.0,-420.0,1,94.553,
01/01/2000,01:32:41.38,16.84,-65.39,-991.74,166.25,-752.50,-236.25,1,94.574,
01/01/2000,01:32:41.39,16.96,-65.39,-991.74,218.75,-647.50,-297.50,1,94.595,
01/01/2000,01:32:41.40,17.08,-65.39,-992.10,131.25,-770.0,-315.0,1,94.615,
01/01/2000,01:32:41.41,17.08,-65.39,-992.10,105.0,-665.0,-420.0,1,94.636,
01/01/2000,01:32:41.42,16.84,-65.27,-991.98,227.50,-822.50,-288.75,1,94.656,
01/01/2000,01:32:41.43,17.08,-65.15,-991.86,288.75,-691.25,-245.0,1,94.677,
01/01/2000,01:32:41.44,17.08,-65.15,-991.86,227.50,-708.75,-358.75,1,94.697,
01/01/2000,01:32:41.45,17.20,-65.27,-992.10,210.0,-735.0,-262.50,1,94.717,
01/01/2000,01:32:41.46,17.08,-65.39,-992.10,315.0,-726.25,-402.50,1,94.737,
01/01/2000,01:32:41.47,17.08,-65.39,-991.98,35.0,-691.25,-315.0,1,94.757,
01/01/2000,01:32:41.48,17.08,-65.27,-991.98,183.75,-630.0,-323.75,1,94.776,
01/01/2000,01:32:41.49,17.08,-65.15,-991.86,35.0,-778.75,-271.25,1,94.796,
01/01/2000,01:32:41.50,17.08,-65.27,-991.74,122.50,-752.50,-323.75,1,94.815,
01/01/2000,01:32:41.51,17.08,-65.51,-991.86,227.50,-700.0,-376.25,1,94.834,
01/01/2000,01:32:41.52,16.96,-65.51,-991.86,157.50,-787.50,-376.25,1,94.853,
01/01/2000,01:32:41.53,16.96,-65.39,-991.62,113.75,-638.75,-376.25,1,94.872,
01/01/2000,01:32:41.54,17.08,-65.15,-991.62,245.0,-726.25,-288.75,1,94.891,
01/01/2000,01:32:41.55,17.20,-65.03,-991.62,78.75,-743.75,-297.50,1,94.565,
01/01/2000,01:32:41.56,17.08,-65.27,-991.62,131.25,-822.50,-323.75,1,94.585,
01/01/2000,01:32:41.57,17.08,-65.39,-991.62,192.50,-787.50,-376.25,1,94.604,
01/01/2000,01:32:41.58,17.08,-65.27,-991.74,236.25,-577.50,-393.75,1,94.624,
01/01/2000,01:32:41.59,17.20,-65.15,-991.74,183.75,-682.50,-280.0,1,94.643,
01/01/2000,01:32:41.60,17.20,-65.39,-991.86,227.50,-761.25,-253.75,1,94.662,
01/01/2000,01:32:41.62,17.08,-65.39,-991.74,271.25,-796.25,-323.75,1,94.681,
01/01/2000,01:32:41.63,16.96,-65.51,-991.86,271.25,-682.50,-428.75,1,94.700,
01/01/2000,01:32:41.64,17.08,-65.27,-991.86,140.0,-673.75,-253.75,1,94.718,
01/01/2000,01:32:41.65,17.08,-65.39,-991.74,245.0,-717.50,-393.75,1,94.737,
01/01/2000,01:32:41.66,17.08,-65.27,-991.62,105.0,-682.50,-323.75,1,94.755,
01/01/2000,01:32:41.67,17.08,-65.39,-991.62,192.50,-717.50,-271.25,1,94.774,
01/01/2000,01:32:41.68,16.96,-65.39,-991.86,105.0,-735.0,-446.25,1,94.792,
01/01/2000,01:32:41.69,17.08,-65.51,-992.10,131.25,-735.0,-350.0,1,94.483,
01/01/2000,01:32:41.70,17.20,-65.39,-992.10,148.75,-568.75,-288.75,1,94.502,
01/01/2000,01:32:41.71,17.20,-65.39,-991.98,26.25,-726.25,-288.75,1,94.521,
01/01/2000,01:32:41.72,17.08,-65.39,-991.86,113.75,-752.50,-420.0,1,94.539,
01/01/2000,01:32:41.73,17.08,-65.39,-991.86,131.25,-612.50,-323.75,1,94.558,
01/01/2000,01:32:41.74,16.96,-65.39,-991.86,271.25,-787.50,-428.75,1,94.576,
01/01/2000,01:32:41.75,17.08,-65.27,-991.86,122.50,-761.25,-376.25,1,94.595,
01/01/2000,01:32:41.77,17.08,-65.15,-991.74,96.25,-656.25,-402.50,1,94.613,
01/01/2000,01:32:41.78,17.08,-65.39,-991.86,175.0,-743.75,-288.75,1,94.631,
01/01/2000,01:32:41.79,17.08,-65.39,-991.62,140.0,-761.25,-358.75,1,94.649,
01/01/2000,01:32:41.80,17.08,-65.39,-991.74,96.25,-656.25,-350.0,1,94.667,
01/01/2000,01:32:41.81,16.96,-65.51,-991.74,227.50,-647.50,-350.0,1,94.684,
01/01/2000,01:32:41.82,16.96,-65.39,-991.62,113.75,-603.75,-420.0,1,94.702,
01/01/2000,01:32:41.83,17.08,-65.27,-991.49,131.25,-831.25,-437.50,1,94.719,
01/01/2000,01:32:41.84,17.08,-65.27,-991.62,87.50,-752.50,-367.50,1,94.737,
01/01/2000,01:32:41.85,17.08,-65.51,-991.49,166.25,-778.75,-385.0,1,94.754,
01/01/2000,01:32:41.86,16.96,-65.39,-991.49,140.0,-682.50,-350.0,1,94.771,
01/01/2000,01:32:41.87,17.08,-65.27,-991.37,131.25,-700.0,-315.0,1,94.481,
01/01/2000,01:32:41.89,17.08,-65.27,-991.62,192.50,-682.50,-402.50,1,94.498,
01/01/2000,01:32:41.90,17.08,-65.15,-991.62,271.25,-700.0,-385.0,1,94.516,
01/01/2000,01:32:41.91,17.32,-65.39,-991.62,297.50,-647.50,-341.25,1,94.534,
01/01/2000,01:32:41.92,17.32,-65.27,-991.62,96.25,-682.50,-280.0,1,94.551,
01/01/2000,01:32:41.93,17.32,-65.39,-991.49,271.25,-612.50,-332.50,1,94.569,
01/01/2000,01:32:41.94,17.08,-65.27,-991.62,253.75,-638.75,-367.50,1,94.586,
01/01/2000,01:32:41.95,17.08,-65.27,-991.62,175.0,-717.50,-367.50,1,94.603,
01/01/2000,01:32:41.96,17.08,-65.39,-991.62,227.50,-743.75,-341.25,1,94.620,
01/01/2000,01:32:41.97,17.08,-65.27,-991.49,157.50,-778.75,-332.50,1,94.637,
01/01/2000,01:32:41.98,17.08,-65.51,-991.37,-26.25,-638.75,-420.0,1,94.654,
01/01/2000,01:32:41.99,16.84,-65.39,-991.49,201.25,-717.50,-288.75,1,94.671,
01/01/2000,01:32:42.00,16.84,-65.15,-991.49,201.25,-752.50,-472.50,1,94.688,
01/01/2000,01:32:42.01,16.84,-65.39,-991.49,306.25,-673.75,-236.25,1,94.704,
01/01/2000,01:32:42.02,16.84,-65.27,-991.49,122.50,-813.75,-332.50,1,94.720,
01/01/2000,01:32:42.03,16.96,-65.39,-991.49,113.75,-700.0,-411.25,1,94.737,
01/01/2000,01:32:42.04,16.84,-65.51,-991.62,175.0,-717.50,-323.75,1,94.462,
01/01/2000,01:32:42.05,16.84,-65.51,-991.74,175.0,-665.0,-297.50,1,94.479,
01/01/2000,01:32:42.06,16.84,-65.51,-991.74,175.0,-603.75,-463.75,1,94.495,
01/01/2000,01:32:42.07,16.84,-65.39,-991.74,122.50,-700.0,-332.50,1,94.512,
01/01/2000,01:32:42.08,16.84,-65.39,-991.86,70.0,-673.75,-306.25,1,94.529,
01/01/2000,01:32:42.09,16.84,-65.51,-991.98,323.75,-752.50,-280.0,1,94.545,
01/01/2000,01:32:42.10,16.84,-65.51,-992.10,35.0,-551.25,-315.0,1,94.562,
01/01/2000,01:32:42.12,16.84,-65.51,-992.10,280.0,-665.0,-393.75,1,94.578,
01/01/2000,01:32:42.13,16.84,-65.39,-991.98,166.25,-787.50,-306.25,1,94.595,
01/01/2000,01:32:42.14,16.84,-65.51,-991.86,166.25,-743.75,-306.25,1,94.611,
01/01/2000,01:32:42.15,16.84,-65.39,-991.86,17.50,-638.75,-306.25,1,94.627,
01/01/2000,01:32:42.16,16.84,-65.51,-991.74,280.0,-621.25,-315.0,1,94.643,
01/01/2000,01:32:42.17,16.96,-65.51,-991.86,140.0,-568.75,-393.75,1,94.659,
01/01/2000,01:32:42.18,17.08,-65.39,-991.62,17.50,-673.75,-236.25,1,94.675,
01/01/2000,01:32:42.19,17.08,-65.39,-991.62,96.25,-568.75,-376.25,1,94.690,
01/01/2000,01:32:42.20,16.96,-65.51,-991.62,105.0,-752.50,-332.50,1,94.706,
01/01/2000,01:32:42.21,17.20,-65.51,-991.62,218.75,-612.50,-306.25,1,94.721,
01/01/2000,01:32:42.22,17.20,-65.51,-991.74,201.25,-673.75,-446.25,1,94.737,
01/01/2000,01:32:42.23,17.08,-65.27,-991.86,52.50,-726.25,-332.50,1,94.752,
01/01/2000,01:32:42.24,17.08,-65.27,-991.74,201.25,-700.0,-385.0,1,94.767,
01/01/2000,01:32:42.25,17.08,-65.27,-991.74,227.50,-778.75,-385.0,1,94.509,
01/01/2000,01:32:42.26,17.20,-65.15,-992.10,236.25,-542.50,-437.50,1,94.524,
01/01/2000,01:32:42.27,17.20,-65.15,-991.98,227.50,-700.0,-280.0,1,94.540,
01/01/2000,01:32:42.28,17.20,-65.15,-991.86,70.0,-691.25,-507.50,1,94.556,
01/01/2000,01:32:42.29,17.20,-65.27,-991.74,78.75,-656.25,-332.50,1,94.571,
01/01/2000,01:32:42.30,17.20,-65.27,-991.62,140.0,-796.25,-350.0,1,94.587,
01/01/2000,01:32:42.31,17.20,-65.15,-991.62,218.75,-787.50,-288.75,1,94.602,
01/01/2000,01:32:42.33,17.08,-65.39,-991.86,148.75,-656.25,-385.0,1,94.618,
01/01/2000,01:32:42.34,17.08,-65.27,-991.86,148.75,-752.50,-350.0,1,94.633,
01/01/2000,01:32:42.35,17.08,-65.27,-991.74,192.50,-673.75,-323.75,1,94.648,
01/01/2000,01:32:42.36,17.08,-65.15,-991.62,183.75,-708.75,-358.75,1,94.663,
01/01/2000,01:32:42.37,17.08,-65.15,-991.62,192.50,-708.75,-262.50,1,94.678,
01/01/2000,01:32:42.38,16.35,-65.64,-991.86,0.0,-752.50,148.75,1,94.429,
01/01/2000,01:32:42.40,17.57,-65.03,-991.62,-455.0,-805.0,-761.25,1,94.444,
01/01/2000,01:32:42.41,17.32,-65.39,-991.37,682.50,-805.0,-78.75,1,94.460,
01/01/2000,01:32:42.42,17.32,-65.15,-991.25,-175.0,-700.0,-297.50,1,94.475,
01/01/2000,01:32:42.43,16.84,-65.51,-991.49,455.0,-805.0,-140.0,1,94.490,
01/01/2000,01:32:42.44,17.45,-65.39,-991.62,148.75,-621.25,-682.50,1,94.505,
01/01/2000,01:32:42.45,17.20,-65.64,-991.86,148.75,-743.75,-507.50,1,94.521,
01/01/2000,01:32:42.46,17.08,-65.64,-991.86,341.25,-691.25,-78.75,1,94.536,
01/01/2000,01:32:42.47,17.32,-65.15,-991.62,96.25,-682.50,-428.75,1,94.550,
01/01/2000,01:32:42.48,17.20,-65.64,-991.62,288.75,-770.0,-280.0,1,94.565,
01/01/2000,01:32:42.49,17.32,-65.64,-991.62,175.0,-735.0,-367.50,1,94.580,
01/01/2000,01:32:42.50,16.96,-65.64,-991.86,0.0,-603.75,-411.25,1,94.595,
01/01/2000,01:32:42.51,17.20,-65.39,-991.98,87.50,-577.50,-446.25,1,94.609,
01/01/2000,01:32:42.52,17.32,-65.39,-991.86,288.75,-665.0,-341.25,1,94.624,
01/01/2000,01:32:42.53,17.20,-65.15,-991.62,8.75,-778.75,-87.50,1,94.638,
01/01/2000,01:32:42.54,17.32,-65.39,-991.62,70.0,-743.75,-253.75,1,94.652,
01/01/2000,01:32:42.55,17.32,-65.39,-991.49,201.25,-743.75,-288.75,1,94.667,
01/01/2000,01:32:42.56,17.32,-65.51,-991.62,183.75,-700.0,-350.0,1,94.681,
01/01/2000,01:32:42.57,17.32,-65.39,-991.37,140.0,-612.50,-437.50,1,94.695,
01/01/2000,01:32:42.58,17.32,-65.27,-991.37,52.50,-735.0,-280.0,1,94.709,
01/01/2000,01:32:42.59,17.32,-65.15,-991.49,78.75,-630.0,-332.50,1,94.723,
01/01/2000,01:32:42.60,17.20,-65.64,-991.62,157.50,-700.0,-315.0,1,94.737,
01/01/2000,01:32:42.61,17.32,-65.64,-991.74,131.25,-586.25,-271.25,1,94.503,
01/01/2000,01:32:42.62,17.32,-65.39,-991.62,367.50,-726.25,-437.50,1,94.517,
01/01/2000,01:32:42.63,17.20,-65.39,-991.49,105.0,-717.50,-280.0,1,94.531,
01/01/2000,01:32:42.65,17.20,-65.27,-991.37,87.50,-665.0,-288.75,1,94.545,
01/01/2000,01:32:42.65,17.32,-65.27,-991.37,87.50,-656.25,-218.75,1,94.560,
01/01/2000,01:32:42.67,17.32,-65.27,-991.37,157.50,-682.50,-288.75,1,94.574,
01/01/2000,01:32:42.68,17.08,-65.39,-991.49,122.50,-752.50,-411.25,1,94.588,
01/01/2000,01:32:42.69,17.08,-65.39,-991.62,122.50,-656.25,-253.75,1,94.602,
01/01/2000,01:32:42.70,17.20,-65.39,-991.49,192.50,-761.25,-358.75,1,94.615,
01/01/2000,01:32:42.71,17.20,-65.39,-991.62,201.25,-700.0,-376.25,1,94.629,
01/01/2000,01:32:42.72,17.08,-65.39,-991.62,140.0,-586.25,-393.75,1,94.643,
01/01/2000,01:32:42.73,17.08,-65.51,-991.62,140.0,-796.25,-420.0,1,94.656,
01/01/2000,01:32:42.74,17.32,-65.39,-991.62,113.75,-656.25,-332.50,1,94.670,
01/01/2000,01:32:42.75,17.20,-65.51,-991.49,148.75,-726.25,-385.0,1,94.444,
01/01/2000,01:32:42.76,17.20,-65.39,-991.62,201.25,-796.25,-358.75,1,94.458,
01/01/2000,01:32:42.77,17.20,-65.39,-991.86,8.75,-735.0,-323.75,1,94.472,
01/01/2000,01:32:42.78,17.20,-65.39,-991.86,43.75,-778.75,-402.50,1,94.486,
01/01/2000,01:32:42.79,17.20,-65.27,-991.86,201.25,-603.75,-437.50,1,94.500,
01/01/2000,01:32:42.80,17.32,-65.27,-991.86,87.50,-656.25,-350.0,1,94.514,
01/01/2000,01:32:42.82,17.32,-65.15,-991.98,140.0,-638.75,-306.25,1,94.527,
01/01/2000,01:32:42.83,17.32,-65.39,-991.98,157.50,-665.0,-393.75,1,94.541,
01/01/2000,01:32:42.84,17.32,-65.39,-992.10,122.50,-752.50,-288.75,1,94.554,
01/01/2000,01:32:42.85,17.45,-65.39,-992.10,227.50,-665.0,-315.0,1,94.568,
01/01/2000,01:32:42.86,17.32,-65.39,-991.98,245.0,-770.0,-332.50,1,94.581,
01/01/2000,01:32:42.87,17.08,-65.39,-991.86,70.0,-560.0,-297.50,1,94.595,
01/01/2000,01:32:42.88,17.32,-65.27,-991.86,218.75,-700.0,-315.0,1,94.608,
01/01/2000,01:32:42.90,17.20,-65.39,-991.98,35.0,-577.50,-350.0,1,94.390,
01/01/2000,01:32:42.91,17.08,-65.39,-991.86,236.25,-630.0,-376.25,1,94.404,
01/01/2000,01:32:42.92,17.20,-65.15,-991.86,183.75,-691.25,-280.0,1,94.417,
01/01/2000,01:32:42.93,17.08,-65.27,-991.74,140.0,-656.25,-332.50,1,94.431,
01/01/2000,01:32:42.94,17.08,-65.27,-991.86,218.75,-673.75,-332.50,1,94.444,
01/01/2000,01:32:42.95,17.08,-65.15,-991.98,96.25,-805.0,-367.50,1,94.458,
01/01/2000,01:32:42.96,17.08,-65.27,-991.86,87.50,-708.75,-341.25,1,94.471,
01/01/2000,01:32:42.97,17.08,-65.15,-991.86,113.75,-700.0,-341.25,1,94.484,
01/01/2000,01:32:42.98,17.20,-65.27,-991.86,183.75,-761.25,-376.25,1,94.498,
01/01/2000,01:32:42.99,17.20,-65.39,-991.86,192.50,-647.50,-437.50,1,94.511,
01/01/2000,01:32:43.00,17.20,-65.51,-991.86,96.25,-665.0,-323.75,1,94.524,
01/01/2000,01:32:43.01,17.08,-65.64,-991.86,96.25,-726.25,-341.25,1,94.537,
01/01/2000,01:32:43.02,17.08,-65.39,-991.86,96.25,-673.75,-306.25,1,94.550,
01/01/2000,01:32:43.03,17.08,-65.27,-991.86,96.25,-743.75,-297.50,1,94.563,
01/01/2000,01:32:43.04,16.96,-65.15,-991.98,78.75,-603.75,-367.50,1,94.575,
01/01/2000,01:32:43.05,16.96,-65.39,-991.86,113.75,-743.75,-385.0,1,94.588,
01/01/2000,01:32:43.06,16.96,-65.27,-991.86,201.25,-735.0,-271.25,1,94.601,
01/01/2000,01:32:43.07,16.96,-65.39,-991.86,288.75,-665.0,-323.75,1,94.614,
01/01/2000,01:32:43.08,16.96,-65.27,-991.86,201.25,-743.75,-245.0,1,94.626,
01/01/2000,01:32:43.09,16.84,-65.27,-991.86,61.25,-682.50,-332.50,1,94.639,
01/01/2000,01:32:43.10,16.84,-65.27,-991.74,131.25,-787.50,-227.50,1,94.651,
01/01/2000,01:32:43.11,16.84,-65.27,-991.86,192.50,-665.0,-358.75,1,94.664,
01/01/2000,01:32:43.12,16.96,-65.39,-991.98,157.50,-665.0,-463.75,1,94.676,
01/01/2000,01:32:43.13,16.96,-65.27,-991.86,17.50,-673.75,-253.75,1,94.688,
01/01/2000,01:32:43.14,16.84,-65.39,-991.86,70.0,-708.75,-288.75,1,94.700,
01/01/2000,01:32:43.15,16.84,-65.39,-991.86,148.75,-673.75,-420.0,1,94.713,
01/01/2000,01:32:43.16,16.84,-65.27,-991.98,96.25,-691.25,-297.50,1,94.725,
01/01/2000,01:32:43.17,16.84,-65.39,-992.10,43.75,-717.50,-350.0,1,94.521,
01/01/2000,01:32:43.19,16.84,-65.39,-991.74,201.25,-787.50,-376.25,1,94.533,
01/01/2000,01:32:43.19,16.84,-65.51,-991.74,140.0,-700.0,-367.50,1,94.545,
01/01/2000,01:32:43.21,16.84,-65.51,-991.74,61.25,-743.75,-288.75,1,94.558,
01/01/2000,01:32:43.22,16.84,-65.39,-991.62,43.75,-735.0,-393.75,1,94.570,
01/01/2000,01:32:43.23,16.84,-65.51,-991.74,70.0,-638.75,-376.25,1,94.582,
01/01/2000,01:32:43.24,16.84,-65.64,-991.86,131.25,-726.25,-393.75,1,94.595,
01/01/2000,01:32:43.25,16.84,-65.64,-991.86,131.25,-761.25,-358.75,1,94.607,
01/01/2000,01:32:43.26,16.96,-65.39,-991.86,78.75,-726.25,-367.50,1,94.619,
01/01/2000,01:32:43.27,16.84,-65.51,-991.86,218.75,-673.75,-315.0,1,94.631,
01/01/2000,01:32:43.28,16.96,-65.51,-992.10,183.75,-656.25,-315.0,1,94.643,
01/01/2000,01:32:43.29,16.96,-65.39,-992.10,175.0,-656.25,-323.75,1,94.655,
01/01/2000,01:32:43.30,17.08,-65.51,-992.10,192.50,-682.50,-288.75,1,94.667,
01/01/2000,01:32:43.31,17.08,-65.64,-992.10,183.75,-691.25,-402.50,1,94.469,
01/01/2000,01:32:43.32,17.08,-65.76,-992.10,131.25,-752.50,-288.75,1,94.481,
01/01/2000,01:32:43.33,17.08,-65.64,-992.10,183.75,-665.0,-358.75,1,94.493,
01/01/2000,01:32:43.34,17.08,-65.64,-992.10,201.25,-691.25,-463.75,1,94.505,
01/01/2000,01:32:43.35,16.84,-65.39,-992.10,227.50,-621.25,-358.75,1,94.518,
01/01/2000,01:32:43.36,16.96,-65.51,-992.10,175.0,-656.25,-385.0,1,94.530,
01/01/2000,01:32:43.37,17.08,-65.64,-992.10,122.50,-717.50,-393.75,1,94.541,
01/01/2000,01:32:43.39,17.08,-65.51,-992.10,113.75,-603.75,-358.75,1,94.553,
01/01/2000,01:32:43.40,17.08,-65.39,-992.23,78.75,-630.0,-446.25,1,94.360,
01/01/2000,01:32:43.42,16.96,-65.51,-992.10,218.75,-647.50,-428.75,1,94.372,
01/01/2000,01:32:43.43,17.08,-65.51,-992.10,227.50,-638.75,-271.25,1,94.384,
01/01/2000,01:32:43.44,17.08,-65.39,-992.10,201.25,-708.75,-376.25,1,94.397,
01/01/2000,01:32:43.45,17.08,-65.39,-992.10,175.0,-787.50,-385.0,1,94.409,
01/01/2000,01:32:43.46,17.08,-65.51,-991.98,122.50,-691.25,-332.50,1,94.421,
01/01/2000,01:32:43.47,16.96,-65.64,-991.98,113.75,-603.75,-437.50,1,94.433,
01/01/2000,01:32:43.48,16.96,-65.39,-991.86,367.50,-682.50,-420.0,1,94.444,
01/01/2000,01:32:43.49,17.08,-65.39,-991.86,131.25,-813.75,-323.75,1,94.456,
01/01/2000,01:32:43.50,17.08,-65.39,-991.98,166.25,-647.50,-358.75,1,94.468,
01/01/2000,01:32:43.51,17.20,-65.51,-991.98,175.0,-708.75,-315.0,1,94.480,
01/01/2000,01:32:43.52,17.20,-65.64,-991.98,96.25,-630.0,-332.50,1,94.492,
01/01/2000,01:32:43.53,17.08,-65.76,-991.98,201.25,-656.25,-323.75,1,94.503,
01/01/2000,01:32:43.54,17.32,-65.64,-992.10,253.75,-735.0,-271.25,1,94.515,
01/01/2000,01:32:43.55,17.32,-65.64,-992.10,183.75,-726.25,-245.0,1,94.526,
01/01/2000,01:32:43.56,17.32,-65.64,-992.10,175.0,-726.25,-262.50,1,94.538,
01/01/2000,01:32:43.57,17.45,-65.64,-992.10,96.25,-665.0,-385.0,1,94.549,
01/01/2000,01:32:43.58,17.45,-65.64,-991.98,236.25,-770.0,-315.0,1,94.561,
01/01/2000,01:32:43.59,17.32,-65.64,-991.86,183.75,-691.25,-350.0,1,94.572,
01/01/2000,01:32:43.60,17.32,-65.39,-991.86,105.0,-726.25,-385.0,1,94.387,
01/01/2000,01:32:43.61,17.08,-65.39,-991.86,192.50,-717.50,-428.75,1,94.398,
01/01/2000,01:32:43.62,17.20,-65.15,-992.10,175.0,-638.75,-428.75,1,94.410,
01/01/2000,01:32:43.63,17.20,-65.27,-992.10,78.75,-656.25,-385.0,1,94.421,
01/01/2000,01:32:43.64,17.20,-65.27,-992.23,166.25,-770.0,-297.50,1,94.433,
01/01/2000,01:32:43.65,17.32,-65.39,-992.10,288.75,-647.50,-288.75,1,94.444,
01/01/2000,01:32:43.67,17.08,-65.51,-991.98,175.0,-682.50,-358.75,1,94.456,
01/01/2000,01:32:43.68,17.08,-65.51,-991.98,52.50,-673.75,-350.0,1,94.467,
01/01/2000,01:32:43.69,17.08,-65.39,-992.10,166.25,-700.0,-332.50,1,94.479,
01/01/2000,01:32:43.70,17.08,-65.39,-992.10,183.75,-673.75,-280.0,1,94.490,
01/01/2000,01:32:43.71,17.08,-65.27,-991.98,87.50,-621.25,-271.25,1,94.501,
01/01/2000,01:32:43.72,17.08,-65.51,-991.98,113.75,-586.25,-402.50,1,94.512,
01/01/2000,01:32:43.73,17.08,-65.64,-991.98,96.25,-665.0,-350.0,1,94.523,
01/01/2000,01:32:43.74,17.08,-65.51,-991.98,183.75,-673.75,-358.75,1,94.534,
01/01/2000,01:32:43.75,17.08,-65.39,-991.98,113.75,-735.0,-332.50,1,94.545,
01/01/2000,01:32:43.76,16.96,-65.39,-991.98,262.50,-787.50,-428.75,1,94.556,
01/01/2000,01:32:43.77,16.96,-65.51,-991.98,96.25,-638.75,-332.50,1,94.567,
01/01/2000,01:32:43.78,17.08,-65.76,-991.98,245.0,-735.0,-315.0,1,94.578,
01/01/2000,01:32:43.79,17.20,-65.64,-992.10,175.0,-708.75,-280.0,1,94.589,
01/01/2000,01:32:43.80,17.20,-65.88,-991.98,315.0,-761.25,-367.50,1,94.600,
01/01/2000,01:32:43.81,17.08,-65.88,-991.98,78.75,-778.75,-332.50,1,94.422,
01/01/2000,01:32:43.82,16.96,-65.76,-991.86,315.0,-656.25,-315.0,1,94.433,
01/01/2000,01:32:43.83,16.84,-65.64,-991.98,218.75,-673.75,-236.25,1,94.444,
01/01/2000,01:32:43.84,16.96,-65.51,-991.98,227.50,-621.25,-201.25,1,94.455,
01/01/2000,01:32:43.85,17.08,-65.64,-991.86,210.0,-700.0,-411.25,1,94.466,
01/01/2000,01:32:43.86,17.08,-65.76,-991.86,122.50,-743.75,-393.75,1,94.477,
01/01/2000,01:32:43.88,17.08,-65.76,-991.86,105.0,-726.25,-288.75,1,94.488,
01/01/2000,01:32:43.89,16.84,-65.51,-991.86,245.0,-761.25,-358.75,1,94.499,
01/01/2000,01:32:43.90,17.08,-65.39,-991.86,78.75,-656.25,-297.50,1,94.510,
01/01/2000,01:32:43.91,17.08,-65.39,-991.86,210.0,-612.50,-367.50,1,94.336,
01/01/2000,01:32:43.92,16.96,-65.51,-991.86,192.50,-778.75,-341.25,1,94.347,
01/01/2000,01:32:43.93,17.08,-65.64,-991.86,227.50,-673.75,-385.0,1,94.358,
01/01/2000,01:32:43.94,17.20,-65.39,-991.86,131.25,-770.0,-306.25,1,94.369,
01/01/2000,01:32:43.96,17.20,-65.39,-991.74,192.50,-603.75,-323.75,1,94.380,
01/01/2000,01:32:43.97,17.08,-65.27,-991.62,350.0,-752.50,-411.25,1,94.391,
01/01/2000,01:32:43.98,17.08,-65.51,-991.74,-26.25,-682.50,-245.0,1,94.402,
01/01/2000,01:32:43.99,16.10,-65.39,-978.81,-507.50,1426.25,-1330.0,1,94.412,
01/01/2000,01:32:44.00,6.71,-63.44,-949.40,96.25,-927.50,3508.75,1,94.423,
01/01/2000,01:32:44.01,6.10,-61.49,-948.79,-1225.0,-1995.0,-3132.50,1,94.434,
01/01/2000,01:32:44.02,17.20,-71.49,-996.74,1653.75,-1373.75,-3587.50,1,94.444,
01/01/2000,01:32:44.03,25.50,-70.76,-1031.39,-70.0,140.0,-1041.25,1,94.455,
01/01/2000,01:32:44.04,25.74,-68.81,-1044.44,446.25,78.75,2108.75,1,94.466,
01/01/2000,01:32:44.05,23.42,-60.27,-1021.63,-612.50,-140.0,-1207.50,1,94.476,
01/01/2000,01:32:44.06,19.28,-59.29,-995.28,420.0,-603.75,-813.75,1,94.487,
01/01/2000,01:32:44.07,16.47,-60.76,-975.27,-148.75,-1067.50,1750.0,1,94.497,
01/01/2000,01:32:44.08,15.01,-67.59,-969.90,341.25,-1260.0,857.50,1,94.508,
01/01/2000,01:32:44.09,17.81,-72.96,-988.44,157.50,-962.50,-2791.25,1,94.518,
01/01/2000,01:32:44.10,19.64,-71.49,-1002.84,183.75,-691.25,-3561.25,1,94.528,
01/01/2000,01:32:44.11,19.28,-65.27,-1007.11,26.25,-297.50,-927.50,1,94.539,
01/01/2000,01:32:44.12,17.32,-59.29,-1002.35,43.75,-376.25,1627.50,1,94.549,
01/01/2000,01:32:44.13,15.49,-57.71,-988.93,-218.75,-551.25,743.75,1,94.559,
01/01/2000,01:32:44.14,15.62,-63.32,-982.71,455.0,-822.50,411.25,1,94.569,
01/01/2000,01:32:44.15,16.71,-69.05,-982.71,236.25,-962.50,-393.75,1,94.579,
01/01/2000,01:32:44.16,18.91,-73.20,-990.88,332.50,-883.75,-1898.75,1,94.590,
01/01/2000,01:32:44.17,19.03,-70.03,-995.03,157.50,-595.0,-1995.0,1,94.600,
01/01/2000,01:32:44.18,17.57,-63.81,-994.79,122.50,-551.25,-743.75,1,94.610,
01/01/2000,01:32:44.19,15.86,-59.05,-991.62,262.50,-507.50,910.0,1,94.620,
01/01/2000,01:32:44.20,14.88,-57.95,-988.93,0.0,-490.0,1750.0,1,94.630,
01/01/2000,01:32:44.21,15.98,-64.66,-988.69,131.25,-691.25,813.75,1,94.640,
01/01/2000,01:32:44.22,18.30,-71.37,-991.49,236.25,-866.25,-1732.50,1,94.475,
01/01/2000,01:32:44.23,18.79,-71.00,-991.98,183.75,-822.50,-2406.25,1,94.485,
01/01/2000,01:32:44.24,18.18,-67.95,-990.88,113.75,-726.25,-1321.25,1,94.495,
01/01/2000,01:32:44.25,16.84,-63.32,-989.91,-8.75,-743.75,472.50,1,94.505,
01/01/2000,01:32:44.26,15.74,-60.51,-990.40,105.0,-621.25,1015.0,1,94.516,
01/01/2000,01:32:44.27,15.62,-62.59,-991.74,306.25,-533.75,525.0,1,94.526,
01/01/2000,01:32:44.28,16.23,-66.12,-992.84,131.25,-621.25,-332.50,1,94.536,
01/01/2000,01:32:44.30,17.81,-69.54,-991.74,35.0,-805.0,-1207.50,1,94.545,
01/01/2000,01:32:44.31,18.30,-69.05,-990.15,262.50,-752.50,-945.0,1,94.555,
01/01/2000,01:32:44.32,18.06,-66.37,-989.66,148.75,-901.25,-61.25,1,94.565,
01/01/2000,01:32:44.33,16.59,-63.32,-991.25,105.0,-726.25,166.25,1,94.575,
01/01/2000,01:32:44.34,15.98,-62.83,-992.71,183.75,-507.50,201.25,1,94.585,
01/01/2000,01:32:44.35,15.74,-63.93,-993.45,122.50,-595.0,-175.0,1,94.595,
01/01/2000,01:32:44.36,16.84,-66.49,-991.86,52.50,-638.75,-875.0,1,94.434,
01/01/2000,01:32:44.37,17.69,-67.34,-990.15,105.0,-761.25,-472.50,1,94.444,
01/01/2000,01:32:44.38,18.30,-67.10,-989.79,253.75,-848.75,-463.75,1,94.454,
01/01/2000,01:32:44.39,17.69,-65.88,-991.13,183.75,-848.75,-271.25,1,94.464,
01/01/2000,01:32:44.40,16.59,-64.90,-992.84,105.0,-647.50,-271.25,1,94.474,
01/01/2000,01:32:44.41,15.86,-64.42,-993.81,262.50,-586.25,-227.50,1,94.484,
01/01/2000,01:32:44.43,16.47,-64.90,-991.86,166.25,-586.25,-87.50,1,94.494,
01/01/2000,01:32:44.44,17.69,-66.61,-990.64,87.50,-822.50,-315.0,1,94.504,
01/01/2000,01:32:44.45,17.93,-67.22,-991.13,61.25,-770.0,-507.50,1,94.346,
01/01/2000,01:32:44.46,17.57,-66.86,-992.10,210.0,-656.25,-656.25,1,94.523,
01/01/2000,01:32:44.47,16.84,-65.88,-992.96,367.50,-831.25,-481.25,1,94.366,
01/01/2000,01:32:44.48,16.10,-64.66,-992.84,166.25,-612.50,-227.50,1,94.376,
01/01/2000,01:32:44.49,16.10,-63.81,-992.10,113.75,-630.0,-96.25,1,94.386,
01/01/2000,01:32:44.50,16.84,-64.66,-991.37,192.50,-665.0,-52.50,1,94.396,
01/01/2000,01:32:44.51,17.69,-66.12,-991.49,245.0,-752.50,-245.0,1,94.406,
01/01/2000,01:32:44.52,17.57,-67.47,-992.10,96.25,-603.75,-437.50,1,94.415,
01/01/2000,01:32:44.53,16.96,-67.10,-992.35,166.25,-621.25,-621.25,1,94.425,
01/01/2000,01:32:44.54,16.71,-65.76,-992.10,105.0,-673.75,-455.0,1,94.435,
01/01/2000,01:32:44.55,16.47,-64.42,-991.98,166.25,-752.50,-192.50,1,94.444,
01/01/2000,01:32:44.56,16.59,-64.05,-991.86,175.0,-691.25,-35.0,1,94.454,
01/01/2000,01:32:44.58,16.96,-65.39,-992.10,183.75,-717.50,-297.50,1,94.464,
01/01/2000,01:32:44.59,17.20,-66.98,-992.10,210.0,-691.25,-455.0,1,94.473,
01/01/2000,01:32:44.60,17.20,-66.98,-991.86,43.75,-761.25,-568.75,1,94.483,
01/01/2000,01:32:44.61,17.08,-66.37,-991.74,192.50,-743.75,-542.50,1,94.492,
01/01/2000,01:32:44.62,17.08,-65.27,-991.86,297.50,-700.0,-201.25,1,94.502,
01/01/2000,01:32:44.63,16.84,-64.42,-992.23,105.0,-743.75,-61.25,1,94.511,
01/01/2000,01:32:44.64,16.71,-64.66,-992.35,87.50,-542.50,-148.75,1,94.521,
01/01/2000,01:32:44.65,16.84,-66.12,-991.86,96.25,-735.0,-323.75,1,94.530,
01/01/2000,01:32:44.66,17.08,-66.61,-991.49,183.75,-656.25,-455.0,1,94.539,
01/01/2000,01:32:44.67,17.45,-66.37,-991.13,148.75,-691.25,-568.75,1,94.549,
01/01/2000,01:32:44.68,17.57,-65.64,-991.25,148.75,-726.25,-376.25,1,94.558,
01/01/2000,01:32:44.69,17.08,-64.90,-992.10,70.0,-647.50,-245.0,1,94.567,
01/01/2000,01:32:44.70,16.84,-65.15,-992.35,227.50,-673.75,-358.75,1,94.576,
01/01/2000,01:32:44.71,16.84,-65.15,-992.35,61.25,-665.0,-323.75,1,94.585,
01/01/2000,01:32:44.73,17.20,-65.64,-991.74,201.25,-778.75,-367.50,1,94.435,
01/01/2000,01:32:44.74,17.45,-65.76,-991.62,183.75,-778.75,-350.0,1,94.444,
01/01/2000,01:32:44.75,17.57,-65.88,-991.98,183.75,-708.75,-297.50,1,94.454,
01/01/2000,01:32:44.76,17.32,-65.51,-992.23,183.75,-691.25,-402.50,1,94.463,
01/01/2000,01:32:44.77,17.08,-65.39,-992.47,8.75,-595.0,-297.50,1,94.472,
01/01/2000,01:32:44.78,16.96,-65.15,-992.47,218.75,-708.75,-306.25,1,94.482,
01/01/2000,01:32:44.79,17.08,-65.39,-992.10,288.75,-778.75,-183.75,1,94.491,
01/01/2000,01:32:44.80,17.20,-65.64,-991.98,140.0,-656.25,-306.25,1,94.500,
01/01/2000,01:32:44.81,17.32,-66.25,-991.86,122.50,-665.0,-455.0,1,94.509,
01/01/2000,01:32:44.82,17.08,-65.88,-992.10,70.0,-796.25,-341.25,1,94.518,
01/01/2000,01:32:44.83,16.96,-65.64,-992.35,78.75,-761.25,-402.50,1,94.527,
01/01/2000,01:32:44.84,16.71,-65.15,-992.23,70.0,-656.25,-245.0,1,94.536,
01/01/2000,01:32:44.85,16.71,-65.03,-992.10,140.0,-568.75,-227.50,1,94.545,
01/01/2000,01:32:44.86,16.96,-65.64,-991.98,0.0,-761.25,-262.50,1,94.399,
01/01/2000,01:32:44.87,17.20,-66.12,-992.10,166.25,-673.75,-323.75,1,94.408,
01/01/2000,01:32:44.88,17.20,-66.37,-991.98,113.75,-638.75,-551.25,1,94.417,
01/01/2000,01:32:44.89,16.96,-65.88,-991.98,358.75,-682.50,-437.50,1,94.426,
01/01/2000,01:32:44.90,16.96,-65.51,-991.98,253.75,-665.0,-437.50,1,94.435,
01/01/2000,01:32:44.91,16.84,-65.03,-992.10,43.75,-673.75,-122.50,1,94.444,
01/01/2000,01:32:44.92,16.84,-65.27,-992.10,201.25,-612.50,-227.50,1,94.454,
01/01/2000,01:32:44.94,17.08,-65.88,-992.10,192.50,-682.50,-376.25,1,94.463,
01/01/2000,01:32:44.95,17.20,-66.00,-991.86,166.25,-612.50,-472.50,1,94.318,
01/01/2000,01:32:44.96,17.08,-65.88,-991.62,175.0,-700.0,-358.75,1,94.327,
01/01/2000,01:32:44.97,16.96,-65.27,-991.62,113.75,-595.0,-323.75,1,94.337,
01/01/2000,01:32:44.98,16.84,-65.39,-991.86,288.75,-586.25,-411.25,1,94.346,
01/01/2000,01:32:44.99,16.96,-65.27,-991.98,-17.50,-708.75,-350.0,1,94.355,
01/01/2000,01:32:45.00,17.08,-65.64,-992.10,140.0,-717.50,-253.75,1,94.364,
01/01/2000,01:32:45.01,17.20,-65.76,-991.86,227.50,-603.75,-271.25,1,94.373,
01/01/2000,01:32:45.02,16.96,-65.88,-991.86,210.0,-805.0,-481.25,1,94.382,
01/01/2000,01:32:45.03,17.08,-65.64,-991.86,140.0,-595.0,-332.50,1,94.391,
01/01/2000,01:32:45.04,17.08,-65.39,-992.35,166.25,-761.25,-315.0,1,94.400,
01/01/2000,01:32:45.05,17.08,-65.39,-992.47,183.75,-665.0,-201.25,1,94.409,
01/01/2000,01:32:45.06,17.08,-65.39,-992.23,218.75,-647.50,-332.50,1,94.418,
01/01/2000,01:32:45.08,17.20,-65.64,-991.86,218.75,-647.50,-411.25,1,94.427,
01/01/2000,01:32:45.09,17.20,-65.88,-991.74,192.50,-682.50,-350.0,1,94.436,
01/01/2000,01:32:45.10,17.20,-65.88,-991.86,140.0,-638.75,-437.50,1,94.444,
01/01/2000,01:32:45.11,17.08,-65.88,-991.98,140.0,-726.25,-385.0,1,94.453,
01/01/2000,01:32:45.12,16.96,-65.51,-992.10,87.50,-752.50,-227.50,1,94.462,
01/01/2000,01:32:45.13,16.84,-65.39,-991.98,113.75,-630.0,-428.75,1,94.471,
01/01/2000,01:32:45.14,16.84,-65.51,-991.86,113.75,-638.75,-288.75,1,94.479,
01/01/2000,01:32:45.15,16.96,-65.76,-991.86,236.25,-752.50,-367.50,1,94.488,
01/01/2000,01:32:45.16,16.96,-65.88,-991.86,96.25,-691.25,-280.0,1,94.497,
01/01/2000,01:32:45.17,16.96,-65.88,-991.98,227.50,-682.50,-306.25,1,94.505,
01/01/2000,01:32:45.18,16.84,-65.64,-992.10,52.50,-647.50,-358.75,1,94.514,
01/01/2000,01:32:45.19,16.84,-65.64,-992.10,253.75,-638.75,-393.75,1,94.523,
01/01/2000,01:32:45.20,16.84,-65.39,-992.10,26.25,-682.50,-315.0,1,94.531,
01/01/2000,01:32:45.21,17.08,-65.88,-992.35,105.0,-708.75,-323.75,1,94.393,
01/01/2000,01:32:45.22,17.20,-66.12,-992.10,157.50,-586.25,-367.50,1,94.401,
01/01/2000,01:32:45.23,17.20,-66.12,-992.10,61.25,-656.25,-358.75,1,94.410,
01/01/2000,01:32:45.24,17.08,-65.76,-992.35,183.75,-743.75,-323.75,1,94.419,
01/01/2000,01:32:45.25,16.84,-65.64,-992.35,78.75,-586.25,-393.75,1,94.427,
01/01/2000,01:32:45.26,16.96,-65.39,-992.59,26.25,-682.50,-297.50,1,94.436,
01/01/2000,01:32:45.27,16.96,-65.64,-992.47,140.0,-726.25,-271.25,1,94.444,
01/01/2000,01:32:45.29,17.08,-65.88,-992.35,210.0,-682.50,-446.25,1,94.453,
01/01/2000,01:32:45.30,16.96,-66.00,-992.23,183.75,-708.75,-437.50,1,94.462,
01/01/2000,01:32:45.31,16.96,-65.76,-992.23,140.0,-682.50,-428.75,1,94.470,
01/01/2000,01:32:45.32,16.96,-65.64,-992.23,192.50,-665.0,-245.0,1,94.479,
01/01/2000,01:32:45.33,16.84,-65.51,-992.35,96.25,-682.50,-323.75,1,94.487,
01/01/2000,01:32:45.34,16.84,-65.51,-992.35,113.75,-691.25,-262.50,1,94.495,
01/01/2000,01:32:45.35,16.96,-65.76,-992.35,210.0,-743.75,-411.25,1,94.360,
01/01/2000,01:32:45.36,17.20,-65.88,-992.23,175.0,-735.0,-481.25,1,94.368,
01/01/2000,01:32:45.37,17.08,-65.88,-992.10,-87.50,-717.50,-245.0,1,94.377,
01/01/2000,01:32:45.38,17.08,-66.00,-992.10,236.25,-656.25,-341.25,1,94.385,
01/01/2000,01:32:45.39,16.96,-65.88,-992.10,210.0,-796.25,-297.50,1,94.394,
01/01/2000,01:32:45.40,17.08,-65.51,-992.23,70.0,-665.0,-420.0,1,94.402,
01/01/2000,01:32:45.41,17.08,-65.51,-992.10,52.50,-796.25,-297.50,1,94.411,
01/01/2000,01:32:45.43,17.20,-65.64,-992.10,122.50,-700.0,-245.0,1,94.419,
01/01/2000,01:32:45.44,17.08,-65.76,-992.10,148.75,-726.25,-227.50,1,94.428,
01/01/2000,01:32:45.45,17.20,-65.88,-992.10,70.0,-752.50,-323.75,1,94.436,
01/01/2000,01:32:45.46,17.20,-65.76,-992.10,218.75,-595.0,-262.50,1,94.444,
01/01/2000,01:32:45.47,17.08,-65.39,-992.10,201.25,-638.75,-358.75,1,94.453,
01/01/2000,01:32:45.48,17.20,-65.51,-991.98,306.25,-595.0,-297.50,1,94.461,
01/01/2000,01:32:45.49,17.20,-65.51,-991.86,105.0,-717.50,-350.0,1,94.328,
01/01/2000,01:32:45.50,17.08,-65.64,-991.86,35.0,-743.75,-288.75,1,94.337,
01/01/2000,01:32:45.51,17.20,-65.88,-991.86,166.25,-665.0,-358.75,1,94.345,
01/01/2000,01:32:45.52,17.08,-65.76,-991.86,175.0,-805.0,-280.0,1,94.354,
01/01/2000,01:32:45.53,17.08,-65.64,-991.98,122.50,-603.75,-323.75,1,94.362,
01/01/2000,01:32:45.54,17.08,-65.76,-991.98,262.50,-673.75,-367.50,1,94.370,
01/01/2000,01:32:45.55,17.08,-65.51,-992.10,140.0,-682.50,-175.0,1,94.379,
01/01/2000,01:32:45.56,17.08,-65.39,-991.98,175.0,-673.75,-376.25,1,94.387,
01/01/2000,01:32:45.57,17.08,-65.64,-991.86,358.75,-778.75,-411.25,1,94.395,
01/01/2000,01:32:45.58,17.08,-65.51,-991.86,253.75,-638.75,-358.75,1,94.404,
01/01/2000,01:32:45.59,17.08,-65.51,-991.86,166.25,-778.75,-253.75,1,94.412,
01/01/2000,01:32:45.60,16.96,-65.39,-991.86,35.0,-708.75,-315.0,1,94.420,
01/01/2000,01:32:45.62,16.96,-65.39,-991.86,87.50,-708.75,-358.75,1,94.428,
01/01/2000,01:32:45.62,16.96,-65.51,-991.86,166.25,-691.25,-420.0,1,94.436,
01/01/2000,01:32:45.64,16.96,-65.64,-991.86,140.0,-708.75,-262.50,1,94.444,
01/01/2000,01:32:45.65,16.84,-65.88,-991.86,157.50,-673.75,-385.0,1,94.453,
01/01/2000,01:32:45.66,16.84,-65.64,-991.86,35.0,-743.75,-385.0,1,94.461,
01/01/2000,01:32:45.67,16.96,-65.51,-991.86,105.0,-595.0,-236.25,1,94.469,
01/01/2000,01:32:45.68,17.08,-65.64,-992.10,245.0,-568.75,-323.75,1,94.477,
01/01/2000,01:32:45.69,16.96,-65.64,-991.98,78.75,-761.25,-367.50,1,94.485,
01/01/2000,01:32:45.70,16.96,-65.39,-991.98,78.75,-612.50,-271.25,1,94.493,
01/01/2000,01:32:45.71,16.96,-65.64,-992.10,201.25,-682.50,-227.50,1,94.364,
01/01/2000,01:32:45.72,16.96,-65.64,-992.10,236.25,-743.75,-428.75,1,94.372,
01/01/2000,01:32:45.73,16.84,-65.64,-991.98,113.75,-796.25,-350.0,1,94.380,
01/01/2000,01:32:45.74,16.96,-65.64,-991.86,148.75,-691.25,-358.75,1,94.388,
01/01/2000,01:32:45.75,16.96,-65.88,-991.98,218.75,-717.50,-402.50,1,94.397,
01/01/2000,01:32:45.76,17.20,-65.88,-991.98,166.25,-770.0,-262.50,1,94.405,
01/01/2000,01:32:45.78,17.20,-65.76,-991.98,175.0,-656.25,-297.50,1,94.413,
01/01/2000,01:32:45.79,17.20,-65.76,-991.86,148.75,-691.25,-358.75,1,94.421,
01/01/2000,01:32:45.80,17.08,-65.76,-991.98,175.0,-726.25,-332.50,1,94.429,
01/01/2000,01:32:45.81,17.08,-65.64,-992.10,131.25,-647.50,-332.50,1,94.437,
01/01/2000,01:32:45.82,17.08,-65.76,-992.10,280.0,-778.75,-315.0,1,94.444,
01/01/2000,01:32:45.83,17.08,-65.64,-991.98,122.50,-752.50,-402.50,1,94.452,
01/01/2000,01:32:45.84,17.08,-65.51,-992.10,210.0,-621.25,-420.0,1,94.460,
01/01/2000,01:32:45.85,17.08,-65.39,-992.10,210.0,-638.75,-323.75,1,94.468,
01/01/2000,01:32:45.86,16.96,-65.64,-992.23,218.75,-665.0,-393.75,1,94.476,
01/01/2000,01:32:45.87,17.08,-65.76,-992.35,157.50,-717.50,-376.25,1,94.484,
01/01/2000,01:32:45.88,17.08,-65.64,-992.23,175.0,-770.0,-210.0,1,94.492,
01/01/2000,01:32:45.89,17.20,-65.76,-991.98,271.25,-770.0,-428.75,1,94.499,
01/01/2000,01:32:45.90,17.08,-65.64,-991.98,210.0,-735.0,-376.25,1,94.507,
01/01/2000,01:32:45.91,17.08,-65.64,-992.10,70.0,-761.25,-323.75,1,94.515,
01/01/2000,01:32:45.92,16.96,-65.64,-992.10,52.50,-647.50,-341.25,1,94.390,
01/01/2000,01:32:45.93,16.84,-65.76,-992.10,166.25,-700.0,-306.25,1,94.398,
01/01/2000,01:32:45.94,16.84,-65.51,-992.10,87.50,-673.75,-428.75,1,94.406,
01/01/2000,01:32:45.96,16.84,-65.51,-991.98,157.50,-787.50,-236.25,1,94.413,
01/01/2000,01:32:45.97,16.96,-65.27,-991.98,245.0,-656.25,-306.25,1,94.421,
01/01/2000,01:32:45.98,16.84,-65.39,-992.10,113.75,-691.25,-350.0,1,94.429,
01/01/2000,01:32:45.99,16.96,-65.39,-992.23,253.75,-726.25,-350.0,1,94.437,
01/01/2000,01:32:46.00,16.84,-65.51,-992.10,262.50,-752.50,-332.50,1,94.444,
01/01/2000,01:32:46.01,16.84,-65.51,-991.86,113.75,-638.75,-385.0,1,94.452,
01/01/2000,01:32:46.02,16.84,-65.27,-991.86,43.75,-682.50,-385.0,1,94.460,
01/01/2000,01:32:46.03,16.96,-65.51,-991.98,227.50,-726.25,-350.0,1,94.467,
01/01/2000,01:32:46.04,16.96,-65.39,-992.23,183.75,-700.0,-350.0,1,94.475,
01/01/2000,01:32:46.05,16.96,-65.64,-992.47,131.25,-656.25,-323.75,1,94.353,
01/01/2000,01:32:46.06,17.08,-65.64,-992.35,87.50,-726.25,-446.25,1,94.360,
01/01/2000,01:32:46.07,17.08,-65.51,-992.23,166.25,-656.25,-227.50,1,94.368,
01/01/2000,01:32:46.08,17.08,-65.39,-992.10,43.75,-717.50,-393.75,1,94.376,
01/01/2000,01:32:46.09,17.08,-65.64,-992.23,262.50,-647.50,-280.0,1,94.384,
01/01/2000,01:32:46.10,16.96,-65.64,-992.35,131.25,-787.50,-341.25,1,94.391,
01/01/2000,01:32:46.11,17.08,-65.76,-992.35,70.0,-735.0,-192.50,1,94.399,
01/01/2000,01:32:46.12,17.20,-65.64,-992.23,131.25,-656.25,-332.50,1,94.407,
01/01/2000,01:32:46.14,17.32,-65.51,-992.10,288.75,-717.50,-280.0,1,94.414,
01/01/2000,01:32:46.15,17.32,-65.51,-992.10,35.0,-673.75,-271.25,1,94.422,
01/01/2000,01:32:46.16,17.32,-65.51,-992.10,183.75,-743.75,-358.75,1,94.429,
01/01/2000,01:32:46.17,17.08,-65.64,-992.23,157.50,-743.75,-385.0,1,94.437,
01/01/2000,01:32:46.18,16.96,-65.51,-992.35,227.50,-717.50,-420.0,1,94.444,
01/01/2000,01:32:46.19,17.08,-65.27,-992.23,201.25,-726.25,-288.75,1,94.452,
01/01/2000,01:32:46.20,17.32,-65.39,-992.10,122.50,-638.75,-306.25,1,94.459,
01/01/2000,01:32:46.21,17.32,-65.51,-992.10,87.50,-708.75,-367.50,1,94.467,
01/01/2000,01:32:46.22,17.20,-65.64,-992.23,166.25,-656.25,-358.75,1,94.474,
01/01/2000,01:32:46.23,17.32,-65.64,-992.23,175.0,-612.50,-350.0,1,94.482,
01/01/2000,01:32:46.24,17.32,-65.64,-992.10,122.50,-717.50,-253.75,1,94.489,
01/01/2000,01:32:46.25,17.32,-65.64,-991.86,0.0,-770.0,-332.50,1,94.497,
01/01/2000,01:32:46.26,17.08,-65.64,-991.74,157.50,-673.75,-376.25,1,94.378,
01/01/2000,01:32:46.28,16.96,-65.64,-991.98,192.50,-787.50,-288.75,1,94.385,
01/01/2000,01:32:46.29,16.96,-65.64,-992.10,113.75,-778.75,-323.75,1,94.393,
01/01/2000,01:32:46.30,16.96,-65.64,-992.10,148.75,-761.25,-332.50,1,94.400,
01/01/2000,01:32:46.31,16.84,-65.51,-991.86,148.75,-665.0,-393.75,1,94.407,
01/01/2000,01:32:46.32,16.96,-65.39,-991.74,218.75,-805.0,-315.0,1,94.415,
01/01/2000,01:32:46.33,16.96,-65.51,-991.74,52.50,-682.50,-315.0,1,94.422,
01/01/2000,01:32:46.34,16.96,-65.64,-991.86,227.50,-647.50,-253.75,1,94.430,
01/01/2000,01:32:46.35,17.08,-65.76,-991.86,175.0,-682.50,-428.75,1,94.437,
01/01/2000,01:32:46.36,16.96,-65.51,-991.86,-70.0,-682.50,-332.50,1,94.444,
01/01/2000,01:32:46.37,16.84,-65.64,-991.86,87.50,-673.75,-376.25,1,94.452,
01/01/2000,01:32:46.38,17.08,-65.64,-991.86,148.75,-638.75,-446.25,1,94.459,
01/01/2000,01:32:46.39,17.08,-65.51,-991.98,0.0,-630.0,-297.50,1,94.466,
01/01/2000,01:32:46.40,17.32,-65.76,-991.98,315.0,-621.25,-341.25,1,94.474,
01/01/2000,01:32:46.41,17.20,-65.76,-991.98,175.0,-630.0,-385.0,1,94.357,
01/01/2000,01:32:46.42,17.08,-65.88,-991.98,306.25,-726.25,-446.25,1,94.364,
01/01/2000,01:32:46.43,17.20,-65.76,-992.10,227.50,-735.0,-280.0,1,94.372,
01/01/2000,01:32:46.44,17.08,-65.64,-992.10,201.25,-700.0,-376.25,1,94.379,
01/01/2000,01:32:46.45,17.20,-65.88,-992.10,148.75,-647.50,-428.75,1,94.386,
01/01/2000,01:32:46.46,17.20,-66.00,-991.98,192.50,-778.75,-350.0,1,94.394,
01/01/2000,01:32:46.48,17.20,-65.76,-991.98,166.25,-577.50,-315.0,1,94.401,
01/01/2000,01:32:46.49,17.08,-65.64,-992.10,166.25,-848.75,-183.75,1,94.286,
01/01/2000,01:32:46.50,17.20,-65.76,-992.10,192.50,-673.75,-323.75,1,94.293,
01/01/2000,01:32:46.51,17.08,-65.64,-992.10,78.75,-700.0,-288.75,1,94.301,
01/01/2000,01:32:46.52,17.32,-65.88,-991.86,227.50,-700.0,-446.25,1,94.308,
01/01/2000,01:32:46.53,17.32,-65.76,-991.86,280.0,-708.75,-385.0,1,94.315,
01/01/2000,01:32:46.54,17.32,-65.64,-991.86,61.25,-743.75,-297.50,1,94.323,
01/01/2000,01:32:46.55,17.32,-65.39,-991.86,113.75,-708.75,-350.0,1,94.330,
01/01/2000,01:32:46.56,16.96,-65.64,-991.86,183.75,-612.50,-341.25,1,94.337,
01/01/2000,01:32:46.57,16.96,-65.64,-991.86,43.75,-682.50,-288.75,1,94.344,
01/01/2000,01:32:46.58,17.08,-65.64,-991.86,35.0,-595.0,-376.25,1,94.352,
01/01/2000,01:32:46.60,17.20,-65.64,-991.74,131.25,-682.50,-271.25,1,94.359,
01/01/2000,01:32:46.60,17.32,-65.51,-991.62,280.0,-796.25,-358.75,1,94.366,
01/01/2000,01:32:46.62,17.08,-65.64,-991.62,113.75,-647.50,-253.75,1,94.373,
01/01/2000,01:32:46.63,16.96,-65.64,-991.62,96.25,-568.75,-358.75,1,94.381,
01/01/2000,01:32:46.64,16.96,-65.51,-991.74,376.25,-673.75,-218.75,1,94.388,
01/01/2000,01:32:46.65,17.20,-65.39,-991.74,35.0,-700.0,-245.0,1,94.395,
01/01/2000,01:32:46.66,17.32,-65.51,-991.86,201.25,-735.0,-358.75,1,94.402,
01/01/2000,01:32:46.67,17.20,-65.64,-991.86,131.25,-761.25,-288.75,1,94.409,
01/01/2000,01:32:46.68,17.32,-65.64,-991.86,245.0,-787.50,-376.25,1,94.416,
01/01/2000,01:32:46.69,17.20,-65.64,-991.86,148.75,-700.0,-437.50,1,94.423,
01/01/2000,01:32:46.70,17.08,-65.39,-991.86,183.75,-621.25,-358.75,1,94.311,
01/01/2000,01:32:46.71,17.20,-65.39,-991.86,52.50,-770.0,-376.25,1,94.318,
01/01/2000,01:32:46.72,17.08,-65.51,-991.74,201.25,-752.50,-315.0,1,94.325,
01/01/2000,01:32:46.73,17.20,-65.39,-991.86,43.75,-726.25,-367.50,1,94.332,
01/01/2000,01:32:46.74,17.20,-65.39,-991.86,166.25,-595.0,-350.0,1,94.340,
01/01/2000,01:32:46.75,17.08,-65.15,-991.98,140.0,-700.0,-411.25,1,94.347,
01/01/2000,01:32:46.76,17.20,-65.27,-991.98,271.25,-717.50,-332.50,1,94.354,
01/01/2000,01:32:46.78,17.08,-64.66,-991.74,105.0,-638.75,-78.75,1,94.361,
01/01/2000,01:32:46.79,17.08,-63.93,-991.86,61.25,-708.75,61.25,1,94.368,
01/01/2000,01:32:46.80,16.96,-62.46,-991.86,140.0,-682.50,437.50,1,94.375,
01/01/2000,01:32:46.81,16.71,-59.05,-992.23,61.25,-665.0,1295.0,1,94.382,
01/01/2000,01:32:46.82,16.59,-57.46,-992.10,253.75,-560.0,3307.50,1,94.389,
01/01/2000,01:32:46.83,15.86,-56.12,-992.59,157.50,-463.75,4620.0,1,94.396,
01/01/2000,01:32:46.84,15.98,-58.93,-992.59,87.50,-341.25,6448.75,1,94.403,
01/01/2000,01:32:46.85,16.35,-60.51,-992.59,43.75,-428.75,7595.0,1,94.410,
01/01/2000,01:32:46.86,17.08,-62.22,-992.10,183.75,-350.0,8688.75,1,94.417,
01/01/2000,01:32:46.87,17.32,-63.07,-991.62,148.75,-253.75,9870.0,1,94.424,
01/01/2000,01:32:46.88,17.08,-61.85,-991.74,96.25,-385.0,10570.0,1,94.431,
01/01/2000,01:32:46.89,16.59,-59.17,-992.10,157.50,-201.25,11646.25,1,94.438,
01/01/2000,01:32:46.90,16.10,-56.97,-992.84,52.50,-192.50,12880.0,1,94.444,
01/01/2000,01:32:46.92,15.86,-54.17,-992.84,-245.0,-52.50,15303.75,1,94.335,
01/01/2000,01:32:46.93,16.10,-53.68,-992.35,70.0,-70.0,17307.50,1,94.342,
01/01/2000,01:32:46.94,16.35,-53.68,-991.86,122.50,183.75,20457.50,1,94.349,
01/01/2000,01:32:46.95,16.59,-55.51,-991.74,-52.50,87.50,21743.75,1,94.356,
01/01/2000,01:32:46.96,16.59,-57.10,-991.86,96.25,280.0,22365.0,1,94.363,
01/01/2000,01:32:46.97,16.59,-58.44,-992.35,192.50,288.75,22828.75,1,94.370,
01/01/2000,01:32:46.98,16.71,-58.80,-991.98,157.50,175.0,22872.50,1,94.377,
01/01/2000,01:32:46.99,16.96,-58.44,-991.86,35.0,157.50,22251.25,1,94.268,
01/01/2000,01:32:47.00,17.08,-58.80,-992.10,61.25,175.0,21682.50,1,94.275,
01/01/2000,01:32:47.01,16.71,-59.66,-992.35,-8.75,148.75,20615.0,1,94.282,
01/01/2000,01:32:47.02,16.59,-61.98,-992.47,96.25,96.25,18698.75,1,94.289,
01/01/2000,01:32:47.03,16.96,-65.15,-992.35,210.0,-26.25,15128.75,1,94.296,
01/01/2000,01:32:47.04,17.45,-68.20,-991.86,-43.75,-306.25,12853.75,1,94.303,
01/01/2000,01:32:47.06,17.81,-68.93,-991.25,52.50,-218.75,11322.50,1,94.310,
01/01/2000,01:32:47.07,17.69,-69.05,-991.01,78.75,-332.50,10622.50,1,94.317,
01/01/2000,01:32:47.08,17.32,-67.59,-991.62,-26.25,-253.75,10911.25,1,94.324,
01/01/2000,01:32:47.09,16.84,-66.73,-991.98,218.75,-192.50,12066.25,1,94.331,
01/01/2000,01:32:47.10,16.84,-66.25,-992.35,61.25,-35.0,13580.0,1,94.337,
01/01/2000,01:32:47.11,16.84,-65.76,-992.23,-122.50,-26.25,15330.0,1,94.344,
01/01/2000,01:32:47.12,17.20,-67.10,-991.74,78.75,-35.0,16616.25,1,94.351,
01/01/2000,01:32:47.13,17.32,-70.27,-991.25,70.0,-52.50,15995.0,1,94.358,
01/01/2000,01:32:47.14,17.45,-73.32,-991.25,87.50,-218.75,13203.75,1,94.365,
01/01/2000,01:32:47.15,17.57,-76.13,-991.13,236.25,-586.25,6072.50,1,94.371,
01/01/2000,01:32:47.16,17.57,-78.08,-990.88,201.25,-708.75,2213.75,1,94.378,
01/01/2000,01:32:47.17,17.57,-77.59,-990.64,105.0,-673.75,437.50,1,94.385,
01/01/2000,01:32:47.18,17.45,-76.01,-990.76,166.25,-682.50,568.75,1,94.391,
01/01/2000,01:32:47.19,17.45,-73.32,-991.01,122.50,-595.0,1575.0,1,94.398,
01/01/2000,01:32:47.20,17.32,-70.27,-991.49,288.75,-551.25,3701.25,1,94.293,
01/01/2000,01:32:47.21,17.32,-69.42,-991.62,122.50,-358.75,5486.25,1,94.411,
01/01/2000,01:32:47.22,17.32,-70.15,-991.74,26.25,-428.75,5783.75,1,94.306,
01/01/2000,01:32:47.23,17.32,-71.74,-991.49,157.50,-516.25,5206.25,1,94.313,
01/01/2000,01:32:47.24,17.45,-73.32,-991.13,-78.75,-455.0,4165.0,1,94.320,
01/01/2000,01:32:47.25,17.57,-73.81,-990.88,210.0,-586.25,1671.25,1,94.326,
01/01/2000,01:32:47.27,17.81,-71.86,-990.76,122.50,-770.0,-236.25,1,94.333,
01/01/2000,01:32:47.28,17.57,-69.78,-991.25,253.75,-647.50,-70.0,1,94.340,
01/01/2000,01:32:47.29,16.71,-67.47,-991.74,157.50,-586.25,490.0,1,94.346,
01/01/2000,01:32:47.30,16.47,-67.83,-991.86,288.75,-516.25,735.0,1,94.353,
01/01/2000,01:32:47.31,16.84,-68.08,-991.74,43.75,-533.75,393.75,1,94.360,
01/01/2000,01:32:47.32,17.20,-69.05,-991.25,140.0,-787.50,-131.25,1,94.366,
01/01/2000,01:32:47.33,17.45,-69.05,-990.64,96.25,-673.75,-358.75,1,94.373,
01/01/2000,01:32:47.34,17.20,-67.95,-991.01,315.0,-700.0,-262.50,1,94.379,
01/01/2000,01:32:47.35,16.84,-67.10,-991.62,131.25,-691.25,-341.25,1,94.386,
01/01/2000,01:32:47.36,16.59,-66.25,-992.10,236.25,-647.50,-87.50,1,94.393,
01/01/2000,01:32:47.37,16.59,-66.00,-991.86,87.50,-656.25,-17.50,1,94.399,
01/01/2000,01:32:47.38,16.71,-66.61,-991.13,157.50,-700.0,-105.0,1,94.406,
01/01/2000,01:32:47.39,16.96,-67.10,-990.88,175.0,-700.0,-201.25,1,94.412,
01/01/2000,01:32:47.40,17.08,-67.22,-991.01,96.25,-805.0,-288.75,1,94.419,
01/01/2000,01:32:47.41,16.96,-66.61,-991.49,122.50,-717.50,-402.50,1,94.316,
01/01/2000,01:32:47.42,16.84,-66.12,-991.62,280.0,-691.25,-315.0,1,94.322,
01/01/2000,01:32:47.43,16.71,-65.64,-991.62,131.25,-691.25,-201.25,1,94.329,
01/01/2000,01:32:47.44,16.71,-65.39,-991.37,0.0,-735.0,-148.75,1,94.335,
01/01/2000,01:32:47.45,16.96,-66.00,-991.37,367.50,-595.0,-306.25,1,94.342,
01/01/2000,01:32:47.46,17.08,-66.37,-991.37,87.50,-708.75,-411.25,1,94.348,
01/01/2000,01:32:47.48,17.08,-66.49,-991.25,113.75,-708.75,-411.25,1,94.355,
01/01/2000,01:32:47.49,16.96,-65.64,-991.37,26.25,-673.75,-402.50,1,94.253,
01/01/2000,01:32:47.50,16.84,-65.03,-991.62,271.25,-761.25,-245.0,1,94.259,
01/01/2000,01:32:47.51,16.96,-65.15,-991.49,148.75,-647.50,-306.25,1,94.266,
01/01/2000,01:32:47.52,17.08,-65.51,-991.37,192.50,-638.75,-227.50,1,94.273,
01/01/2000,01:32:47.53,17.08,-66.00,-991.37,183.75,-700.0,-253.75,1,94.279,
01/01/2000,01:32:47.54,17.20,-66.12,-991.37,271.25,-700.0,-542.50,1,94.286,
01/01/2000,01:32:47.55,17.08,-65.88,-991.49,105.0,-787.50,-350.0,1,94.292,
01/01/2000,01:32:47.56,16.84,-65.51,-991.49,253.75,-726.25,-350.0,1,94.299,
01/01/2000,01:32:47.57,16.84,-65.39,-991.49,253.75,-761.25,-315.0,1,94.305,
01/01/2000,01:32:47.58,16.59,-65.39,-991.62,87.50,-691.25,-315.0,1,94.312,
01/01/2000,01:32:47.59,16.71,-65.64,-991.62,96.25,-735.0,-323.75,1,94.318,
01/01/2000,01:32:47.60,16.84,-66.12,-991.37,192.50,-630.0,-393.75,1,94.325,
01/01/2000,01:32:47.62,16.84,-66.00,-991.37,26.25,-735.0,-428.75,1,94.331,
01/01/2000,01:32:47.63,16.84,-65.76,-991.37,157.50,-665.0,-472.50,1,94.337,
01/01/2000,01:32:47.64,16.84,-65.39,-991.62,236.25,-700.0,-420.0,1,94.344,
01/01/2000,01:32:47.65,16.84,-65.39,-991.74,157.50,-560.0,-332.50,1,94.350,
01/01/2000,01:32:47.66,16.84,-65.27,-991.86,157.50,-638.75,-420.0,1,94.357,
01/01/2000,01:32:47.67,17.08,-65.64,-991.62,8.75,-647.50,-350.0,1,94.363,
01/01/2000,01:32:47.68,17.08,-65.88,-991.37,280.0,-700.0,-341.25,1,94.369,
01/01/2000,01:32:47.69,17.08,-65.64,-991.25,297.50,-673.75,-411.25,1,94.376,
01/01/2000,01:32:47.70,17.08,-65.39,-991.49,148.75,-568.75,-315.0,1,94.382,
01/01/2000,01:32:47.71,17.08,-65.15,-991.62,227.50,-691.25,-306.25,1,94.388,
01/01/2000,01:32:47.72,16.96,-65.03,-991.49,131.25,-708.75,-288.75,1,94.395,
01/01/2000,01:32:47.73,17.08,-65.15,-991.49,-26.25,-630.0,-288.75,1,94.401,
01/01/2000,01:32:47.74,17.20,-65.27,-991.37,183.75,-638.75,-428.75,1,94.407,
01/01/2000,01:32:47.75,17.08,-65.39,-991.49,131.25,-612.50,-393.75,1,94.413,
01/01/2000,01:32:47.76,17.08,-65.39,-991.37,157.50,-831.25,-385.0,1,94.314,
01/01/2000,01:32:47.77,17.08,-65.27,-991.62,166.25,-805.0,-297.50,1,94.321,
01/01/2000,01:32:47.78,16.96,-65.15,-991.86,253.75,-638.75,-288.75,1,94.327,
01/01/2000,01:32:47.79,16.96,-65.15,-991.74,192.50,-647.50,-315.0,1,94.333,
01/01/2000,01:32:47.80,17.08,-65.39,-991.62,201.25,-621.25,-385.0,1,94.340,
01/01/2000,01:32:47.81,17.08,-65.51,-991.74,262.50,-595.0,-288.75,1,94.346,
01/01/2000,01:32:47.83,17.08,-65.64,-991.62,148.75,-787.50,-332.50,1,94.352,
01/01/2000,01:32:47.84,16.96,-65.51,-991.62,271.25,-621.25,-341.25,1,94.358,
01/01/2000,01:32:47.85,16.96,-65.39,-991.74,8.75,-735.0,-332.50,1,94.365,
01/01/2000,01:32:47.86,17.08,-65.39,-991.86,140.0,-630.0,-402.50,1,94.371,
01/01/2000,01:32:47.87,17.08,-65.39,-991.62,166.25,-717.50,-358.75,1,94.377,
01/01/2000,01:32:47.88,17.08,-65.39,-991.62,96.25,-770.0,-341.25,1,94.383,
01/01/2000,01:32:47.89,17.08,-65.64,-991.62,297.50,-700.0,-341.25,1,94.389,
01/01/2000,01:32:47.90,17.08,-65.76,-991.74,166.25,-735.0,-341.25,1,94.292,
01/01/2000,01:32:47.91,17.20,-65.39,-991.74,61.25,-743.75,-350.0,1,94.298,
01/01/2000,01:32:47.92,16.84,-65.51,-991.74,131.25,-647.50,-280.0,1,94.304,
01/01/2000,01:32:47.93,16.96,-65.15,-991.86,113.75,-673.75,-577.50,1,94.311,
01/01/2000,01:32:47.94,17.69,-65.15,-991.37,122.50,-735.0,-297.50,1,94.317,
01/01/2000,01:32:47.95,17.45,-65.88,-991.25,297.50,-656.25,43.75,1,94.323,
01/01/2000,01:32:47.96,16.47,-66.00,-991.86,140.0,-621.25,-332.50,1,94.329,
01/01/2000,01:32:47.98,16.84,-65.64,-991.86,166.25,-743.75,-813.75,1,94.336,
01/01/2000,01:32:47.99,17.32,-65.15,-991.49,201.25,-787.50,-428.75,1,94.342,
01/01/2000,01:32:48.00,16.84,-65.39,-991.37,271.25,-586.25,-17.50,1,94.245,
01/01/2000,01:32:48.01,17.08,-65.64,-991.37,157.50,-568.75,-507.50,1,94.252,
01/01/2000,01:32:48.02,17.20,-66.00,-991.62,131.25,-691.25,-420.0,1,94.258,
01/01/2000,01:32:48.04,16.84,-65.76,-991.74,183.75,-770.0,-455.0,1,94.264,
01/01/2000,01:32:48.05,16.84,-65.27,-991.74,96.25,-700.0,-332.50,1,94.270,
01/01/2000,01:32:48.06,17.08,-64.90,-991.49,183.75,-682.50,-262.50,1,94.276,
01/01/2000,01:32:48.07,16.96,-65.15,-991.49,43.75,-778.75,-358.75,1,94.283,
01/01/2000,01:32:48.08,16.84,-65.64,-991.74,70.0,-735.0,-367.50,1,94.289,
01/01/2000,01:32:48.09,16.84,-66.12,-991.74,358.75,-665.0,-411.25,1,94.295,
01/01/2000,01:32:48.10,16.96,-65.76,-991.62,122.50,-691.25,-367.50,1,94.301,
01/01/2000,01:32:48.11,16.84,-65.51,-991.37,210.0,-665.0,-367.50,1,94.307,
01/01/2000,01:32:48.12,16.71,-65.27,-991.25,140.0,-673.75,-271.25,1,94.313,
01/01/2000,01:32:48.13,16.84,-65.39,-991.37,105.0,-708.75,-253.75,1,94.319,
01/01/2000,01:32:48.14,16.84,-65.76,-991.62,131.25,-752.50,-227.50,1,94.325,
01/01/2000,01:32:48.15,16.71,-65.88,-991.49,253.75,-560.0,-463.75,1,94.332,
01/01/2000,01:32:48.16,16.96,-65.64,-991.37,87.50,-586.25,-376.25,1,94.338,
01/01/2000,01:32:48.17,17.08,-65.88,-991.25,227.50,-691.25,-385.0,1,94.344,
01/01/2000,01:32:48.18,16.96,-65.64,-991.37,122.50,-586.25,-271.25,1,94.350,
01/01/2000,01:32:48.19,16.84,-65.88,-991.86,148.75,-735.0,-358.75,1,94.356,
01/01/2000,01:32:48.20,16.84,-65.88,-991.74,183.75,-673.75,-297.50,1,94.261,
01/01/2000,01:32:48.21,16.84,-65.88,-991.62,166.25,-656.25,-315.0,1,94.268,
01/01/2000,01:32:48.22,16.84,-65.88,-991.37,43.75,-735.0,-367.50,1,94.274,
01/01/2000,01:32:48.23,16.84,-65.64,-991.13,122.50,-770.0,-315.0,1,94.280,
01/01/2000,01:32:48.24,16.84,-65.64,-991.13,306.25,-796.25,-350.0,1,94.286,
01/01/2000,01:32:48.26,16.59,-65.76,-991.25,157.50,-682.50,-358.75,1,94.292,
01/01/2000,01:32:48.27,16.59,-65.76,-991.37,105.0,-621.25,-411.25,1,94.298,
01/01/2000,01:32:48.28,16.71,-65.51,-991.37,113.75,-735.0,-350.0,1,94.304,
01/01/2000,01:32:48.29,16.71,-65.64,-991.25,148.75,-691.25,-332.50,1,94.310,
01/01/2000,01:32:48.30,16.59,-65.64,-991.37,96.25,-638.75,-245.0,1,94.316,
01/01/2000,01:32:48.31,16.71,-65.76,-991.37,306.25,-726.25,-358.75,1,94.322,
01/01/2000,01:32:48.32,16.71,-65.64,-991.37,131.25,-630.0,-350.0,1,94.328,
01/01/2000,01:32:48.33,16.71,-65.51,-991.13,148.75,-673.75,-446.25,1,94.334,
01/01/2000,01:32:48.34,16.71,-65.27,-991.13,96.25,-612.50,-350.0,1,94.340,
01/01/2000,01:32:48.35,16.84,-65.39,-991.13,131.25,-638.75,-323.75,1,94.346,
01/01/2000,01:32:48.36,16.59,-65.39,-991.13,245.0,-595.0,-227.50,1,94.351,
01/01/2000,01:32:48.37,16.47,-65.39,-991.37,253.75,-603.75,-411.25,1,94.357,
01/01/2000,01:32:48.38,16.47,-65.39,-991.25,175.0,-717.50,-376.25,1,94.363,
01/01/2000,01:32:48.39,16.59,-65.39,-991.13,192.50,-717.50,-411.25,1,94.369,
01/01/2000,01:32:48.40,16.84,-65.15,-991.25,52.50,-761.25,-332.50,1,94.277,
01/01/2000,01:32:48.41,16.71,-65.39,-991.37,210.0,-726.25,-463.75,1,94.283,
01/01/2000,01:32:48.42,16.84,-65.39,-991.37,218.75,-603.75,-350.0,1,94.289,
01/01/2000,01:32:48.43,16.84,-65.39,-991.37,140.0,-525.0,-350.0,1,94.295,
01/01/2000,01:32:48.44,16.84,-65.39,-991.25,105.0,-647.50,-367.50,1,94.301,
01/01/2000,01:32:48.45,16.84,-65.51,-991.13,148.75,-796.25,-437.50,1,94.306,
01/01/2000,01:32:48.47,16.84,-65.51,-991.13,376.25,-717.50,-271.25,1,94.312,
01/01/2000,01:32:48.48,16.71,-65.64,-991.25,70.0,-665.0,-411.25,1,94.318,
01/01/2000,01:32:48.49,16.59,-65.88,-991.37,253.75,-638.75,-288.75,1,94.324,
01/01/2000,01:32:48.50,16.47,-65.64,-991.37,218.75,-612.50,-402.50,1,94.330,
01/01/2000,01:32:48.51,16.71,-65.64,-991.37,166.25,-770.0,-385.0,1,94.239,
01/01/2000,01:32:48.52,16.96,-65.76,-991.25,96.25,-743.75,-288.75,1,94.245,
01/01/2000,01:32:48.53,16.71,-66.12,-991.37,157.50,-726.25,-393.75,1,94.251,
01/01/2000,01:32:48.54,16.47,-66.12,-991.62,245.0,-630.0,-446.25,1,94.256,
01/01/2000,01:32:48.56,16.59,-65.76,-991.49,192.50,-647.50,-428.75,1,94.262,
01/01/2000,01:32:48.56,16.84,-65.39,-991.25,52.50,-603.75,-262.50,1,94.268,
01/01/2000,01:32:48.58,16.96,-65.39,-991.13,96.25,-691.25,-201.25,1,94.274,
01/01/2000,01:32:48.59,16.96,-65.64,-991.13,87.50,-743.75,-341.25,1,94.280,
01/01/2000,01:32:48.60,16.84,-65.88,-991.13,175.0,-691.25,-402.50,1,94.286,
01/01/2000,01:32:48.61,16.84,-65.88,-991.25,140.0,-568.75,-472.50,1,94.292,
01/01/2000,01:32:48.62,16.71,-65.64,-991.37,236.25,-743.75,-306.25,1,94.297,
01/01/2000,01:32:48.63,16.71,-65.39,-991.25,70.0,-682.50,-227.50,1,94.303,
01/01/2000,01:32:48.64,16.71,-65.27,-991.01,297.50,-805.0,-367.50,1,94.309,
01/01/2000,01:32:48.65,16.84,-65.51,-991.13,78.75,-638.75,-280.0,1,94.315,
01/01/2000,01:32:48.66,16.59,-65.88,-991.25,166.25,-621.25,-472.50,1,94.320,
01/01/2000,01:32:48.67,16.59,-65.76,-991.37,131.25,-691.25,-411.25,1,94.326,
01/01/2000,01:32:48.68,16.71,-65.51,-991.25,131.25,-761.25,-350.0,1,94.332,
01/01/2000,01:32:48.69,16.71,-65.39,-991.13,148.75,-665.0,-358.75,1,94.338,
01/01/2000,01:32:48.70,16.59,-65.51,-991.13,280.0,-665.0,-385.0,1,94.343,
01/01/2000,01:32:48.71,16.59,-65.64,-991.25,148.75,-700.0,-332.50,1,94.349,
01/01/2000,01:32:48.72,16.84,-65.88,-991.13,148.75,-770.0,-446.25,1,94.355,
01/01/2000,01:32:48.73,16.96,-65.88,-991.13,96.25,-630.0,-393.75,1,94.361,
01/01/2000,01:32:48.74,16.96,-65.64,-991.13,245.0,-691.25,-341.25,1,94.366,
01/01/2000,01:32:48.75,16.84,-65.51,-991.13,280.0,-700.0,-323.75,1,94.277,
01/01/2000,01:32:48.77,16.71,-65.39,-991.25,157.50,-831.25,-367.50,1,94.283,
01/01/2000,01:32:48.77,16.84,-65.64,-991.37,175.0,-673.75,-306.25,1,94.289,
01/01/2000,01:32:48.79,16.84,-65.64,-991.37,105.0,-691.25,-280.0,1,94.294,
01/01/2000,01:32:48.79,16.84,-65.64,-991.25,175.0,-542.50,-393.75,1,94.300,
01/01/2000,01:32:48.81,16.71,-65.64,-991.13,262.50,-700.0,-376.25,1,94.306,
01/01/2000,01:32:48.82,16.71,-65.76,-991.13,210.0,-700.0,-428.75,1,94.311,
01/01/2000,01:32:48.83,16.71,-65.76,-991.37,262.50,-647.50,-218.75,1,94.317,
01/01/2000,01:32:48.84,16.71,-65.64,-991.49,87.50,-752.50,-481.25,1,94.323,
01/01/2000,01:32:48.85,16.71,-65.64,-991.37,210.0,-708.75,-420.0,1,94.328,
01/01/2000,01:32:48.86,16.59,-65.39,-991.25,78.75,-735.0,-323.75,1,94.334,
01/01/2000,01:32:48.87,16.59,-65.51,-991.25,306.25,-717.50,-341.25,1,94.340,
01/01/2000,01:32:48.88,16.71,-65.39,-991.37,245.0,-708.75,-385.0,1,94.345,
01/01/2000,01:32:48.89,16.84,-65.51,-991.49,113.75,-665.0,-358.75,1,94.257,
01/01/2000,01:32:48.90,16.84,-65.39,-991.49,148.75,-796.25,-463.75,1,94.263,
01/01/2000,01:32:48.91,16.59,-65.39,-991.37,175.0,-665.0,-323.75,1,94.269,
01/01/2000,01:32:48.92,16.84,-65.39,-991.13,131.25,-673.75,-315.0,1,94.274,
01/01/2000,01:32:48.93,16.84,-65.39,-991.25,78.75,-708.75,-271.25,1,94.280,
01/01/2000,01:32:48.94,16.84,-65.39,-991.37,175.0,-595.0,-315.0,1,94.286,
01/01/2000,01:32:48.95,16.71,-65.51,-991.37,210.0,-647.50,-350.0,1,94.291,
01/01/2000,01:32:48.97,16.71,-65.39,-991.25,26.25,-735.0,-288.75,1,94.297,
01/01/2000,01:32:48.98,16.84,-65.39,-991.37,192.50,-735.0,-358.75,1,94.303,
01/01/2000,01:32:48.99,16.84,-65.27,-991.37,52.50,-708.75,-315.0,1,94.308,
01/01/2000,01:32:49.00,16.84,-65.39,-991.25,201.25,-612.50,-341.25,1,94.314,
01/01/2000,01:32:49.01,16.96,-65.39,-991.37,183.75,-700.0,-341.25,1,94.319,
01/01/2000,01:32:49.02,16.84,-65.39,-991.25,52.50,-778.75,-288.75,1,94.325,
01/01/2000,01:32:49.03,16.96,-65.39,-991.25,157.50,-708.75,-411.25,1,94.238,
01/01/2000,01:32:49.04,17.08,-65.15,-991.25,105.0,-638.75,-271.25,1,94.244,
01/01/2000,01:32:49.05,17.08,-65.27,-991.25,140.0,-682.50,-367.50,1,94.250,
01/01/2000,01:32:49.06,16.84,-65.39,-991.37,245.0,-752.50,-350.0,1,94.255,
01/01/2000,01:32:49.07,16.84,-65.64,-991.37,183.75,-682.50,-315.0,1,94.261,
01/01/2000,01:32:49.08,16.84,-65.64,-991.37,201.25,-647.50,-350.0,1,94.266,
01/01/2000,01:32:49.09,16.96,-65.27,-991.62,175.0,-700.0,-385.0,1,94.272,
01/01/2000,01:32:49.10,17.08,-65.27,-991.49,253.75,-656.25,-332.50,1,94.277,
01/01/2000,01:32:49.12,16.96,-65.27,-991.49,183.75,-761.25,-437.50,1,94.283,
01/01/2000,01:32:49.13,16.96,-65.27,-991.37,8.75,-735.0,-166.25,1,94.288,
01/01/2000,01:32:49.14,16.96,-65.39,-991.37,210.0,-726.25,-437.50,1,94.294,
01/01/2000,01:32:49.15,16.96,-65.39,-991.49,52.50,-656.25,-332.50,1,94.300,
01/01/2000,01:32:49.16,17.08,-65.39,-991.49,78.75,-735.0,-358.75,1,94.305,
01/01/2000,01:32:49.17,17.08,-65.51,-991.37,157.50,-586.25,-350.0,1,94.311,
01/01/2000,01:32:49.18,16.84,-65.64,-991.25,140.0,-682.50,-288.75,1,94.316,
01/01/2000,01:32:49.19,16.84,-65.64,-991.37,113.75,-726.25,-446.25,1,94.321,
01/01/2000,01:32:49.20,16.84,-65.76,-991.25,236.25,-761.25,-420.0,1,94.327,
01/01/2000,01:32:49.21,16.96,-65.64,-991.13,105.0,-752.50,-402.50,1,94.332,
01/01/2000,01:32:49.22,17.08,-65.51,-991.13,245.0,-673.75,-323.75,1,94.338,
01/01/2000,01:32:49.23,16.96,-65.39,-991.37,70.0,-665.0,-306.25,1,94.343,
01/01/2000,01:32:49.24,16.84,-65.27,-991.25,105.0,-726.25,-271.25,1,94.349,
01/01/2000,01:32:49.25,16.84,-65.39,-991.37,0.0,-630.0,-350.0,1,94.354,
01/01/2000,01:32:49.26,16.84,-65.51,-991.37,157.50,-665.0,-358.75,1,94.359,
01/01/2000,01:32:49.27,16.84,-65.39,-991.37,148.75,-717.50,-358.75,1,94.365,
01/01/2000,01:32:49.28,16.84,-65.39,-991.13,43.75,-726.25,-332.50,1,94.370,
01/01/2000,01:32:49.29,16.96,-65.51,-991.01,192.50,-761.25,-236.25,1,94.376,
01/01/2000,01:32:49.30,16.84,-65.51,-991.13,8.75,-638.75,-341.25,1,94.381,
01/01/2000,01:32:49.31,16.84,-65.64,-991.13,96.25,-603.75,-210.0,1,94.297,
01/01/2000,01:32:49.32,16.96,-65.51,-991.25,201.25,-603.75,-455.0,1,94.302,
01/01/2000,01:32:49.33,17.08,-65.64,-991.25,262.50,-735.0,-297.50,1,94.307,
01/01/2000,01:32:49.35,17.08,-65.64,-991.37,105.0,-595.0,-341.25,1,94.313,
01/01/2000,01:32:49.35,16.96,-65.64,-991.25,148.75,-726.25,-367.50,1,94.318,
01/01/2000,01:32:49.37,16.96,-65.51,-991.37,236.25,-630.0,-271.25,1,94.324,
01/01/2000,01:32:49.38,16.84,-65.39,-991.62,175.0,-647.50,-253.75,1,94.329,
01/01/2000,01:32:49.39,16.71,-65.39,-991.49,96.25,-673.75,-323.75,1,94.334,
01/01/2000,01:32:49.40,16.84,-65.51,-991.37,245.0,-726.25,-376.25,1,94.340,
01/01/2000,01:32:49.41,16.84,-65.39,-991.37,166.25,-621.25,-306.25,1,94.345,
01/01/2000,01:32:49.42,16.71,-65.51,-991.37,288.75,-778.75,-332.50,1,94.350,
01/01/2000,01:32:49.43,16.71,-65.51,-991.62,17.50,-726.25,-253.75,1,94.356,
01/01/2000,01:32:49.44,16.71,-65.51,-991.62,201.25,-743.75,-385.0,1,94.361,
01/01/2000,01:32:49.45,16.71,-65.64,-991.37,87.50,-647.50,-315.0,1,94.366,
01/01/2000,01:32:49.46,16.71,-65.76,-991.25,192.50,-717.50,-393.75,1,94.283,
01/01/2000,01:32:49.47,16.59,-65.64,-991.37,87.50,-708.75,-411.25,1,94.288,
01/01/2000,01:32:49.48,16.59,-65.64,-991.25,183.75,-665.0,-245.0,1,94.294,
01/01/2000,01:32:49.49,16.59,-65.64,-991.37,166.25,-778.75,-393.75,1,94.299,
01/01/2000,01:32:49.50,16.59,-65.76,-991.25,306.25,-673.75,-376.25,1,94.304,
01/01/2000,01:32:49.51,16.59,-65.64,-991.25,-8.75,-717.50,-376.25,1,94.310,
01/01/2000,01:32:49.53,16.59,-65.39,-991.13,183.75,-735.0,-428.75,1,94.315,
01/01/2000,01:32:49.54,16.59,-65.39,-991.13,61.25,-717.50,-332.50,1,94.233,
01/01/2000,01:32:49.55,16.59,-65.27,-991.13,122.50,-761.25,-288.75,1,94.238,
01/01/2000,01:32:49.56,16.59,-65.51,-991.13,358.75,-612.50,-385.0,1,94.243,
01/01/2000,01:32:49.57,16.71,-65.39,-991.01,148.75,-665.0,-271.25,1,94.249,
01/01/2000,01:32:49.58,16.71,-65.39,-991.13,236.25,-770.0,-411.25,1,94.254,
01/01/2000,01:32:49.59,16.71,-65.39,-991.25,227.50,-743.75,-341.25,1,94.259,
01/01/2000,01:32:49.60,16.71,-65.51,-991.37,148.75,-691.25,-245.0,1,94.265,
01/01/2000,01:32:49.61,16.59,-65.51,-991.37,140.0,-726.25,-376.25,1,94.270,
01/01/2000,01:32:49.62,16.47,-65.51,-991.37,78.75,-638.75,-323.75,1,94.275,
01/01/2000,01:32:49.63,16.59,-65.51,-991.37,183.75,-586.25,-288.75,1,94.280,
01/01/2000,01:32:49.64,16.59,-65.39,-991.37,183.75,-656.25,-358.75,1,94.286,
01/01/2000,01:32:49.65,16.59,-65.64,-991.25,166.25,-743.75,-385.0,1,94.291,
01/01/2000,01:32:49.67,16.59,-65.64,-991.25,227.50,-726.25,-271.25,1,94.296,
01/01/2000,01:32:49.68,16.59,-65.51,-991.13,157.50,-682.50,-463.75,1,94.301,
01/01/2000,01:32:49.69,16.71,-65.64,-991.13,140.0,-673.75,-280.0,1,94.307,
01/01/2000,01:32:49.70,16.71,-65.39,-991.37,148.75,-726.25,-306.25,1,94.312,
01/01/2000,01:32:49.71,16.71,-65.51,-991.37,245.0,-735.0,-341.25,1,94.317,
01/01/2000,01:32:49.72,16.84,-65.51,-991.37,70.0,-630.0,-245.0,1,94.322,
01/01/2000,01:32:49.73,16.96,-65.64,-991.13,113.75,-673.75,-315.0,1,94.328,
01/01/2000,01:32:49.74,16.96,-65.64,-991.13,262.50,-770.0,-376.25,1,94.333,
01/01/2000,01:32:49.75,16.84,-65.76,-991.13,166.25,-682.50,-358.75,1,94.338,
01/01/2000,01:32:49.76,16.71,-65.76,-991.13,140.0,-656.25,-402.50,1,94.343,
01/01/2000,01:32:49.77,16.59,-65.39,-991.25,245.0,-682.50,-350.0,1,94.348,
01/01/2000,01:32:49.78,16.59,-65.64,-991.37,332.50,-770.0,-245.0,1,94.353,
01/01/2000,01:32:49.79,16.59,-65.27,-991.37,157.50,-630.0,-332.50,1,94.359,
01/01/2000,01:32:49.80,16.84,-65.39,-991.49,105.0,-665.0,-323.75,1,94.364,
01/01/2000,01:32:49.81,16.84,-65.39,-991.37,140.0,-673.75,-367.50,1,94.369,
01/01/2000,01:32:49.82,16.84,-65.39,-991.37,105.0,-726.25,-393.75,1,94.374,
01/01/2000,01:32:49.83,16.71,-65.39,-991.37,192.50,-805.0,-236.25,1,94.379,
01/01/2000,01:32:49.84,16.71,-65.51,-991.49,183.75,-708.75,-332.50,1,94.384,
01/01/2000,01:32:49.85,16.71,-65.39,-991.62,157.50,-665.0,-280.0,1,94.389,
01/01/2000,01:32:49.86,16.71,-65.39,-991.49,157.50,-831.25,-367.50,1,94.394,
01/01/2000,01:32:49.88,16.84,-65.64,-991.49,218.75,-778.75,-385.0,1,94.314,
01/01/2000,01:32:49.89,16.84,-65.64,-991.49,113.75,-647.50,-455.0,1,94.319,
01/01/2000,01:32:49.90,16.84,-65.76,-991.37,183.75,-656.25,-367.50,1,94.324,
01/01/2000,01:32:49.91,16.84,-65.64,-991.37,192.50,-787.50,-437.50,1,94.329,
01/01/2000,01:32:49.92,16.84,-65.51,-991.62,113.75,-682.50,-367.50,1,94.335,
01/01/2000,01:32:49.93,16.96,-65.64,-991.49,201.25,-551.25,-315.0,1,94.340,
01/01/2000,01:32:49.94,16.96,-65.51,-991.37,26.25,-752.50,-341.25,1,94.345,
01/01/2000,01:32:49.95,16.84,-65.64,-991.37,245.0,-673.75,-341.25,1,94.350,
01/01/2000,01:32:49.96,16.84,-65.76,-991.37,271.25,-612.50,-428.75,1,94.355,
01/01/2000,01:32:49.97,16.84,-65.51,-991.62,61.25,-665.0,-455.0,1,94.360,
01/01/2000,01:32:49.98,16.84,-65.39,-991.62,131.25,-647.50,-280.0,1,94.365,
01/01/2000,01:32:49.99,16.71,-65.64,-991.49,140.0,-647.50,-341.25,1,94.370,
01/01/2000,01:32:50.00,16.59,-65.64,-991.62,8.75,-752.50,-332.50,1,94.375,
01/01/2000,01:32:50.01,16.84,-65.64,-991.49,166.25,-700.0,-297.50,1,94.380,
01/01/2000,01:32:50.02,17.08,-65.64,-991.62,131.25,-612.50,-288.75,1,94.301,
01/01/2000,01:32:50.03,17.08,-65.64,-991.62,122.50,-822.50,-271.25,1,94.306,
01/01/2000,01:32:50.05,17.08,-65.39,-991.37,157.50,-682.50,-358.75,1,94.311,
01/01/2000,01:32:50.06,17.08,-65.51,-991.37,236.25,-656.25,-376.25,1,94.316,
01/01/2000,01:32:50.07,17.08,-65.51,-991.49,341.25,-735.0,-376.25,1,94.321,
01/01/2000,01:32:50.08,16.96,-65.39,-991.62,35.0,-700.0,-271.25,1,94.326,
01/01/2000,01:32:50.09,17.08,-65.64,-991.49,280.0,-752.50,-393.75,1,94.331,
01/01/2000,01:32:50.10,16.84,-65.64,-991.37,122.50,-647.50,-358.75,1,94.336,
01/01/2000,01:32:50.11,16.84,-65.64,-991.25,113.75,-735.0,-367.50,1,94.341,
01/01/2000,01:32:50.12,17.08,-65.64,-991.25,192.50,-638.75,-463.75,1,94.346,
01/01/2000,01:32:50.13,17.08,-65.51,-991.25,236.25,-717.50,-271.25,1,94.351,
01/01/2000,01:32:50.14,16.96,-65.51,-991.37,131.25,-647.50,-332.50,1,94.356,
01/01/2000,01:32:50.15,16.96,-65.64,-991.37,183.75,-638.75,-393.75,1,94.361,
01/01/2000,01:32:50.16,16.96,-65.39,-991.25,61.25,-647.50,-350.0,1,94.283,
01/01/2000,01:32:50.17,17.20,-65.51,-991.13,297.50,-656.25,-358.75,1,94.288,
01/01/2000,01:32:50.18,17.32,-65.51,-991.25,218.75,-726.25,-350.0,1,94.293,
01/01/2000,01:32:50.19,17.20,-65.76,-991.37,183.75,-682.50,-297.50,1,94.298,
01/01/2000,01:32:50.20,16.96,-65.76,-991.37,78.75,-682.50,-315.0,1,94.303,
01/01/2000,01:32:50.21,16.84,-65.64,-991.37,280.0,-796.25,-341.25,1,94.308,
01/01/2000,01:32:50.22,16.84,-65.39,-991.49,96.25,-630.0,-358.75,1,94.313,
01/01/2000,01:32:50.24,16.96,-65.15,-991.49,113.75,-647.50,-297.50,1,94.318,
01/01/2000,01:32:50.25,17.08,-65.39,-991.13,131.25,-638.75,-218.75,1,94.323,
01/01/2000,01:32:50.26,17.08,-65.88,-991.01,227.50,-787.50,-306.25,1,94.328,
01/01/2000,01:32:50.27,16.84,-66.12,-991.13,17.50,-708.75,-437.50,1,94.333,
01/01/2000,01:32:50.28,16.71,-65.88,-991.25,140.0,-735.0,-420.0,1,94.338,
01/01/2000,01:32:50.29,16.71,-65.64,-991.37,52.50,-752.50,-271.25,1,94.343,
01/01/2000,01:32:50.30,16.59,-65.15,-991.13,210.0,-700.0,-210.0,1,94.348,
01/01/2000,01:32:50.31,16.71,-65.39,-991.01,201.25,-726.25,-236.25,1,94.353,
01/01/2000,01:32:50.32,16.59,-65.76,-991.01,218.75,-717.50,-323.75,1,94.358,
01/01/2000,01:32:50.33,16.84,-66.00,-991.25,105.0,-717.50,-376.25,1,94.363,
01/01/2000,01:32:50.34,16.84,-66.00,-991.25,227.50,-630.0,-376.25,1,94.367,
01/01/2000,01:32:50.35,16.84,-65.64,-991.13,236.25,-691.25,-341.25,1,94.372,
01/01/2000,01:32:50.36,16.71,-65.27,-991.13,43.75,-778.75,-385.0,1,94.377,
01/01/2000,01:32:50.37,16.59,-65.15,-991.13,183.75,-743.75,-306.25,1,94.301,
01/01/2000,01:32:50.38,16.59,-65.64,-991.01,157.50,-717.50,-402.50,1,94.305,
01/01/2000,01:32:50.39,16.59,-65.64,-991.13,131.25,-673.75,-297.50,1,94.310,
01/01/2000,01:32:50.40,16.71,-65.76,-991.13,253.75,-673.75,-262.50,1,94.315,
01/01/2000,01:32:50.41,16.84,-65.27,-990.76,35.0,-743.75,-350.0,1,94.320,
01/01/2000,01:32:50.42,16.71,-65.15,-990.88,192.50,-656.25,-288.75,1,94.325,
01/01/2000,01:32:50.44,16.59,-65.15,-991.13,87.50,-691.25,-350.0,1,94.330,
01/01/2000,01:32:50.45,16.59,-65.39,-991.25,183.75,-726.25,-358.75,1,94.335,
01/01/2000,01:32:50.46,16.59,-65.39,-991.25,105.0,-726.25,-297.50,1,94.340,
01/01/2000,01:32:50.47,16.84,-65.39,-991.01,70.0,-743.75,-393.75,1,94.344,
01/01/2000,01:32:50.48,16.71,-65.39,-990.88,218.75,-673.75,-428.75,1,94.349,
01/01/2000,01:32:50.49,16.59,-65.39,-991.13,52.50,-735.0,-288.75,1,94.354,
01/01/2000,01:32:50.50,16.59,-65.51,-991.37,113.75,-656.25,-437.50,1,94.359,
01/01/2000,01:32:50.51,16.59,-65.39,-991.62,192.50,-621.25,-376.25,1,94.283,
01/01/2000,01:32:50.52,16.59,-65.27,-991.37,78.75,-770.0,-367.50,1,94.288,
01/01/2000,01:32:50.53,16.84,-65.39,-990.88,61.25,-735.0,-297.50,1,94.293,
01/01/2000,01:32:50.54,16.96,-65.51,-990.88,183.75,-665.0,-393.75,1,94.298,
01/01/2000,01:32:50.56,16.84,-65.64,-991.13,183.75,-665.0,-332.50,1,94.303,
01/01/2000,01:32:50.57,16.84,-65.51,-991.13,183.75,-735.0,-446.25,1,94.308,
01/01/2000,01:32:50.58,16.96,-65.27,-991.01,61.25,-638.75,-280.0,1,94.312,
01/01/2000,01:32:50.59,16.96,-65.39,-990.76,131.25,-708.75,-271.25,1,94.317,
01/01/2000,01:32:50.60,17.08,-65.64,-990.64,262.50,-612.50,-332.50,1,94.322,
01/01/2000,01:32:50.61,17.08,-65.76,-991.13,227.50,-621.25,-236.25,1,94.327,
01/01/2000,01:32:50.62,16.96,-65.88,-991.25,262.50,-717.50,-367.50,1,94.332,
01/01/2000,01:32:50.63,16.84,-65.64,-991.13,105.0,-743.75,-306.25,1,94.336,
01/01/2000,01:32:50.64,16.84,-65.51,-991.13,262.50,-682.50,-341.25,1,94.341,
01/01/2000,01:32:50.65,16.96,-65.39,-990.88,96.25,-761.25,-350.0,1,94.346,
01/01/2000,01:32:50.66,16.84,-65.51,-991.13,236.25,-857.50,-306.25,1,94.351,
01/01/2000,01:32:50.67,16.96,-65.76,-991.25,140.0,-735.0,-271.25,1,94.356,
01/01/2000,01:32:50.68,17.20,-66.00,-991.13,148.75,-770.0,-358.75,1,94.360,
01/01/2000,01:32:50.69,17.08,-65.88,-990.88,157.50,-735.0,-306.25,1,94.365,
01/01/2000,01:32:50.70,16.84,-65.88,-990.76,131.25,-717.50,-323.75,1,94.370,
01/01/2000,01:32:50.71,16.71,-65.76,-990.88,52.50,-665.0,-288.75,1,94.374,
01/01/2000,01:32:50.72,16.84,-65.88,-991.13,210.0,-673.75,-210.0,1,94.300,
01/01/2000,01:32:50.73,17.08,-65.88,-991.13,236.25,-656.25,-385.0,1,94.305,
01/01/2000,01:32:50.74,17.08,-65.88,-990.88,192.50,-770.0,-332.50,1,94.310,
01/01/2000,01:32:50.75,17.20,-65.88,-990.76,148.75,-717.50,-306.25,1,94.314,
01/01/2000,01:32:50.76,17.08,-65.64,-990.64,236.25,-717.50,-428.75,1,94.319,
01/01/2000,01:32:50.77,17.08,-65.64,-990.88,175.0,-717.50,-280.0,1,94.324,
01/01/2000,01:32:50.78,17.08,-65.64,-991.13,183.75,-612.50,-367.50,1,94.329,
01/01/2000,01:32:50.80,17.08,-65.64,-991.13,105.0,-700.0,-376.25,1,94.333,
01/01/2000,01:32:50.81,16.96,-65.64,-990.88,140.0,-673.75,-218.75,1,94.338,
01/01/2000,01:32:50.82,16.96,-65.64,-990.88,175.0,-630.0,-420.0,1,94.343,
01/01/2000,01:32:50.83,17.20,-65.88,-991.01,192.50,-778.75,-367.50,1,94.347,
01/01/2000,01:32:50.84,17.08,-65.76,-991.13,253.75,-682.50,-367.50,1,94.352,
01/01/2000,01:32:50.85,17.08,-65.88,-991.25,61.25,-673.75,-288.75,1,94.357,
01/01/2000,01:32:50.86,16.96,-65.76,-991.25,113.75,-708.75,-428.75,1,94.362,
01/01/2000,01:32:50.87,16.84,-65.76,-991.25,105.0,-743.75,-297.50,1,94.366,
01/01/2000,01:32:50.88,16.96,-65.76,-991.25,140.0,-726.25,-280.0,1,94.371,
01/01/2000,01:32:50.89,16.84,-65.88,-991.37,61.25,-822.50,-262.50,1,94.376,
01/01/2000,01:32:50.90,17.08,-65.88,-991.37,297.50,-717.50,-376.25,1,94.380,
01/01/2000,01:32:50.91,16.96,-66.00,-991.37,140.0,-647.50,-306.25,1,94.385,
01/01/2000,01:32:50.92,16.84,-65.76,-991.37,122.50,-630.0,-323.75,1,94.389,
01/01/2000,01:32:50.94,16.84,-65.76,-991.37,175.0,-691.25,-393.75,1,94.316,
01/01/2000,01:32:50.95,16.84,-65.64,-991.37,148.75,-665.0,-245.0,1,94.321,
01/01/2000,01:32:50.96,16.84,-65.88,-991.25,183.75,-691.25,-297.50,1,94.326,
01/01/2000,01:32:50.97,16.84,-65.88,-991.25,61.25,-796.25,-446.25,1,94.330,
01/01/2000,01:32:50.98,16.84,-65.88,-991.25,87.50,-630.0,-411.25,1,94.335,
01/01/2000,01:32:50.99,16.96,-65.88,-991.25,227.50,-743.75,-402.50,1,94.340,
01/01/2000,01:32:51.00,16.84,-65.64,-991.37,113.75,-638.75,-201.25,1,94.344,
01/01/2000,01:32:51.01,16.84,-65.64,-991.49,131.25,-708.75,-376.25,1,94.349,
01/01/2000,01:32:51.02,16.84,-65.51,-991.49,192.50,-743.75,-385.0,1,94.354,
01/01/2000,01:32:51.03,16.96,-65.51,-991.49,52.50,-656.25,-297.50,1,94.358,
01/01/2000,01:32:51.04,16.84,-65.76,-991.49,218.75,-700.0,-428.75,1,94.363,
01/01/2000,01:32:51.05,16.84,-65.64,-991.62,-8.75,-735.0,-341.25,1,94.367,
01/01/2000,01:32:51.06,16.84,-65.51,-991.62,140.0,-735.0,-332.50,1,94.295,
01/01/2000,01:32:51.08,16.84,-65.51,-991.62,175.0,-717.50,-306.25,1,94.300,
01/01/2000,01:32:51.09,17.08,-65.51,-991.37,210.0,-735.0,-393.75,1,94.304,
01/01/2000,01:32:51.10,16.96,-65.64,-991.49,78.75,-700.0,-271.25,1,94.309,
01/01/2000,01:32:51.11,16.84,-65.88,-991.62,166.25,-735.0,-402.50,1,94.314,
01/01/2000,01:32:51.12,16.84,-65.88,-991.62,70.0,-612.50,-332.50,1,94.318,
01/01/2000,01:32:51.13,16.96,-65.64,-991.62,78.75,-673.75,-358.75,1,94.323,
01/01/2000,01:32:51.14,17.08,-65.51,-991.62,113.75,-787.50,-350.0,1,94.327,
01/01/2000,01:32:51.15,16.84,-65.39,-991.62,166.25,-770.0,-297.50,1,94.332,
01/01/2000,01:32:51.16,16.84,-65.51,-991.74,131.25,-778.75,-393.75,1,94.337,
01/01/2000,01:32:51.17,16.96,-65.76,-991.74,78.75,-700.0,-332.50,1,94.341,
01/01/2000,01:32:51.18,16.96,-65.88,-991.74,122.50,-743.75,-376.25,1,94.346,
01/01/2000,01:32:51.19,16.84,-65.64,-991.74,26.25,-691.25,-332.50,1,94.350,
01/01/2000,01:32:51.20,16.84,-65.64,-991.49,105.0,-630.0,-306.25,1,94.355,
01/01/2000,01:32:51.21,16.84,-65.51,-991.37,166.25,-691.25,-315.0,1,94.359,
01/01/2000,01:32:51.22,16.84,-65.64,-991.49,70.0,-586.25,-280.0,1,94.288,
01/01/2000,01:32:51.23,16.84,-65.76,-991.62,131.25,-638.75,-323.75,1,94.368,
01/01/2000,01:32:51.24,16.84,-65.88,-991.62,131.25,-691.25,-376.25,1,94.297,
01/01/2000,01:32:51.25,16.84,-65.88,-991.62,253.75,-656.25,-437.50,1,94.378,
01/01/2000,01:32:51.26,16.84,-65.76,-991.62,323.75,-752.50,-332.50,1,94.306,
01/01/2000,01:32:51.27,16.84,-65.51,-991.86,96.25,-691.25,-358.75,1,94.311,
01/01/2000,01:32:51.29,16.71,-65.64,-991.86,-35.0,-638.75,-358.75,1,94.315,
01/01/2000,01:32:51.30,16.71,-65.76,-991.86,210.0,-568.75,-280.0,1,94.320,
01/01/2000,01:32:51.31,16.96,-65.88,-991.74,113.75,-796.25,-341.25,1,94.325,
01/01/2000,01:32:51.32,16.96,-65.88,-991.62,227.50,-717.50,-446.25,1,94.329,
01/01/2000,01:32:51.33,16.84,-65.51,-991.62,26.25,-770.0,-376.25,1,94.334,
01/01/2000,01:32:51.34,16.84,-65.64,-991.62,271.25,-665.0,-341.25,1,94.338,
01/01/2000,01:32:51.35,16.84,-65.51,-991.62,52.50,-787.50,-350.0,1,94.343,
01/01/2000,01:32:51.36,16.84,-65.64,-991.74,280.0,-743.75,-341.25,1,94.347,
01/01/2000,01:32:51.37,16.84,-65.76,-991.62,87.50,-665.0,-245.0,1,94.352,
01/01/2000,01:32:51.38,16.84,-65.88,-991.49,26.25,-700.0,-288.75,1,94.356,
01/01/2000,01:32:51.39,16.96,-65.88,-991.62,253.75,-805.0,-402.50,1,94.361,
01/01/2000,01:32:51.40,16.84,-65.76,-991.74,61.25,-761.25,-402.50,1,94.365,
01/01/2000,01:32:51.41,16.71,-65.51,-991.86,306.25,-647.50,-332.50,1,94.370,
01/01/2000,01:32:51.42,16.84,-65.51,-991.74,35.0,-752.50,-376.25,1,94.374,
01/01/2000,01:32:51.43,16.96,-65.51,-991.74,96.25,-665.0,-341.25,1,94.304,
01/01/2000,01:32:51.44,16.96,-65.64,-991.62,61.25,-630.0,-437.50,1,94.308,
01/01/2000,01:32:51.45,16.96,-65.64,-991.74,105.0,-700.0,-411.25,1,94.313,
01/01/2000,01:32:51.46,16.96,-65.64,-991.86,166.25,-700.0,-376.25,1,94.317,
01/01/2000,01:32:51.47,16.96,-65.51,-991.98,26.25,-778.75,-297.50,1,94.322,
01/01/2000,01:32:51.48,16.84,-65.51,-991.86,122.50,-647.50,-376.25,1,94.326,
01/01/2000,01:32:51.50,16.84,-65.39,-991.86,297.50,-752.50,-306.25,1,94.331,
01/01/2000,01:32:51.51,16.84,-65.51,-991.86,183.75,-682.50,-262.50,1,94.335,
01/01/2000,01:32:51.52,16.84,-65.64,-991.86,306.25,-577.50,-358.75,1,94.340,
01/01/2000,01:32:51.53,17.08,-65.76,-991.86,105.0,-770.0,-350.0,1,94.344,
01/01/2000,01:32:51.54,16.96,-65.64,-991.86,105.0,-595.0,-350.0,1,94.349,
01/01/2000,01:32:51.55,16.96,-65.51,-991.74,210.0,-612.50,-367.50,1,94.353,
01/01/2000,01:32:51.56,16.96,-65.51,-991.49,52.50,-612.50,-323.75,1,94.357,
01/01/2000,01:32:51.58,16.71,-65.51,-991.74,-26.25,-700.0,-166.25,1,94.288,
01/01/2000,01:32:51.59,16.71,-65.64,-991.74,175.0,-612.50,-420.0,1,94.292,
01/01/2000,01:32:51.60,16.84,-65.76,-991.74,43.75,-796.25,-402.50,1,94.297,
01/01/2000,01:32:51.61,16.84,-65.76,-991.74,210.0,-673.75,-411.25,1,94.301,
01/01/2000,01:32:51.62,16.84,-65.64,-991.86,96.25,-691.25,-306.25,1,94.306,
01/01/2000,01:32:51.63,16.71,-65.76,-991.86,297.50,-595.0,-376.25,1,94.310,
01/01/2000,01:32:51.64,16.84,-65.64,-991.86,122.50,-700.0,-358.75,1,94.315,
01/01/2000,01:32:51.65,16.84,-65.88,-991.74,201.25,-778.75,-393.75,1,94.319,
01/01/2000,01:32:51.66,16.84,-65.88,-991.74,78.75,-691.25,-323.75,1,94.323,
01/01/2000,01:32:51.67,16.71,-65.88,-991.74,96.25,-770.0,-393.75,1,94.328,
01/01/2000,01:32:51.68,16.71,-65.88,-991.86,78.75,-673.75,-288.75,1,94.332,
01/01/2000,01:32:51.69,16.84,-65.88,-991.74,113.75,-656.25,-341.25,1,94.337,
01/01/2000,01:32:51.70,16.71,-65.76,-991.86,87.50,-673.75,-315.0,1,94.341,
01/01/2000,01:32:51.71,16.84,-65.88,-991.74,192.50,-735.0,-358.75,1,94.345,
01/01/2000,01:32:51.72,16.71,-65.76,-991.86,210.0,-647.50,-297.50,1,94.350,
01/01/2000,01:32:51.73,16.71,-65.76,-991.86,131.25,-621.25,-341.25,1,94.354,
01/01/2000,01:32:51.74,16.84,-65.76,-991.86,218.75,-621.25,-367.50,1,94.359,
01/01/2000,01:32:51.75,16.71,-65.64,-991.86,61.25,-708.75,-341.25,1,94.363,
01/01/2000,01:32:51.76,16.84,-65.64,-991.62,218.75,-796.25,-297.50,1,94.367,
01/01/2000,01:32:51.77,16.71,-65.64,-991.37,210.0,-665.0,-332.50,1,94.372,
01/01/2000,01:32:51.78,16.59,-65.64,-991.37,61.25,-656.25,-376.25,1,94.303,
01/01/2000,01:32:51.79,16.59,-65.76,-991.49,131.25,-586.25,-306.25,1,94.308,
01/01/2000,01:32:51.80,16.84,-65.64,-991.62,148.75,-621.25,-332.50,1,94.312,
01/01/2000,01:32:51.81,16.84,-65.51,-991.62,166.25,-638.75,-323.75,1,94.316,
01/01/2000,01:32:51.82,16.84,-65.76,-991.62,157.50,-665.0,-411.25,1,94.321,
01/01/2000,01:32:51.83,16.59,-65.64,-991.62,122.50,-638.75,-280.0,1,94.325,
01/01/2000,01:32:51.85,16.84,-65.64,-991.74,113.75,-577.50,-376.25,1,94.329,
01/01/2000,01:32:51.86,16.71,-65.51,-991.86,262.50,-665.0,-411.25,1,94.334,
01/01/2000,01:32:51.87,16.59,-65.39,-991.74,253.75,-813.75,-446.25,1,94.338,
01/01/2000,01:32:51.88,16.59,-65.39,-991.74,175.0,-717.50,-411.25,1,94.343,
01/01/2000,01:32:51.89,16.59,-65.39,-991.86,183.75,-665.0,-323.75,1,94.347,
01/01/2000,01:32:51.90,16.59,-65.39,-991.86,175.0,-656.25,-323.75,1,94.351,
01/01/2000,01:32:51.91,16.71,-65.27,-991.74,166.25,-708.75,-393.75,1,94.355,
01/01/2000,01:32:51.92,16.84,-65.39,-991.86,271.25,-787.50,-358.75,1,94.288,
01/01/2000,01:32:51.93,16.84,-65.39,-991.74,218.75,-595.0,-297.50,1,94.292,
01/01/2000,01:32:51.94,16.84,-65.64,-991.86,183.75,-638.75,-385.0,1,94.297,
01/01/2000,01:32:51.95,16.84,-65.64,-991.86,105.0,-691.25,-376.25,1,94.301,
01/01/2000,01:32:51.96,16.96,-65.76,-991.86,113.75,-700.0,-428.75,1,94.305,
01/01/2000,01:32:51.97,16.84,-65.88,-991.86,183.75,-656.25,-463.75,1,94.310,
01/01/2000,01:32:51.98,16.96,-65.76,-991.62,0.0,-603.75,-262.50,1,94.314,
01/01/2000,01:32:52.00,16.84,-65.64,-991.62,105.0,-656.25,-385.0,1,94.318,
01/01/2000,01:32:52.01,16.84,-65.76,-991.74,166.25,-682.50,-306.25,1,94.322,
01/01/2000,01:32:52.02,16.84,-65.76,-991.74,105.0,-682.50,-428.75,1,94.327,
01/01/2000,01:32:52.03,16.84,-66.12,-991.74,271.25,-717.50,-350.0,1,94.331,
01/01/2000,01:32:52.04,16.84,-65.64,-991.74,96.25,-735.0,-323.75,1,94.335,
01/01/2000,01:32:52.05,16.84,-66.00,-991.74,262.50,-743.75,-428.75,1,94.340,
01/01/2000,01:32:52.06,16.84,-65.88,-991.62,166.25,-743.75,-341.25,1,94.344,
01/01/2000,01:32:52.07,16.96,-65.88,-991.86,166.25,-717.50,-420.0,1,94.348,
01/01/2000,01:32:52.09,17.08,-65.88,-991.74,113.75,-761.25,-297.50,1,94.281,
01/01/2000,01:32:52.10,16.84,-65.88,-991.62,131.25,-708.75,-315.0,1,94.286,
01/01/2000,01:32:52.11,16.71,-65.88,-991.62,236.25,-673.75,-358.75,1,94.290,
01/01/2000,01:32:52.12,16.71,-65.76,-991.86,140.0,-542.50,-306.25,1,94.294,
01/01/2000,01:32:52.13,16.84,-65.88,-991.98,236.25,-743.75,-367.50,1,94.299,
01/01/2000,01:32:52.14,16.84,-65.76,-991.86,148.75,-735.0,-332.50,1,94.303,
01/01/2000,01:32:52.15,16.59,-66.00,-991.86,87.50,-752.50,-411.25,1,94.307,
01/01/2000,01:32:52.16,16.47,-65.88,-991.74,227.50,-735.0,-323.75,1,94.311,
01/01/2000,01:32:52.17,16.71,-65.88,-991.62,288.75,-700.0,-367.50,1,94.316,
01/01/2000,01:32:52.18,16.84,-65.76,-991.86,157.50,-770.0,-323.75,1,94.320,
01/01/2000,01:32:52.19,16.84,-65.88,-991.86,113.75,-691.25,-253.75,1,94.324,
01/01/2000,01:32:52.20,16.84,-65.76,-991.86,122.50,-630.0,-393.75,1,94.328,
01/01/2000,01:32:52.21,16.84,-65.76,-991.86,201.25,-700.0,-280.0,1,94.333,
01/01/2000,01:32:52.22,16.96,-65.76,-992.10,96.25,-743.75,-350.0,1,94.337,
01/01/2000,01:32:52.23,17.08,-65.76,-992.10,183.75,-735.0,-393.75,1,94.341,
01/01/2000,01:32:52.24,17.08,-65.88,-991.98,262.50,-621.25,-253.75,1,94.345,
01/01/2000,01:32:52.25,16.96,-65.88,-991.86,227.50,-735.0,-297.50,1,94.349,
01/01/2000,01:32:52.26,16.71,-65.64,-991.74,96.25,-638.75,-402.50,1,94.354,
01/01/2000,01:32:52.27,16.84,-65.76,-991.74,122.50,-752.50,-341.25,1,94.288,
01/01/2000,01:32:52.28,16.96,-65.64,-991.86,192.50,-708.75,-245.0,1,94.292,
01/01/2000,01:32:52.29,17.08,-65.76,-991.86,192.50,-638.75,-297.50,1,94.296,
01/01/2000,01:32:52.30,17.08,-65.88,-991.74,192.50,-717.50,-358.75,1,94.301,
01/01/2000,01:32:52.31,16.96,-65.64,-991.62,122.50,-630.0,-306.25,1,94.305,
01/01/2000,01:32:52.32,16.96,-65.64,-991.74,148.75,-612.50,-507.50,1,94.309,
01/01/2000,01:32:52.33,16.96,-65.64,-991.86,78.75,-621.25,-210.0,1,94.313,
01/01/2000,01:32:52.35,16.84,-65.88,-991.86,105.0,-656.25,-297.50,1,94.317,
01/01/2000,01:32:52.36,16.84,-65.88,-991.86,245.0,-638.75,-376.25,1,94.322,
01/01/2000,01:32:52.37,16.84,-65.76,-991.86,262.50,-717.50,-376.25,1,94.326,
01/01/2000,01:32:52.38,16.84,-65.76,-991.98,175.0,-717.50,-332.50,1,94.330,
01/01/2000,01:32:52.39,16.84,-65.64,-992.10,140.0,-708.75,-288.75,1,94.334,
01/01/2000,01:32:52.40,16.84,-65.51,-992.10,113.75,-726.25,-253.75,1,94.338,
01/01/2000,01:32:52.41,16.84,-65.76,-992.10,166.25,-682.50,-332.50,1,94.342,
01/01/2000,01:32:52.42,16.96,-65.88,-991.86,61.25,-647.50,-402.50,1,94.277,
01/01/2000,01:32:52.43,17.08,-65.76,-991.86,157.50,-805.0,-411.25,1,94.282,
01/01/2000,01:32:52.44,17.08,-65.64,-991.98,262.50,-743.75,-323.75,1,94.286,
01/01/2000,01:32:52.45,16.84,-65.64,-991.98,201.25,-621.25,-350.0,1,94.290,
01/01/2000,01:32:52.46,16.84,-65.51,-991.86,183.75,-665.0,-350.0,1,94.294,
01/01/2000,01:32:52.47,16.96,-65.64,-991.74,227.50,-673.75,-367.50,1,94.298,
01/01/2000,01:32:52.49,16.96,-65.76,-991.74,140.0,-638.75,-411.25,1,94.302,
01/01/2000,01:32:52.50,16.96,-65.51,-991.62,210.0,-647.50,-411.25,1,94.307,
01/01/2000,01:32:52.51,16.84,-65.39,-991.62,43.75,-656.25,-280.0,1,94.311,
01/01/2000,01:32:52.52,16.71,-65.39,-991.86,175.0,-700.0,-358.75,1,94.315,
01/01/2000,01:32:52.53,16.59,-65.39,-991.86,192.50,-665.0,-402.50,1,94.319,
01/01/2000,01:32:52.54,16.59,-65.39,-991.86,87.50,-673.75,-376.25,1,94.323,
01/01/2000,01:32:52.55,16.59,-65.39,-991.86,192.50,-673.75,-350.0,1,94.327,
01/01/2000,01:32:52.56,16.59,-65.51,-991.98,245.0,-577.50,-428.75,1,94.331,
01/01/2000,01:32:52.57,16.47,-65.51,-991.86,87.50,-796.25,-332.50,1,94.336,
01/01/2000,01:32:52.58,16.59,-65.39,-991.98,52.50,-822.50,-271.25,1,94.340,
01/01/2000,01:32:52.60,16.59,-65.51,-991.98,183.75,-717.50,-306.25,1,94.275,
01/01/2000,01:32:52.61,16.59,-65.64,-991.86,43.75,-787.50,-411.25,1,94.280,
01/01/2000,01:32:52.62,16.84,-65.88,-991.98,210.0,-743.75,-376.25,1,94.284,
01/01/2000,01:32:52.63,16.84,-65.76,-991.98,61.25,-603.75,-393.75,1,94.288,
01/01/2000,01:32:52.64,16.96,-65.88,-992.10,157.50,-735.0,-341.25,1,94.292,
01/01/2000,01:32:52.65,16.96,-65.64,-991.86,227.50,-656.25,-376.25,1,94.296,
01/01/2000,01:32:52.66,16.84,-65.64,-991.86,105.0,-630.0,-332.50,1,94.300,
01/01/2000,01:32:52.67,16.84,-65.64,-991.74,17.50,-656.25,-271.25,1,94.304,
01/01/2000,01:32:52.68,16.59,-65.76,-991.86,122.50,-638.75,-323.75,1,94.308,
01/01/2000,01:32:52.69,16.84,-65.76,-991.98,0.0,-700.0,-437.50,1,94.312,
01/01/2000,01:32:52.70,16.96,-65.76,-991.98,227.50,-735.0,-463.75,1,94.249,
01/01/2000,01:32:52.71,16.84,-65.64,-991.86,96.25,-682.50,-341.25,1,94.321,
01/01/2000,01:32:52.72,16.71,-65.64,-991.86,175.0,-647.50,-385.0,1,94.257,
01/01/2000,01:32:52.73,16.71,-65.51,-991.86,70.0,-665.0,-201.25,1,94.261,
01/01/2000,01:32:52.74,16.84,-65.64,-991.86,140.0,-708.75,-350.0,1,94.265,
01/01/2000,01:32:52.75,16.84,-65.76,-991.86,105.0,-743.75,-341.25,1,94.269,
01/01/2000,01:32:52.76,16.84,-65.88,-991.86,113.75,-735.0,-323.75,1,94.273,
01/01/2000,01:32:52.78,16.84,-65.88,-991.86,183.75,-778.75,-463.75,1,94.278,
01/01/2000,01:32:52.79,16.71,-65.88,-991.86,323.75,-735.0,-376.25,1,94.282,
01/01/2000,01:32:52.80,16.59,-65.76,-992.10,87.50,-647.50,-288.75,1,94.286,
01/01/2000,01:32:52.81,16.71,-65.76,-991.98,87.50,-708.75,-332.50,1,94.290,
01/01/2000,01:32:52.82,16.84,-65.88,-991.98,218.75,-717.50,-420.0,1,94.294,
01/01/2000,01:32:52.83,16.84,-65.88,-991.86,175.0,-682.50,-367.50,1,94.298,
01/01/2000,01:32:52.84,16.84,-65.88,-991.86,52.50,-805.0,-455.0,1,94.302,
01/01/2000,01:32:52.85,16.84,-65.64,-991.98,35.0,-665.0,-227.50,1,94.306,
01/01/2000,01:32:52.86,16.84,-65.64,-991.74,253.75,-735.0,-420.0,1,94.310,
01/01/2000,01:32:52.87,16.71,-65.64,-991.62,61.25,-638.75,-271.25,1,94.314,
01/01/2000,01:32:52.88,16.71,-65.51,-991.74,148.75,-700.0,-288.75,1,94.318,
01/01/2000,01:32:52.89,16.84,-65.76,-991.62,-26.25,-647.50,-437.50,1,94.322,
01/01/2000,01:32:52.90,16.71,-65.64,-991.62,280.0,-700.0,-393.75,1,94.326,
01/01/2000,01:32:52.91,16.84,-65.76,-991.62,175.0,-761.25,-350.0,1,94.263,
01/01/2000,01:32:52.92,16.71,-65.64,-991.49,131.25,-726.25,-455.0,1,94.268,
01/01/2000,01:32:52.93,16.71,-65.64,-991.62,87.50,-726.25,-315.0,1,94.272,
01/01/2000,01:32:52.94,16.84,-65.76,-991.62,87.50,-708.75,-402.50,1,94.276,
01/01/2000,01:32:52.95,16.96,-65.64,-991.62,105.0,-691.25,-420.0,1,94.280,
01/01/2000,01:32:52.96,16.84,-65.64,-991.62,218.75,-656.25,-315.0,1,94.284,
01/01/2000,01:32:52.97,16.71,-65.64,-991.62,70.0,-673.75,-306.25,1,94.288,
01/01/2000,01:32:52.99,16.71,-65.64,-991.49,175.0,-708.75,-507.50,1,94.292,
01/01/2000,01:32:53.00,16.71,-65.64,-991.62,201.25,-638.75,-288.75,1,94.296,
01/01/2000,01:32:53.01,16.71,-65.39,-991.62,236.25,-638.75,-297.50,1,94.300,
01/01/2000,01:32:53.02,16.84,-65.64,-991.62,148.75,-673.75,-262.50,1,94.304,
01/01/2000,01:32:53.03,16.84,-65.64,-991.62,122.50,-665.0,-253.75,1,94.308,
01/01/2000,01:32:53.04,16.59,-65.76,-991.62,192.50,-778.75,-420.0,1,94.312,
01/01/2000,01:32:53.05,16.71,-65.76,-991.49,105.0,-796.25,-332.50,1,94.316,
01/01/2000,01:32:53.06,16.59,-65.64,-991.49,131.25,-770.0,-271.25,1,94.320,
01/01/2000,01:32:53.07,16.71,-65.51,-991.49,271.25,-735.0,-280.0,1,94.258,
01/01/2000,01:32:53.08,16.84,-65.64,-991.49,192.50,-673.75,-358.75,1,94.262,
01/01/2000,01:32:53.09,16.84,-65.64,-991.49,131.25,-665.0,-341.25,1,94.266,
01/01/2000,01:32:53.11,16.84,-65.76,-991.37,157.50,-682.50,-341.25,1,94.270,
01/01/2000,01:32:53.12,16.84,-65.64,-991.62,245.0,-612.50,-376.25,1,94.274,
01/01/2000,01:32:53.13,16.84,-65.39,-991.62,253.75,-726.25,-332.50,1,94.278,
01/01/2000,01:32:53.14,16.84,-65.27,-991.62,8.75,-621.25,-358.75,1,94.282,
01/01/2000,01:32:53.15,16.84,-65.39,-991.62,253.75,-647.50,-315.0,1,94.286,
01/01/2000,01:32:53.16,16.84,-65.39,-991.62,253.75,-682.50,-315.0,1,94.290,
01/01/2000,01:32:53.17,16.96,-65.51,-991.62,52.50,-682.50,-315.0,1,94.294,
01/01/2000,01:32:53.18,16.96,-65.64,-991.62,323.75,-743.75,-402.50,1,94.298,
01/01/2000,01:32:53.19,16.84,-65.64,-991.62,192.50,-717.50,-350.0,1,94.302,
01/01/2000,01:32:53.20,16.84,-65.64,-991.62,183.75,-761.25,-455.0,1,94.306,
01/01/2000,01:32:53.21,16.84,-65.39,-991.62,175.0,-700.0,-393.75,1,94.310,
01/01/2000,01:32:53.22,16.84,-65.51,-991.74,183.75,-612.50,-402.50,1,94.313,
01/01/2000,01:32:53.23,16.84,-65.51,-991.86,131.25,-717.50,-341.25,1,94.317,
01/01/2000,01:32:53.24,16.84,-65.64,-991.86,236.25,-612.50,-315.0,1,94.321,
01/01/2000,01:32:53.25,16.84,-65.64,-991.74,148.75,-726.25,-428.75,1,94.325,
01/01/2000,01:32:53.26,16.96,-65.64,-991.74,236.25,-700.0,-332.50,1,94.264,
01/01/2000,01:32:53.27,16.96,-65.64,-991.86,78.75,-673.75,-490.0,1,94.268,
01/01/2000,01:32:53.28,16.96,-65.64,-991.86,245.0,-665.0,-332.50,1,94.272,
01/01/2000,01:32:53.29,17.08,-65.51,-991.62,280.0,-743.75,-455.0,1,94.276,
01/01/2000,01:32:53.31,16.96,-65.64,-991.49,26.25,-743.75,-262.50,1,94.280,
01/01/2000,01:32:53.31,17.08,-65.64,-991.49,131.25,-735.0,-297.50,1,94.284,
01/01/2000,01:32:53.33,16.96,-65.51,-991.37,140.0,-770.0,-402.50,1,94.288,
01/01/2000,01:32:53.34,16.84,-65.39,-991.62,122.50,-778.75,-411.25,1,94.292,
01/01/2000,01:32:53.35,16.84,-65.64,-991.62,253.75,-665.0,-420.0,1,94.296,
01/01/2000,01:32:53.36,17.08,-65.39,-991.62,218.75,-778.75,-385.0,1,94.299,
01/01/2000,01:32:53.37,16.96,-65.39,-991.62,131.25,-752.50,-385.0,1,94.303,
01/01/2000,01:32:53.38,17.08,-65.15,-991.37,323.75,-656.25,-385.0,1,94.307,
01/01/2000,01:32:53.39,17.08,-65.39,-991.25,201.25,-726.25,-411.25,1,94.311,
01/01/2000,01:32:53.40,16.96,-65.39,-991.25,227.50,-691.25,-288.75,1,94.315,
01/01/2000,01:32:53.41,16.84,-65.39,-991.13,113.75,-586.25,-315.0,1,94.254,
01/01/2000,01:32:53.42,16.71,-65.39,-991.13,253.75,-726.25,-297.50,1,94.258,
01/01/2000,01:32:53.43,16.84,-65.64,-991.13,113.75,-778.75,-297.50,1,94.262,
01/01/2000,01:32:53.44,16.84,-65.51,-991.37,70.0,-682.50,-393.75,1,94.266,
01/01/2000,01:32:53.45,16.84,-65.51,-991.37,157.50,-682.50,-262.50,1,94.270,
01/01/2000,01:32:53.46,16.84,-65.64,-991.25,122.50,-691.25,-376.25,1,94.274,
01/01/2000,01:32:53.48,16.84,-65.51,-991.13,87.50,-621.25,-262.50,1,94.278,
01/01/2000,01:32:53.49,16.84,-65.39,-991.13,175.0,-560.0,-341.25,1,94.282,
01/01/2000,01:32:53.50,16.84,-65.64,-991.13,227.50,-717.50,-332.50,1,94.286,
01/01/2000,01:32:53.51,16.84,-65.39,-991.25,148.75,-708.75,-358.75,1,94.290,
01/01/2000,01:32:53.52,16.84,-65.51,-991.01,166.25,-813.75,-428.75,1,94.293,
01/01/2000,01:32:53.53,16.84,-65.51,-990.88,192.50,-638.75,-253.75,1,94.297,
01/01/2000,01:32:53.54,16.84,-65.39,-990.88,113.75,-717.50,-323.75,1,94.301,
01/01/2000,01:32:53.55,16.84,-65.64,-990.88,175.0,-735.0,-376.25,1,94.305,
01/01/2000,01:32:53.56,17.08,-65.64,-991.13,227.50,-691.25,-315.0,1,94.309,
01/01/2000,01:32:53.57,16.96,-65.64,-991.13,218.75,-778.75,-367.50,1,94.313,
01/01/2000,01:32:53.58,16.84,-65.64,-991.37,183.75,-673.75,-245.0,1,94.317,
01/01/2000,01:32:53.59,16.96,-65.64,-991.37,113.75,-778.75,-393.75,1,94.320,
01/01/2000,01:32:53.60,17.08,-65.64,-991.25,96.25,-787.50,-367.50,1,94.324,
01/01/2000,01:32:53.62,17.08,-65.64,-991.25,26.25,-796.25,-437.50,1,94.265,
01/01/2000,01:32:53.63,16.84,-65.64,-991.25,148.75,-542.50,-385.0,1,94.268,
01/01/2000,01:32:53.64,16.84,-65.51,-991.13,105.0,-656.25,-271.25,1,94.272,
01/01/2000,01:32:53.65,16.84,-65.51,-991.13,96.25,-673.75,-297.50,1,94.276,
01/01/2000,01:32:53.66,16.84,-65.64,-991.13,157.50,-612.50,-323.75,1,94.280,
01/01/2000,01:32:53.67,16.84,-65.64,-991.25,148.75,-735.0,-245.0,1,94.284,
01/01/2000,01:32:53.68,16.84,-65.64,-991.37,218.75,-700.0,-455.0,1,94.288,
01/01/2000,01:32:53.69,16.84,-65.64,-991.37,140.0,-700.0,-288.75,1,94.291,
01/01/2000,01:32:53.70,16.84,-65.64,-991.37,218.75,-542.50,-341.25,1,94.232,
01/01/2000,01:32:53.71,16.84,-65.64,-991.37,131.25,-682.50,-288.75,1,94.236,
01/01/2000,01:32:53.72,17.08,-65.51,-991.37,131.25,-805.0,-341.25,1,94.240,
01/01/2000,01:32:53.73,18.30,-65.64,-990.27,262.50,-507.50,-411.25,1,94.244,
01/01/2000,01:32:53.74,19.76,-65.27,-989.18,437.50,-778.75,-525.0,1,94.247,
01/01/2000,01:32:53.75,20.98,-64.90,-988.32,-87.50,-770.0,-280.0,1,94.251,
01/01/2000,01:32:53.76,22.57,-66.12,-987.83,323.75,-621.25,-218.75,1,94.255,
01/01/2000,01:32:53.77,22.81,-65.88,-987.35,175.0,-708.75,-542.50,1,94.259,
01/01/2000,01:32:53.78,22.81,-65.76,-986.13,87.50,-665.0,-420.0,1,94.263,
01/01/2000,01:32:53.79,22.69,-64.90,-983.32,227.50,-621.25,-385.0,1,94.267,
01/01/2000,01:32:53.80,22.69,-64.29,-981.86,131.25,-682.50,-288.75,1,94.270,
01/01/2000,01:32:53.81,22.94,-64.78,-981.37,183.75,-665.0,-227.50,1,94.274,
01/01/2000,01:32:53.82,23.42,-65.15,-982.22,113.75,-708.75,-446.25,1,94.278,
01/01/2000,01:32:53.84,24.40,-65.76,-983.44,87.50,-735.0,-603.75,1,94.282,
01/01/2000,01:32:53.85,25.74,-65.39,-982.83,218.75,-612.50,-446.25,1,94.286,
01/01/2000,01:32:53.86,26.72,-64.42,-980.88,175.0,-525.0,-612.50,1,94.290,
01/01/2000,01:32:53.87,27.69,-64.17,-978.20,148.75,-533.75,-218.75,1,94.293,
01/01/2000,01:32:53.88,28.67,-64.05,-975.88,218.75,-708.75,-323.75,1,94.297,
01/01/2000,01:32:53.89,29.52,-64.54,-975.02,-70.0,-778.75,-192.50,1,94.301,
01/01/2000,01:32:53.90,30.26,-65.76,-976.49,271.25,-813.75,-428.75,1,94.305,
01/01/2000,01:32:53.91,29.52,-65.51,-979.66,61.25,-761.25,-376.25,1,94.246,
01/01/2000,01:32:53.92,28.43,-65.15,-981.12,105.0,-735.0,-376.25,1,94.312,
01/01/2000,01:32:53.93,27.21,-64.17,-982.22,52.50,-717.50,-210.0,1,94.254,
01/01/2000,01:32:53.94,26.35,-64.17,-982.47,227.50,-726.25,-8.75,1,94.257,
01/01/2000,01:32:53.95,25.01,-64.54,-982.10,113.75,-682.50,-175.0,1,94.261,
01/01/2000,01:32:53.96,24.16,-65.15,-982.22,245.0,-735.0,-341.25,1,94.265,
01/01/2000,01:32:53.98,23.67,-65.76,-982.83,148.75,-752.50,-568.75,1,94.269,
01/01/2000,01:32:53.99,23.55,-65.39,-983.56,227.50,-761.25,-446.25,1,94.273,
01/01/2000,01:32:54.00,23.42,-64.66,-984.42,87.50,-840.0,-411.25,1,94.276,
01/01/2000,01:32:54.01,23.67,-64.54,-985.15,192.50,-603.75,-306.25,1,94.280,
01/01/2000,01:32:54.02,24.03,-64.54,-985.52,183.75,-717.50,-236.25,1,94.284,
01/01/2000,01:32:54.03,24.03,-64.78,-985.27,-26.25,-770.0,-183.75,1,94.288,
01/01/2000,01:32:54.04,23.18,-65.88,-985.15,105.0,-778.75,-280.0,1,94.291,
01/01/2000,01:32:54.05,21.23,-66.00,-985.52,218.75,-761.25,-280.0,1,94.295,
01/01/2000,01:32:54.06,19.03,-65.64,-986.00,17.50,-691.25,-306.25,1,94.299,
01/01/2000,01:32:54.07,17.08,-65.15,-986.74,131.25,-735.0,-297.50,1,94.303,
01/01/2000,01:32:54.08,15.25,-64.29,-987.71,192.50,-647.50,-498.75,1,94.306,
01/01/2000,01:32:54.09,15.62,-64.29,-988.81,140.0,-638.75,-306.25,1,94.310,
01/01/2000,01:32:54.10,16.84,-64.54,-989.91,218.75,-630.0,-446.25,1,94.314,
01/01/2000,01:32:54.11,19.28,-65.51,-990.64,61.25,-647.50,-323.75,1,94.256,
01/01/2000,01:32:54.13,20.98,-66.37,-990.64,105.0,-743.75,-428.75,1,94.260,
01/01/2000,01:32:54.14,20.74,-66.00,-990.88,17.50,-726.25,-323.75,1,94.263,
01/01/2000,01:32:54.15,20.13,-65.39,-991.25,175.0,-787.50,-288.75,1,94.267,
01/01/2000,01:32:54.16,19.52,-64.90,-991.37,78.75,-682.50,-192.50,1,94.271,
01/01/2000,01:32:54.17,18.54,-64.66,-991.62,17.50,-743.75,-96.25,1,94.275,
01/01/2000,01:32:54.18,17.32,-65.03,-991.62,227.50,-621.25,-43.75,1,94.278,
01/01/2000,01:32:54.19,16.10,-65.51,-990.64,78.75,-638.75,-175.0,1,94.282,
01/01/2000,01:32:54.20,15.01,-65.88,-989.42,227.50,-700.0,-455.0,1,94.286,
01/01/2000,01:32:54.21,14.27,-65.27,-988.93,157.50,-735.0,-525.0,1,94.289,
01/01/2000,01:32:54.22,14.88,-65.03,-989.79,140.0,-726.25,-428.75,1,94.293,
01/01/2000,01:32:54.23,15.86,-64.66,-991.13,26.25,-551.25,-332.50,1,94.297,
01/01/2000,01:32:54.24,17.08,-64.66,-992.59,122.50,-551.25,-201.25,1,94.301,
01/01/2000,01:32:54.25,18.54,-65.03,-992.84,122.50,-638.75,-262.50,1,94.243,
01/01/2000,01:32:54.26,18.67,-65.39,-992.35,87.50,-656.25,-253.75,1,94.247,
01/01/2000,01:32:54.27,18.30,-65.64,-991.62,166.25,-665.0,-437.50,1,94.251,
01/01/2000,01:32:54.28,18.06,-65.64,-991.25,166.25,-717.50,-437.50,1,94.254,
01/01/2000,01:32:54.29,17.69,-64.90,-991.01,43.75,-717.50,-358.75,1,94.258,
01/01/2000,01:32:54.30,17.81,-64.78,-991.13,192.50,-568.75,-323.75,1,94.262,
01/01/2000,01:32:54.31,17.69,-64.66,-990.88,26.25,-691.25,-210.0,1,94.265,
01/01/2000,01:32:54.32,17.20,-65.27,-990.64,122.50,-726.25,-131.25,1,94.269,
01/01/2000,01:32:54.33,15.86,-65.88,-990.52,245.0,-691.25,-315.0,1,94.273,
01/01/2000,01:32:54.34,15.13,-66.00,-990.76,78.75,-682.50,-516.25,1,94.277,
01/01/2000,01:32:54.35,14.88,-65.51,-991.25,192.50,-621.25,-551.25,1,94.280,
01/01/2000,01:32:54.36,15.25,-64.66,-991.86,306.25,-787.50,-280.0,1,94.284,
01/01/2000,01:32:54.37,16.23,-64.54,-991.86,140.0,-647.50,-236.25,1,94.288,
01/01/2000,01:32:54.38,17.20,-64.78,-991.86,70.0,-778.75,-183.75,1,94.291,
01/01/2000,01:32:54.40,18.67,-65.51,-992.47,113.75,-805.0,-236.25,1,94.295,
01/01/2000,01:32:54.41,19.15,-66.37,-992.96,218.75,-682.50,-516.25,1,94.299,
01/01/2000,01:32:54.42,19.03,-66.00,-993.08,8.75,-673.75,-463.75,1,94.302,
01/01/2000,01:32:54.43,18.79,-65.64,-991.98,201.25,-717.50,-393.75,1,94.306,
01/01/2000,01:32:54.44,17.69,-64.42,-990.88,-17.50,-682.50,-131.25,1,94.309,
01/01/2000,01:32:54.45,16.84,-64.54,-989.79,166.25,-638.75,-131.25,1,94.313,
01/01/2000,01:32:54.46,15.37,-65.15,-989.54,0.0,-700.0,-157.50,1,94.317,
01/01/2000,01:32:54.47,14.76,-65.76,-990.03,175.0,-743.75,-280.0,1,94.260,
01/01/2000,01:32:54.48,14.64,-65.88,-990.88,148.75,-595.0,-463.75,1,94.264,
01/01/2000,01:32:54.49,15.01,-65.15,-991.62,210.0,-595.0,-411.25,1,94.268,
01/01/2000,01:32:54.50,15.74,-64.42,-991.37,8.75,-708.75,-463.75,1,94.271,
01/01/2000,01:32:54.51,16.71,-64.54,-991.49,96.25,-708.75,-236.25,1,94.275,
01/01/2000,01:32:54.52,17.93,-64.54,-991.62,131.25,-787.50,-262.50,1,94.278,
01/01/2000,01:32:54.54,19.15,-65.64,-992.47,122.50,-761.25,-341.25,1,94.282,
01/01/2000,01:32:54.55,19.76,-66.00,-993.45,183.75,-691.25,-542.50,1,94.286,
01/01/2000,01:32:54.56,20.01,-65.51,-993.57,43.75,-630.0,-463.75,1,94.289,
01/01/2000,01:32:54.57,19.76,-64.90,-992.59,175.0,-752.50,-341.25,1,94.293,
01/01/2000,01:32:54.58,18.79,-63.93,-991.13,183.75,-726.25,-131.25,1,94.297,
01/01/2000,01:32:54.59,18.06,-63.93,-989.66,227.50,-822.50,-96.25,1,94.300,
01/01/2000,01:32:54.60,15.98,-64.90,-988.93,35.0,-761.25,-35.0,1,94.304,
01/01/2000,01:32:54.61,14.27,-65.88,-990.40,166.25,-726.25,-367.50,1,94.307,
01/01/2000,01:32:54.62,13.66,-65.64,-991.98,122.50,-673.75,-586.25,1,94.311,
01/01/2000,01:32:54.63,14.27,-64.17,-993.08,227.50,-638.75,-568.75,1,94.255,
01/01/2000,01:32:54.65,15.49,-63.44,-992.59,35.0,-603.75,-201.25,1,94.259,
01/01/2000,01:32:54.66,17.20,-63.81,-990.76,192.50,-726.25,-78.75,1,94.262,
01/01/2000,01:32:54.67,18.06,-64.66,-989.91,105.0,-673.75,-148.75,1,94.266,
01/01/2000,01:32:54.68,18.67,-66.00,-989.66,148.75,-805.0,-516.25,1,94.270,
01/01/2000,01:32:54.69,18.91,-66.25,-991.25,175.0,-708.75,-516.25,1,94.273,
01/01/2000,01:32:54.70,18.91,-65.39,-992.35,-52.50,-726.25,-472.50,1,94.277,
01/01/2000,01:32:54.71,18.06,-64.29,-992.59,210.0,-638.75,-297.50,1,94.280,
01/01/2000,01:32:54.72,16.35,-63.32,-991.86,61.25,-665.0,157.50,1,94.284,
01/01/2000,01:32:54.73,15.01,-63.44,-990.03,52.50,-682.50,-61.25,1,94.288,
01/01/2000,01:32:54.74,13.79,-64.66,-988.81,183.75,-630.0,-402.50,1,94.291,
01/01/2000,01:32:54.75,14.15,-65.15,-988.44,166.25,-726.25,-612.50,1,94.295,
01/01/2000,01:32:54.76,15.25,-65.64,-988.81,218.75,-726.25,-665.0,1,94.298,
01/01/2000,01:32:54.77,17.32,-65.27,-990.15,122.50,-682.50,-577.50,1,94.302,
01/01/2000,01:32:54.78,18.06,-64.54,-991.01,61.25,-691.25,-315.0,1,94.305,
01/01/2000,01:32:54.79,18.91,-64.29,-991.86,113.75,-682.50,-262.50,1,94.309,
01/01/2000,01:32:54.80,19.40,-64.29,-992.47,245.0,-717.50,-175.0,1,94.313,
01/01/2000,01:32:54.81,19.28,-64.66,-992.47,0.0,-735.0,-166.25,1,94.316,
01/01/2000,01:32:54.82,18.91,-65.27,-991.86,26.25,-630.0,-280.0,1,94.261,
01/01/2000,01:32:54.83,17.93,-65.64,-991.37,175.0,-708.75,-306.25,1,94.264,
01/01/2000,01:32:54.84,16.84,-65.27,-991.86,61.25,-805.0,-280.0,1,94.268,
01/01/2000,01:32:54.85,15.74,-65.39,-992.35,52.50,-752.50,-385.0,1,94.271,
01/01/2000,01:32:54.86,14.76,-64.90,-992.59,227.50,-595.0,-332.50,1,94.275,
01/01/2000,01:32:54.87,14.40,-64.05,-991.86,245.0,-621.25,-332.50,1,94.279,
01/01/2000,01:32:54.89,15.37,-64.42,-990.52,113.75,-603.75,-227.50,1,94.282,
01/01/2000,01:32:54.90,16.47,-65.03,-989.79,-52.50,-700.0,-420.0,1,94.286,
01/01/2000,01:32:54.91,17.20,-65.39,-989.18,245.0,-682.50,-411.25,1,94.289,
01/01/2000,01:32:54.92,17.69,-65.88,-988.69,192.50,-682.50,-507.50,1,94.293,
01/01/2000,01:32:54.93,18.30,-65.51,-989.18,166.25,-717.50,-437.50,1,94.296,
01/01/2000,01:32:54.94,18.79,-64.66,-990.52,175.0,-761.25,-367.50,1,94.300,
01/01/2000,01:32:54.95,19.15,-64.17,-991.49,140.0,-621.25,-210.0,1,94.303,
01/01/2000,01:32:54.96,18.91,-64.17,-991.74,175.0,-717.50,-166.25,1,94.307,
01/01/2000,01:32:54.97,17.81,-64.90,-991.25,201.25,-726.25,43.75,1,94.310,
01/01/2000,01:32:54.98,16.23,-65.27,-990.64,183.75,-822.50,-332.50,1,94.314,
01/01/2000,01:32:54.99,14.64,-65.64,-990.64,236.25,-735.0,-621.25,1,94.317,
01/01/2000,01:32:55.00,14.64,-65.27,-991.74,122.50,-638.75,-752.50,1,94.321,
01/01/2000,01:32:55.01,14.88,-64.54,-992.71,122.50,-726.25,-525.0,1,94.324,
01/01/2000,01:32:55.02,15.49,-64.05,-992.59,43.75,-682.50,-78.75,1,94.328,
01/01/2000,01:32:55.03,16.23,-64.05,-991.25,43.75,-603.75,-166.25,1,94.273,
01/01/2000,01:32:55.04,16.47,-64.66,-990.03,166.25,-743.75,-253.75,1,94.277,
01/01/2000,01:32:55.05,17.32,-65.64,-988.93,70.0,-770.0,-358.75,1,94.280,
01/01/2000,01:32:55.06,18.06,-65.88,-989.18,245.0,-656.25,-560.0,1,94.284,
01/01/2000,01:32:55.07,18.91,-65.39,-989.79,122.50,-796.25,-490.0,1,94.287,
01/01/2000,01:32:55.08,19.28,-64.90,-990.64,166.25,-726.25,-175.0,1,94.291,
01/01/2000,01:32:55.10,17.81,-64.42,-991.98,183.75,-726.25,17.50,1,94.294,
01/01/2000,01:32:55.11,16.35,-64.78,-992.59,157.50,-673.75,-122.50,1,94.298,
01/01/2000,01:32:55.12,14.40,-64.90,-992.71,192.50,-630.0,-490.0,1,94.301,
01/01/2000,01:32:55.13,13.91,-64.90,-992.59,148.75,-682.50,-367.50,1,94.305,
01/01/2000,01:32:55.14,15.25,-64.78,-991.74,131.25,-630.0,-708.75,1,94.251,
01/01/2000,01:32:55.15,18.06,-64.42,-992.10,26.25,-708.75,-446.25,1,94.254,
01/01/2000,01:32:55.16,19.89,-64.66,-992.84,87.50,-656.25,-192.50,1,94.258,
01/01/2000,01:32:55.18,20.74,-65.15,-993.32,175.0,-586.25,-210.0,1,94.261,
01/01/2000,01:32:55.19,20.62,-65.27,-992.35,35.0,-682.50,-253.75,1,94.265,
01/01/2000,01:32:55.20,19.28,-64.66,-990.64,-113.75,-638.75,-297.50,1,94.268,
01/01/2000,01:32:55.21,18.18,-64.17,-989.18,183.75,-726.25,-271.25,1,94.272,
01/01/2000,01:32:55.22,16.59,-63.81,-988.69,35.0,-813.75,-157.50,1,94.275,
01/01/2000,01:32:55.23,15.13,-64.17,-989.42,183.75,-735.0,-26.25,1,94.279,
01/01/2000,01:32:55.24,13.54,-64.90,-991.13,262.50,-586.25,-472.50,1,94.282,
01/01/2000,01:32:55.25,13.18,-64.66,-991.62,183.75,-647.50,-402.50,1,94.286,
01/01/2000,01:32:55.26,13.91,-64.05,-991.37,140.0,-577.50,-551.25,1,94.289,
01/01/2000,01:32:55.27,15.13,-63.44,-990.15,-26.25,-752.50,-402.50,1,94.293,
01/01/2000,01:32:55.28,17.57,-63.56,-989.91,227.50,-752.50,-227.50,1,94.296,
01/01/2000,01:32:55.29,19.28,-64.42,-990.64,8.75,-805.0,-218.75,1,94.300,
01/01/2000,01:32:55.30,19.64,-65.27,-991.62,8.75,-848.75,-297.50,1,94.303,
01/01/2000,01:32:55.31,18.79,-65.51,-992.84,61.25,-682.50,-323.75,1,94.306,
01/01/2000,01:32:55.32,18.30,-64.78,-993.45,0.0,-612.50,-533.75,1,94.310,
01/01/2000,01:32:55.33,18.18,-63.81,-993.81,96.25,-638.75,-288.75,1,94.313,
01/01/2000,01:32:55.34,17.69,-63.44,-993.08,-43.75,-665.0,96.25,1,94.317,
01/01/2000,01:32:55.35,16.59,-63.93,-991.86,192.50,-796.25,70.0,1,94.320,
01/01/2000,01:32:55.36,15.49,-64.66,-990.40,105.0,-700.0,-332.50,1,94.324,
01/01/2000,01:32:55.37,14.64,-65.39,-989.18,52.50,-665.0,-621.25,1,94.327,
01/01/2000,01:32:55.39,15.13,-65.27,-989.79,262.50,-656.25,-743.75,1,94.274,
01/01/2000,01:32:55.40,17.08,-64.66,-990.64,271.25,-735.0,-551.25,1,94.277,
01/01/2000,01:32:55.41,18.54,-64.17,-991.74,113.75,-682.50,-367.50,1,94.281,
01/01/2000,01:32:55.42,19.28,-63.93,-992.35,105.0,-638.75,-113.75,1,94.284,
01/01/2000,01:32:55.43,19.03,-64.42,-992.10,262.50,-691.25,-17.50,1,94.287,
01/01/2000,01:32:55.44,18.06,-64.90,-991.25,-105.0,-612.50,-437.50,1,94.291,
01/01/2000,01:32:55.45,18.06,-65.27,-991.01,236.25,-665.0,-428.75,1,94.294,
01/01/2000,01:32:55.46,17.57,-64.78,-991.13,131.25,-647.50,-245.0,1,94.298,
01/01/2000,01:32:55.47,16.59,-64.29,-991.25,61.25,-770.0,-157.50,1,94.301,
01/01/2000,01:32:55.48,15.62,-64.29,-991.62,166.25,-761.25,-201.25,1,94.305,
01/01/2000,01:32:55.49,14.64,-64.17,-992.47,105.0,-560.0,-385.0,1,94.308,
01/01/2000,01:32:55.50,14.64,-64.17,-992.96,0.0,-813.75,-315.0,1,94.311,
01/01/2000,01:32:55.51,15.49,-64.42,-993.20,122.50,-621.25,-420.0,1,94.315,
01/01/2000,01:32:55.52,17.20,-64.42,-992.59,166.25,-700.0,-525.0,1,94.262,
01/01/2000,01:32:55.53,17.81,-64.66,-991.25,113.75,-717.50,-306.25,1,94.265,
