rtcDate,rtcTime,aX,aY,aZ,gX,gY,gZ,dataRdy,output_Hz,
01/01/2000,01:05:25.08,18.79,-49.04,-854.37,166.25,-691.25,-332.50,1,100.0,
01/01/2000,01:05:25.10,19.52,-51.12,-885.72,175.0,-682.50,-385.0,1,100.0,
01/01/2000,01:05:25.11,20.01,-51.73,-898.90,218.75,-621.25,-481.25,1,100.0,
01/01/2000,01:05:25.12,20.25,-52.34,-910.61,157.50,-638.75,-253.75,1,100.0,
01/01/2000,01:05:25.13,20.37,-52.83,-920.49,183.75,-805.0,-166.25,1,100.0,
01/01/2000,01:05:25.14,20.50,-53.92,-933.30,297.50,-778.75,-367.50,1,100.0,
01/01/2000,01:05:25.15,20.86,-54.53,-940.50,70.0,-691.25,-297.50,1,100.0,
01/01/2000,01:05:25.16,21.23,-55.14,-946.96,183.75,-673.75,-481.25,1,88.889,
01/01/2000,01:05:25.17,21.47,-55.51,-955.26,262.50,-682.50,-236.25,1,100.0,
01/01/2000,01:05:25.18,21.35,-55.51,-959.90,122.50,-700.0,-341.25,1,90.909,
01/01/2000,01:05:25.19,21.11,-55.51,-963.80,113.75,-726.25,-288.75,1,91.667,
01/01/2000,01:05:25.20,21.11,-55.63,-967.46,166.25,-726.25,-271.25,1,92.308,
01/01/2000,01:05:25.21,21.23,-55.88,-972.10,8.75,-656.25,-376.25,1,92.857,
01/01/2000,01:05:25.22,21.59,-56.24,-974.78,166.25,-656.25,-367.50,1,93.333,
01/01/2000,01:05:25.23,21.59,-56.49,-976.98,148.75,-603.75,-472.50,1,93.750,
01/01/2000,01:05:25.24,21.47,-56.61,-978.81,96.25,-551.25,-350.0,1,94.118,
01/01/2000,01:05:25.25,21.47,-56.61,-981.37,218.75,-717.50,-420.0,1,94.444,
01/01/2000,01:05:25.26,21.47,-56.49,-982.95,192.50,-621.25,-358.75,1,94.737,
01/01/2000,01:05:25.27,21.72,-56.61,-984.54,113.75,-813.75,-262.50,1,95.0,
01/01/2000,01:05:25.28,21.72,-56.97,-985.52,-26.25,-638.75,-358.75,1,95.238,
01/01/2000,01:05:25.30,21.72,-57.22,-986.61,175.0,-656.25,-437.50,1,95.455,
01/01/2000,01:05:25.31,21.72,-57.22,-987.71,96.25,-761.25,-315.0,1,95.652,
01/01/2000,01:05:25.32,21.72,-57.34,-988.57,227.50,-840.0,-393.75,1,95.833,
01/01/2000,01:05:25.33,21.72,-57.10,-989.42,297.50,-621.25,-350.0,1,96.0,
01/01/2000,01:05:25.34,21.72,-56.85,-989.91,131.25,-647.50,-253.75,1,96.154,
01/01/2000,01:05:25.35,21.72,-56.97,-990.15,157.50,-656.25,-288.75,1,96.296,
01/01/2000,01:05:25.36,21.84,-57.34,-990.40,183.75,-638.75,-358.75,1,96.429,
01/01/2000,01:05:25.37,22.08,-57.58,-991.13,61.25,-665.0,-297.50,1,96.552,
01/01/2000,01:05:25.38,21.96,-57.58,-991.37,323.75,-630.0,-332.50,1,96.667,
01/01/2000,01:05:25.39,21.72,-57.58,-991.49,192.50,-665.0,-420.0,1,93.750,
01/01/2000,01:05:25.40,21.47,-57.34,-991.62,113.75,-700.0,-411.25,1,96.875,
01/01/2000,01:05:25.41,21.47,-57.22,-991.86,201.25,-673.75,-341.25,1,94.118,
01/01/2000,01:05:25.42,21.96,-57.34,-992.10,201.25,-708.75,-315.0,1,94.286,
01/01/2000,01:05:25.44,22.08,-57.71,-992.23,122.50,-665.0,-341.25,1,94.444,
01/01/2000,01:05:25.45,21.72,-57.83,-992.23,87.50,-743.75,-367.50,1,94.595,
01/01/2000,01:05:25.46,21.59,-57.58,-992.35,166.25,-603.75,-428.75,1,94.737,
01/01/2000,01:05:25.47,21.59,-57.34,-992.59,175.0,-630.0,-315.0,1,94.872,
01/01/2000,01:05:25.48,21.72,-56.97,-992.84,113.75,-603.75,-297.50,1,95.0,
01/01/2000,01:05:25.49,21.84,-57.22,-992.84,192.50,-796.25,-157.50,1,95.122,
01/01/2000,01:05:25.50,21.72,-57.58,-992.59,236.25,-770.0,-358.75,1,95.238,
01/01/2000,01:05:25.51,21.47,-57.83,-992.35,113.75,-700.0,-516.25,1,95.349,
01/01/2000,01:05:25.52,21.72,-57.58,-992.47,157.50,-700.0,-358.75,1,95.455,
01/01/2000,01:05:25.53,21.96,-56.97,-993.08,105.0,-647.50,-288.75,1,95.556,
01/01/2000,01:05:25.54,21.84,-57.10,-993.20,157.50,-813.75,-280.0,1,95.652,
01/01/2000,01:05:25.55,21.72,-57.22,-993.08,227.50,-778.75,-315.0,1,95.745,
01/01/2000,01:05:25.56,21.84,-57.46,-992.84,192.50,-717.50,-323.75,1,95.833,
01/01/2000,01:05:25.57,22.08,-57.58,-992.96,148.75,-743.75,-385.0,1,94.0,
01/01/2000,01:05:25.58,22.20,-57.58,-993.08,245.0,-717.50,-218.75,1,94.118,
01/01/2000,01:05:25.59,21.72,-57.71,-992.84,175.0,-761.25,-323.75,1,94.231,
01/01/2000,01:05:25.61,21.72,-57.58,-992.84,183.75,-603.75,-358.75,1,94.340,
01/01/2000,01:05:25.62,21.96,-57.46,-992.84,175.0,-682.50,-315.0,1,94.444,
01/01/2000,01:05:25.63,22.20,-57.46,-992.96,78.75,-682.50,-323.75,1,94.545,
01/01/2000,01:05:25.64,21.96,-57.71,-992.59,113.75,-752.50,-315.0,1,94.643,
01/01/2000,01:05:25.65,21.72,-57.58,-992.47,78.75,-656.25,-323.75,1,94.737,
01/01/2000,01:05:25.66,21.72,-57.58,-992.59,157.50,-638.75,-315.0,1,94.828,
01/01/2000,01:05:25.67,21.84,-57.34,-993.32,78.75,-717.50,-341.25,1,94.915,
01/01/2000,01:05:25.68,21.96,-57.22,-993.57,148.75,-682.50,-323.75,1,95.0,
01/01/2000,01:05:25.69,21.96,-57.46,-993.57,236.25,-708.75,-288.75,1,95.082,
01/01/2000,01:05:25.70,21.72,-57.58,-993.08,113.75,-630.0,-437.50,1,95.161,
01/01/2000,01:05:25.71,21.59,-57.83,-992.84,105.0,-813.75,-393.75,1,95.238,
01/01/2000,01:05:25.72,21.84,-57.71,-993.08,175.0,-682.50,-385.0,1,93.846,
01/01/2000,01:05:25.73,21.96,-57.58,-993.20,52.50,-621.25,-306.25,1,93.939,
01/01/2000,01:05:25.74,21.72,-57.46,-993.20,140.0,-673.75,-280.0,1,94.030,
01/01/2000,01:05:25.75,21.47,-57.34,-992.96,183.75,-691.25,-393.75,1,94.118,
01/01/2000,01:05:25.76,21.47,-57.34,-993.08,201.25,-621.25,-341.25,1,94.203,
01/01/2000,01:05:25.77,21.72,-57.34,-993.32,236.25,-735.0,-376.25,1,94.286,
01/01/2000,01:05:25.79,21.84,-57.46,-993.32,175.0,-673.75,-236.25,1,94.366,
01/01/2000,01:05:25.80,21.72,-57.46,-993.32,140.0,-638.75,-350.0,1,94.444,
01/01/2000,01:05:25.81,21.47,-57.34,-993.08,210.0,-682.50,-420.0,1,94.521,
01/01/2000,01:05:25.82,21.72,-57.10,-993.32,315.0,-708.75,-306.25,1,94.595,
01/01/2000,01:05:25.83,21.96,-57.10,-993.32,183.75,-708.75,-236.25,1,94.667,
01/01/2000,01:05:25.84,21.72,-57.34,-993.32,280.0,-691.25,-236.25,1,94.737,
01/01/2000,01:05:25.85,21.47,-57.46,-993.20,245.0,-752.50,-455.0,1,94.805,
01/01/2000,01:05:25.86,21.47,-57.58,-993.08,140.0,-673.75,-446.25,1,94.872,
01/01/2000,01:05:25.87,21.72,-57.34,-993.32,227.50,-595.0,-367.50,1,94.937,
01/01/2000,01:05:25.88,21.72,-57.10,-993.32,183.75,-577.50,-358.75,1,95.0,
01/01/2000,01:05:25.89,21.59,-57.10,-993.32,280.0,-682.50,-297.50,1,95.062,
01/01/2000,01:05:25.90,21.59,-57.22,-993.08,105.0,-770.0,-402.50,1,95.122,
01/01/2000,01:05:25.91,21.59,-57.34,-993.08,140.0,-796.25,-341.25,1,95.181,
01/01/2000,01:05:25.92,21.96,-57.34,-993.32,210.0,-647.50,-402.50,1,95.238,
01/01/2000,01:05:25.93,21.72,-57.22,-993.20,148.75,-673.75,-358.75,1,94.186,
01/01/2000,01:05:25.94,21.47,-57.22,-993.20,201.25,-682.50,-367.50,1,94.253,
01/01/2000,01:05:25.95,21.47,-57.10,-993.20,157.50,-673.75,-306.25,1,94.318,
01/01/2000,01:05:25.96,21.72,-57.22,-993.32,148.75,-665.0,-306.25,1,94.382,
01/01/2000,01:05:25.97,21.84,-57.46,-993.57,192.50,-726.25,-315.0,1,94.444,
01/01/2000,01:05:25.98,21.72,-57.58,-993.45,78.75,-665.0,-297.50,1,94.505,
01/01/2000,01:05:26.00,21.72,-57.46,-993.20,113.75,-638.75,-306.25,1,94.565,
01/01/2000,01:05:26.01,21.72,-57.58,-993.20,140.0,-630.0,-350.0,1,94.624,
01/01/2000,01:05:26.02,21.84,-57.58,-993.32,218.75,-586.25,-323.75,1,94.681,
01/01/2000,01:05:26.03,21.72,-57.46,-993.57,140.0,-717.50,-323.75,1,94.737,
01/01/2000,01:05:26.04,21.84,-57.58,-993.20,52.50,-638.75,-201.25,1,94.792,
01/01/2000,01:05:26.05,21.72,-57.83,-993.08,201.25,-700.0,-262.50,1,94.845,
01/01/2000,01:05:26.06,21.72,-57.71,-993.20,236.25,-796.25,-455.0,1,94.898,
01/01/2000,01:05:26.07,21.96,-57.58,-993.20,210.0,-656.25,-437.50,1,94.0,
01/01/2000,01:05:26.08,22.08,-57.46,-993.20,140.0,-743.75,-315.0,1,94.059,
01/01/2000,01:05:26.09,21.96,-57.34,-993.32,166.25,-787.50,-350.0,1,94.118,
01/01/2000,01:05:26.10,21.84,-57.34,-993.20,201.25,-726.25,-297.50,1,94.175,
01/01/2000,01:05:26.12,22.08,-57.46,-993.32,113.75,-743.75,-271.25,1,94.231,
01/01/2000,01:05:26.13,22.20,-57.46,-993.20,105.0,-612.50,-446.25,1,94.286,
01/01/2000,01:05:26.14,22.20,-57.46,-992.96,210.0,-656.25,-315.0,1,94.340,
01/01/2000,01:05:26.15,21.96,-57.34,-992.96,192.50,-708.75,-350.0,1,94.393,
01/01/2000,01:05:26.16,21.96,-57.34,-992.96,210.0,-770.0,-315.0,1,94.444,
01/01/2000,01:05:26.17,21.96,-57.22,-992.96,8.75,-708.75,-420.0,1,94.495,
01/01/2000,01:05:26.18,21.96,-57.22,-992.84,0.0,-682.50,-323.75,1,94.545,
01/01/2000,01:05:26.19,21.84,-57.34,-992.84,87.50,-682.50,-280.0,1,94.595,
01/01/2000,01:05:26.20,21.84,-57.34,-992.84,157.50,-735.0,-341.25,1,94.643,
01/01/2000,01:05:26.21,21.84,-57.46,-992.84,201.25,-603.75,-227.50,1,94.690,
01/01/2000,01:05:26.22,21.96,-57.22,-992.96,148.75,-787.50,-472.50,1,94.737,
01/01/2000,01:05:26.23,21.96,-57.34,-992.84,96.25,-638.75,-210.0,1,94.783,
01/01/2000,01:05:26.24,21.96,-57.10,-992.59,140.0,-796.25,-236.25,1,94.828,
01/01/2000,01:05:26.25,21.84,-57.34,-992.47,262.50,-717.50,-393.75,1,94.872,
01/01/2000,01:05:26.26,21.84,-57.34,-992.71,87.50,-630.0,-420.0,1,94.915,
01/01/2000,01:05:26.27,21.96,-57.58,-992.71,166.25,-691.25,-376.25,1,94.958,
01/01/2000,01:05:26.28,21.84,-57.58,-992.84,192.50,-630.0,-323.75,1,94.215,
01/01/2000,01:05:26.29,21.72,-57.22,-992.71,105.0,-700.0,-525.0,1,94.262,
01/01/2000,01:05:26.30,21.59,-57.22,-992.71,87.50,-656.25,-315.0,1,94.309,
01/01/2000,01:05:26.31,21.72,-57.22,-992.84,140.0,-612.50,-385.0,1,94.355,
01/01/2000,01:05:26.32,21.84,-57.34,-992.84,87.50,-656.25,-420.0,1,94.400,
01/01/2000,01:05:26.33,21.72,-57.34,-992.84,271.25,-743.75,-288.75,1,94.444,
01/01/2000,01:05:26.34,21.96,-57.22,-992.71,87.50,-682.50,-437.50,1,94.488,
01/01/2000,01:05:26.36,21.84,-57.22,-992.71,253.75,-691.25,-332.50,1,94.531,
01/01/2000,01:05:26.37,21.72,-57.10,-992.84,43.75,-595.0,-218.75,1,94.574,
01/01/2000,01:05:26.38,21.72,-57.10,-992.84,218.75,-743.75,-332.50,1,94.615,
01/01/2000,01:05:26.39,21.72,-57.10,-992.71,-52.50,-621.25,-227.50,1,94.656,
01/01/2000,01:05:26.40,21.84,-57.34,-992.84,245.0,-647.50,-306.25,1,94.697,
01/01/2000,01:05:26.41,21.84,-57.34,-992.84,297.50,-743.75,-420.0,1,94.737,
01/01/2000,01:05:26.42,21.84,-57.34,-992.47,131.25,-805.0,-245.0,1,94.776,
01/01/2000,01:05:26.43,21.72,-57.34,-992.23,166.25,-647.50,-393.75,1,94.815,
01/01/2000,01:05:26.44,21.72,-57.34,-992.23,297.50,-717.50,-393.75,1,94.853,
01/01/2000,01:05:26.45,21.72,-56.97,-992.59,96.25,-595.0,-297.50,1,94.891,
01/01/2000,01:05:26.46,21.72,-56.97,-992.59,201.25,-673.75,-385.0,1,94.928,
01/01/2000,01:05:26.47,21.72,-57.10,-992.47,192.50,-743.75,-385.0,1,94.964,
01/01/2000,01:05:26.48,21.72,-57.34,-992.47,183.75,-612.50,-280.0,1,95.0,
01/01/2000,01:05:26.49,21.96,-57.34,-992.47,131.25,-656.25,-367.50,1,94.366,
01/01/2000,01:05:26.50,22.08,-57.10,-992.59,218.75,-822.50,-262.50,1,94.406,
01/01/2000,01:05:26.51,21.96,-57.10,-992.35,78.75,-647.50,-315.0,1,94.444,
01/01/2000,01:05:26.52,21.96,-57.10,-992.35,78.75,-700.0,-350.0,1,94.483,
01/01/2000,01:05:26.53,21.96,-57.10,-992.47,236.25,-708.75,-315.0,1,94.521,
01/01/2000,01:05:26.54,22.20,-57.10,-992.59,78.75,-778.75,-411.25,1,94.558,
01/01/2000,01:05:26.56,22.20,-57.22,-992.59,183.75,-682.50,-297.50,1,94.595,
01/01/2000,01:05:26.57,21.96,-57.58,-992.35,113.75,-717.50,-350.0,1,94.631,
01/01/2000,01:05:26.58,21.96,-57.46,-992.35,78.75,-735.0,-385.0,1,94.667,
01/01/2000,01:05:26.59,21.96,-57.34,-992.47,157.50,-700.0,-306.25,1,94.702,
01/01/2000,01:05:26.60,21.96,-57.10,-992.47,253.75,-787.50,-358.75,1,94.737,
01/01/2000,01:05:26.61,21.84,-56.97,-992.35,201.25,-700.0,-350.0,1,94.771,
01/01/2000,01:05:26.62,21.84,-57.34,-992.23,192.50,-743.75,-350.0,1,94.194,
01/01/2000,01:05:26.64,21.96,-57.34,-992.35,140.0,-691.25,-350.0,1,94.231,
01/01/2000,01:05:26.65,22.08,-57.34,-992.35,131.25,-752.50,-323.75,1,94.268,
01/01/2000,01:05:26.66,21.96,-57.34,-992.10,183.75,-638.75,-253.75,1,94.304,
01/01/2000,01:05:26.67,21.84,-57.22,-991.98,271.25,-630.0,-393.75,1,94.340,
01/01/2000,01:05:26.68,21.72,-57.22,-991.98,113.75,-691.25,-262.50,1,94.375,
01/01/2000,01:05:26.69,21.72,-57.10,-992.23,52.50,-796.25,-227.50,1,94.410,
01/01/2000,01:05:26.70,21.72,-57.10,-992.35,306.25,-787.50,-297.50,1,94.444,
01/01/2000,01:05:26.71,21.72,-57.10,-992.35,122.50,-735.0,-306.25,1,94.479,
01/01/2000,01:05:26.72,21.84,-57.34,-992.35,113.75,-717.50,-393.75,1,94.512,
01/01/2000,01:05:26.73,21.96,-57.22,-992.47,113.75,-796.25,-367.50,1,94.545,
01/01/2000,01:05:26.74,21.84,-57.10,-992.35,192.50,-708.75,-463.75,1,94.578,
01/01/2000,01:05:26.75,21.84,-56.97,-992.23,122.50,-665.0,-245.0,1,94.611,
01/01/2000,01:05:26.76,21.96,-57.10,-992.23,175.0,-708.75,-350.0,1,94.643,
01/01/2000,01:05:26.77,21.96,-57.34,-992.10,122.50,-761.25,-350.0,1,94.675,
01/01/2000,01:05:26.78,22.08,-57.58,-992.23,140.0,-691.25,-376.25,1,94.706,
01/01/2000,01:05:26.79,21.96,-57.58,-992.35,157.50,-656.25,-385.0,1,94.737,
01/01/2000,01:05:26.80,21.96,-57.46,-992.35,288.75,-647.50,-288.75,1,94.767,
01/01/2000,01:05:26.81,21.96,-57.34,-992.35,17.50,-656.25,-253.75,1,94.798,
01/01/2000,01:05:26.82,21.72,-57.34,-992.23,43.75,-752.50,-376.25,1,94.828,
01/01/2000,01:05:26.83,21.72,-57.46,-992.10,131.25,-726.25,-297.50,1,94.857,
01/01/2000,01:05:26.85,21.96,-57.34,-992.35,175.0,-735.0,-393.75,1,94.350,
01/01/2000,01:05:26.86,21.96,-57.10,-992.47,227.50,-638.75,-201.25,1,94.382,
01/01/2000,01:05:26.87,21.96,-57.22,-992.35,96.25,-708.75,-358.75,1,94.413,
01/01/2000,01:05:26.88,21.84,-57.22,-992.35,236.25,-586.25,-428.75,1,94.444,
01/01/2000,01:05:26.89,21.72,-57.10,-992.47,105.0,-630.0,-341.25,1,94.475,
01/01/2000,01:05:26.90,21.96,-56.85,-992.59,148.75,-647.50,-358.75,1,94.505,
01/01/2000,01:05:26.91,21.96,-56.85,-992.59,210.0,-630.0,-253.75,1,94.536,
01/01/2000,01:05:26.92,21.84,-57.22,-992.35,183.75,-717.50,-376.25,1,94.565,
01/01/2000,01:05:26.93,21.59,-57.34,-992.23,166.25,-665.0,-428.75,1,94.595,
01/01/2000,01:05:26.94,21.72,-57.10,-992.23,122.50,-717.50,-262.50,1,94.624,
01/01/2000,01:05:26.95,21.84,-56.85,-992.59,140.0,-735.0,-245.0,1,94.652,
01/01/2000,01:05:26.96,21.84,-56.85,-992.59,122.50,-665.0,-288.75,1,94.681,
01/01/2000,01:05:26.97,21.72,-57.10,-992.35,218.75,-656.25,-236.25,1,94.709,
01/01/2000,01:05:26.98,21.72,-57.34,-992.35,210.0,-647.50,-428.75,1,94.241,
01/01/2000,01:05:26.99,21.96,-57.34,-992.47,166.25,-717.50,-280.0,1,94.271,
01/01/2000,01:05:27.00,22.08,-57.22,-992.59,157.50,-743.75,-490.0,1,94.301,
01/01/2000,01:05:27.01,21.96,-57.10,-992.47,157.50,-726.25,-280.0,1,94.330,
01/01/2000,01:05:27.02,21.84,-57.10,-992.35,192.50,-525.0,-376.25,1,94.359,
01/01/2000,01:05:27.03,21.72,-57.10,-992.10,35.0,-743.75,-420.0,1,94.388,
01/01/2000,01:05:27.04,21.84,-57.10,-992.35,0.0,-700.0,-350.0,1,94.416,
01/01/2000,01:05:27.06,21.96,-57.10,-992.59,61.25,-700.0,-385.0,1,94.444,
01/01/2000,01:05:27.07,21.96,-57.34,-992.47,175.0,-761.25,-393.75,1,94.472,
01/01/2000,01:05:27.08,21.84,-57.46,-992.47,113.75,-612.50,-472.50,1,94.500,
01/01/2000,01:05:27.09,21.84,-57.34,-992.47,288.75,-752.50,-332.50,1,94.527,
01/01/2000,01:05:27.10,21.96,-57.34,-992.47,96.25,-726.25,-315.0,1,94.554,
01/01/2000,01:05:27.11,21.84,-57.22,-992.59,166.25,-656.25,-297.50,1,94.581,
01/01/2000,01:05:27.12,21.96,-57.34,-992.35,8.75,-726.25,-227.50,1,94.608,
01/01/2000,01:05:27.14,21.96,-57.34,-992.35,227.50,-638.75,-411.25,1,94.175,
01/01/2000,01:05:27.15,21.96,-57.22,-992.59,-8.75,-761.25,-262.50,1,94.203,
01/01/2000,01:05:27.16,21.96,-57.10,-992.71,201.25,-682.50,-376.25,1,94.231,
01/01/2000,01:05:27.17,22.08,-57.10,-992.71,157.50,-638.75,-297.50,1,94.258,
01/01/2000,01:05:27.18,21.96,-57.10,-992.35,131.25,-735.0,-183.75,1,94.286,
01/01/2000,01:05:27.19,21.96,-57.34,-992.23,122.50,-752.50,-341.25,1,94.313,
01/01/2000,01:05:27.20,21.96,-57.46,-992.35,140.0,-673.75,-315.0,1,94.340,
01/01/2000,01:05:27.21,22.20,-57.46,-992.59,131.25,-708.75,-446.25,1,94.366,
01/01/2000,01:05:27.22,22.08,-57.34,-992.71,96.25,-691.25,-306.25,1,94.393,
01/01/2000,01:05:27.23,21.84,-57.34,-992.59,70.0,-717.50,-280.0,1,94.419,
01/01/2000,01:05:27.24,21.72,-57.22,-992.35,8.75,-577.50,-315.0,1,94.444,
01/01/2000,01:05:27.25,21.72,-57.22,-992.35,183.75,-630.0,-341.25,1,94.470,
01/01/2000,01:05:27.26,22.08,-57.34,-992.23,105.0,-743.75,-271.25,1,94.495,
01/01/2000,01:05:27.27,22.08,-57.58,-992.10,96.25,-638.75,-367.50,1,94.521,
01/01/2000,01:05:27.28,21.96,-57.46,-991.86,210.0,-708.75,-350.0,1,94.545,
01/01/2000,01:05:27.29,21.84,-57.22,-992.10,140.0,-638.75,-437.50,1,94.570,
01/01/2000,01:05:27.30,22.08,-57.10,-992.35,192.50,-673.75,-315.0,1,94.595,
01/01/2000,01:05:27.31,22.20,-57.10,-992.59,280.0,-673.75,-262.50,1,94.619,
01/01/2000,01:05:27.32,22.20,-57.34,-992.59,183.75,-630.0,-402.50,1,94.643,
01/01/2000,01:05:27.33,21.96,-57.34,-992.23,96.25,-735.0,-393.75,1,94.667,
01/01/2000,01:05:27.34,21.84,-57.34,-992.35,271.25,-630.0,-446.25,1,94.273,
01/01/2000,01:05:27.35,21.96,-57.10,-992.71,157.50,-673.75,-315.0,1,94.298,
01/01/2000,01:05:27.36,21.96,-57.10,-992.84,183.75,-673.75,-262.50,1,94.323,
01/01/2000,01:05:27.37,21.84,-57.22,-992.59,140.0,-726.25,-393.75,1,94.348,
01/01/2000,01:05:27.38,21.84,-57.22,-992.47,148.75,-743.75,-367.50,1,94.372,
01/01/2000,01:05:27.39,21.96,-57.34,-992.47,192.50,-848.75,-358.75,1,94.397,
01/01/2000,01:05:27.41,21.96,-57.34,-992.59,26.25,-638.75,-402.50,1,94.421,
01/01/2000,01:05:27.42,21.96,-57.22,-992.35,210.0,-656.25,-385.0,1,94.444,
01/01/2000,01:05:27.43,21.84,-57.22,-992.35,210.0,-673.75,-323.75,1,94.468,
01/01/2000,01:05:27.44,21.72,-57.22,-992.10,140.0,-630.0,-323.75,1,94.492,
01/01/2000,01:05:27.45,21.72,-57.10,-992.23,280.0,-656.25,-358.75,1,94.515,
01/01/2000,01:05:27.46,21.72,-57.10,-992.35,78.75,-761.25,-367.50,1,94.538,
01/01/2000,01:05:27.47,21.72,-57.46,-992.35,35.0,-717.50,-332.50,1,94.561,
01/01/2000,01:05:27.48,21.59,-57.46,-992.10,148.75,-682.50,-385.0,1,94.583,
01/01/2000,01:05:27.49,21.72,-57.34,-992.10,166.25,-647.50,-446.25,1,94.215,
01/01/2000,01:05:27.50,21.84,-57.22,-992.23,140.0,-647.50,-402.50,1,94.239,
01/01/2000,01:05:27.51,21.96,-56.85,-992.23,-96.25,-647.50,-358.75,1,94.262,
01/01/2000,01:05:27.52,21.96,-57.10,-992.35,253.75,-656.25,-385.0,1,94.286,
01/01/2000,01:05:27.53,21.96,-57.10,-992.23,105.0,-700.0,-236.25,1,94.309,
01/01/2000,01:05:27.54,21.96,-57.34,-992.10,192.50,-726.25,-393.75,1,94.332,
01/01/2000,01:05:27.56,21.84,-57.58,-992.10,166.25,-630.0,-297.50,1,94.355,
01/01/2000,01:05:27.57,21.84,-57.34,-991.98,140.0,-752.50,-420.0,1,94.378,
01/01/2000,01:05:27.58,22.08,-57.22,-992.10,17.50,-630.0,-297.50,1,94.400,
01/01/2000,01:05:27.59,21.96,-57.10,-992.35,140.0,-752.50,-297.50,1,94.422,
01/01/2000,01:05:27.60,21.84,-57.34,-992.35,122.50,-700.0,-271.25,1,94.444,
01/01/2000,01:05:27.61,22.08,-57.34,-992.23,201.25,-665.0,-367.50,1,94.466,
01/01/2000,01:05:27.62,22.20,-57.34,-992.23,113.75,-665.0,-358.75,1,94.488,
01/01/2000,01:05:27.63,22.20,-57.22,-992.23,131.25,-595.0,-210.0,1,94.510,
01/01/2000,01:05:27.64,21.84,-57.10,-992.23,175.0,-735.0,-236.25,1,94.163,
01/01/2000,01:05:27.66,21.72,-57.22,-992.23,96.25,-700.0,-280.0,1,94.186,
01/01/2000,01:05:27.67,21.84,-57.34,-992.35,96.25,-682.50,-341.25,1,94.208,
01/01/2000,01:05:27.68,22.08,-57.10,-992.35,17.50,-682.50,-332.50,1,94.231,
01/01/2000,01:05:27.69,22.08,-57.10,-992.10,122.50,-665.0,-367.50,1,94.253,
01/01/2000,01:05:27.70,22.08,-57.22,-991.86,113.75,-752.50,-323.75,1,94.275,
01/01/2000,01:05:27.71,21.96,-57.10,-991.98,148.75,-752.50,-393.75,1,94.297,
01/01/2000,01:05:27.72,22.08,-57.10,-992.23,262.50,-691.25,-306.25,1,94.318,
01/01/2000,01:05:27.73,22.20,-56.85,-992.35,253.75,-752.50,-323.75,1,94.340,
01/01/2000,01:05:27.74,22.20,-56.97,-992.35,131.25,-647.50,-245.0,1,94.361,
01/01/2000,01:05:27.75,22.20,-57.10,-992.10,245.0,-726.25,-315.0,1,94.382,
01/01/2000,01:05:27.76,22.08,-57.34,-992.10,192.50,-638.75,-490.0,1,94.403,
01/01/2000,01:05:27.77,22.20,-57.34,-992.23,148.75,-630.0,-253.75,1,94.424,
01/01/2000,01:05:27.78,22.33,-57.22,-992.35,166.25,-700.0,-341.25,1,94.444,
01/01/2000,01:05:27.79,22.08,-57.10,-992.35,183.75,-796.25,-332.50,1,94.465,
01/01/2000,01:05:27.80,21.96,-57.10,-992.35,262.50,-638.75,-350.0,1,94.485,
01/01/2000,01:05:27.81,21.96,-57.22,-992.35,175.0,-673.75,-332.50,1,94.505,
01/01/2000,01:05:27.82,22.08,-57.10,-992.35,96.25,-665.0,-367.50,1,94.526,
01/01/2000,01:05:27.83,22.20,-57.34,-992.23,157.50,-700.0,-367.50,1,94.203,
01/01/2000,01:05:27.84,22.08,-57.34,-992.35,166.25,-726.25,-367.50,1,94.224,
01/01/2000,01:05:27.85,22.08,-56.97,-992.35,201.25,-656.25,-157.50,1,94.245,
01/01/2000,01:05:27.86,22.08,-56.97,-992.35,26.25,-656.25,-323.75,1,94.265,
01/01/2000,01:05:27.87,22.08,-57.10,-992.35,87.50,-726.25,-297.50,1,94.286,
01/01/2000,01:05:27.88,22.08,-57.22,-992.23,105.0,-638.75,-323.75,1,94.306,
01/01/2000,01:05:27.89,21.96,-57.10,-992.23,218.75,-770.0,-297.50,1,94.326,
01/01/2000,01:05:27.91,21.84,-57.10,-992.35,87.50,-621.25,-297.50,1,94.346,
01/01/2000,01:05:27.92,21.84,-57.10,-992.59,122.50,-595.0,-420.0,1,94.366,
01/01/2000,01:05:27.93,21.47,-57.46,-992.71,472.50,-673.75,-131.25,1,94.386,
01/01/2000,01:05:27.94,22.69,-56.49,-992.23,-227.50,-787.50,-875.0,1,94.406,
01/01/2000,01:05:27.95,22.20,-57.34,-991.98,70.0,-691.25,-26.25,1,94.425,
01/01/2000,01:05:27.96,21.47,-57.95,-992.23,253.75,-665.0,17.50,1,94.444,
01/01/2000,01:05:27.97,21.35,-57.58,-992.59,262.50,-673.75,-673.75,1,94.464,
01/01/2000,01:05:27.98,22.20,-57.22,-992.59,323.75,-717.50,-673.75,1,94.483,
01/01/2000,01:05:27.99,22.33,-56.85,-992.23,0.0,-735.0,140.0,1,94.502,
01/01/2000,01:05:28.00,21.72,-57.46,-991.86,367.50,-726.25,-17.50,1,94.521,
01/01/2000,01:05:28.01,21.84,-57.83,-991.86,210.0,-638.75,-831.25,1,94.539,
01/01/2000,01:05:28.02,21.96,-57.83,-992.35,210.0,-560.0,-708.75,1,94.558,
01/01/2000,01:05:28.03,21.96,-57.58,-992.71,218.75,-700.0,-288.75,1,94.576,
01/01/2000,01:05:28.04,22.08,-57.34,-992.47,78.75,-595.0,-332.50,1,94.276,
01/01/2000,01:05:28.05,21.84,-57.22,-992.10,166.25,-691.25,-236.25,1,94.295,
01/01/2000,01:05:28.06,21.59,-57.34,-992.10,105.0,-708.75,-245.0,1,94.314,
01/01/2000,01:05:28.07,21.72,-57.58,-992.71,175.0,-595.0,-472.50,1,94.333,
01/01/2000,01:05:28.08,21.96,-57.58,-992.84,175.0,-735.0,-280.0,1,94.352,
01/01/2000,01:05:28.09,22.08,-57.34,-992.59,192.50,-638.75,-341.25,1,94.371,
01/01/2000,01:05:28.10,21.72,-57.58,-992.23,166.25,-665.0,-463.75,1,94.389,
01/01/2000,01:05:28.12,21.72,-57.34,-991.98,87.50,-682.50,-245.0,1,94.408,
01/01/2000,01:05:28.13,21.84,-57.58,-992.59,183.75,-673.75,-411.25,1,94.426,
01/01/2000,01:05:28.14,21.72,-57.58,-992.84,271.25,-752.50,-288.75,1,94.444,
01/01/2000,01:05:28.15,21.84,-57.71,-992.59,157.50,-682.50,-218.75,1,94.156,
01/01/2000,01:05:28.16,21.72,-57.71,-992.35,131.25,-743.75,-350.0,1,94.175,
01/01/2000,01:05:28.17,21.72,-57.58,-992.35,192.50,-726.25,-376.25,1,94.194,
01/01/2000,01:05:28.18,21.96,-57.58,-992.59,78.75,-813.75,-262.50,1,94.212,
01/01/2000,01:05:28.20,22.08,-57.58,-992.84,78.75,-717.50,-297.50,1,94.231,
01/01/2000,01:05:28.21,21.96,-57.58,-992.59,148.75,-665.0,-332.50,1,94.249,
01/01/2000,01:05:28.22,21.84,-57.58,-992.35,262.50,-726.25,-507.50,1,94.268,
01/01/2000,01:05:28.23,21.96,-57.58,-992.35,140.0,-726.25,-402.50,1,94.286,
01/01/2000,01:05:28.24,22.20,-57.58,-992.71,43.75,-577.50,-385.0,1,94.304,
01/01/2000,01:05:28.25,22.20,-57.71,-993.08,157.50,-577.50,-376.25,1,94.322,
01/01/2000,01:05:28.26,21.96,-57.71,-992.96,105.0,-673.75,-367.50,1,94.340,
01/01/2000,01:05:28.27,21.96,-57.58,-992.84,61.25,-787.50,-358.75,1,94.357,
01/01/2000,01:05:28.28,21.96,-57.46,-992.84,148.75,-708.75,-315.0,1,94.375,
01/01/2000,01:05:28.29,21.96,-57.58,-992.96,218.75,-717.50,-341.25,1,94.393,
01/01/2000,01:05:28.30,22.08,-57.83,-992.96,192.50,-743.75,-271.25,1,94.410,
01/01/2000,01:05:28.31,21.96,-57.83,-992.96,157.50,-700.0,-323.75,1,94.427,
01/01/2000,01:05:28.32,21.72,-57.83,-992.96,105.0,-673.75,-306.25,1,94.444,
01/01/2000,01:05:28.33,21.72,-57.71,-992.96,140.0,-682.50,-446.25,1,94.462,
01/01/2000,01:05:28.34,22.08,-57.34,-993.08,70.0,-603.75,-297.50,1,94.479,
01/01/2000,01:05:28.35,22.20,-57.46,-993.08,157.50,-656.25,-280.0,1,94.495,
01/01/2000,01:05:28.36,21.84,-57.71,-993.08,253.75,-708.75,-253.75,1,94.512,
01/01/2000,01:05:28.37,21.59,-57.83,-992.84,175.0,-708.75,-472.50,1,94.529,
01/01/2000,01:05:28.38,21.72,-57.58,-992.96,148.75,-638.75,-350.0,1,94.545,
01/01/2000,01:05:28.39,21.84,-57.34,-993.08,148.75,-805.0,-262.50,1,94.562,
01/01/2000,01:05:28.40,21.72,-57.34,-993.08,201.25,-743.75,-306.25,1,94.294,
01/01/2000,01:05:28.41,21.72,-57.34,-992.96,96.25,-778.75,-367.50,1,94.311,
01/01/2000,01:05:28.42,21.72,-57.46,-992.84,236.25,-752.50,-376.25,1,94.328,
01/01/2000,01:05:28.43,21.96,-57.46,-992.96,131.25,-717.50,-350.0,1,94.345,
01/01/2000,01:05:28.44,21.96,-57.58,-993.08,131.25,-770.0,-306.25,1,94.362,
01/01/2000,01:05:28.45,21.96,-57.34,-992.84,140.0,-656.25,-376.25,1,94.379,
01/01/2000,01:05:28.47,21.72,-57.22,-992.71,210.0,-630.0,-297.50,1,94.395,
01/01/2000,01:05:28.48,21.59,-57.34,-992.84,175.0,-743.75,-253.75,1,94.412,
01/01/2000,01:05:28.49,21.72,-57.46,-993.08,113.75,-743.75,-297.50,1,94.428,
01/01/2000,01:05:28.50,21.84,-57.46,-992.84,175.0,-577.50,-253.75,1,94.444,
01/01/2000,01:05:28.51,21.72,-57.46,-992.71,148.75,-831.25,-332.50,1,94.461,
01/01/2000,01:05:28.52,21.72,-57.46,-992.59,87.50,-813.75,-332.50,1,94.477,
01/01/2000,01:05:28.53,21.59,-57.46,-992.84,271.25,-691.25,-341.25,1,94.493,
01/01/2000,01:05:28.54,21.72,-57.34,-993.20,0.0,-586.25,-367.50,1,94.509,
01/01/2000,01:05:28.55,21.96,-57.22,-993.08,175.0,-603.75,-323.75,1,94.524,
01/01/2000,01:05:28.56,21.96,-57.34,-992.84,131.25,-726.25,-350.0,1,94.540,
01/01/2000,01:05:28.57,21.84,-57.34,-992.84,183.75,-726.25,-420.0,1,94.556,
01/01/2000,01:05:28.58,21.96,-57.46,-992.84,166.25,-726.25,-227.50,1,94.571,
01/01/2000,01:05:28.59,22.08,-57.34,-993.20,113.75,-673.75,-393.75,1,94.587,
01/01/2000,01:05:28.60,21.96,-57.34,-993.08,201.25,-595.0,-227.50,1,94.602,
01/01/2000,01:05:28.62,21.96,-57.34,-993.08,262.50,-708.75,-420.0,1,94.350,
01/01/2000,01:05:28.62,22.08,-57.34,-992.96,26.25,-691.25,-297.50,1,94.366,
01/01/2000,01:05:28.64,22.20,-57.58,-993.08,87.50,-752.50,-358.75,1,94.382,
01/01/2000,01:05:28.65,22.20,-57.46,-993.20,105.0,-770.0,-376.25,1,94.398,
01/01/2000,01:05:28.66,22.08,-57.34,-993.20,140.0,-621.25,-367.50,1,94.413,
01/01/2000,01:05:28.67,21.96,-57.34,-992.84,-17.50,-787.50,-297.50,1,94.429,
01/01/2000,01:05:28.68,21.96,-57.34,-992.84,87.50,-743.75,-253.75,1,94.183,
01/01/2000,01:05:28.69,21.96,-57.46,-992.96,183.75,-691.25,-402.50,1,94.199,
01/01/2000,01:05:28.70,21.96,-57.58,-993.08,183.75,-621.25,-271.25,1,94.215,
01/01/2000,01:05:28.71,21.96,-57.58,-992.96,122.50,-726.25,-455.0,1,94.231,
01/01/2000,01:05:28.72,21.84,-57.58,-992.84,52.50,-770.0,-411.25,1,94.247,
01/01/2000,01:05:28.73,21.96,-57.58,-992.96,157.50,-708.75,-323.75,1,94.262,
01/01/2000,01:05:28.74,21.96,-57.34,-993.08,183.75,-665.0,-297.50,1,94.278,
01/01/2000,01:05:28.75,21.96,-57.34,-993.20,183.75,-691.25,-323.75,1,94.293,
01/01/2000,01:05:28.76,21.96,-57.58,-993.08,175.0,-735.0,-358.75,1,94.309,
01/01/2000,01:05:28.77,21.96,-57.46,-992.96,26.25,-630.0,-323.75,1,94.324,
01/01/2000,01:05:28.78,22.08,-57.34,-992.84,8.75,-691.25,-306.25,1,94.340,
01/01/2000,01:05:28.79,22.08,-57.22,-992.96,227.50,-612.50,-306.25,1,94.355,
01/01/2000,01:05:28.80,22.20,-57.10,-993.20,210.0,-770.0,-227.50,1,94.370,
01/01/2000,01:05:28.82,22.20,-57.34,-993.20,192.50,-656.25,-358.75,1,94.385,
01/01/2000,01:05:28.83,22.20,-57.58,-992.96,166.25,-691.25,-385.0,1,94.400,
01/01/2000,01:05:28.84,22.20,-57.58,-992.84,96.25,-726.25,-297.50,1,94.415,
01/01/2000,01:05:28.85,22.08,-57.58,-992.71,148.75,-778.75,-297.50,1,94.430,
01/01/2000,01:05:28.86,22.08,-57.46,-992.71,113.75,-682.50,-280.0,1,94.444,
01/01/2000,01:05:28.87,21.96,-57.58,-992.84,113.75,-630.0,-306.25,1,94.459,
01/01/2000,01:05:28.88,21.96,-57.58,-992.84,148.75,-717.50,-358.75,1,94.474,
01/01/2000,01:05:28.89,21.96,-57.58,-992.96,183.75,-577.50,-455.0,1,94.241,
01/01/2000,01:05:28.90,22.08,-57.34,-992.59,0.0,-770.0,-280.0,1,94.256,
01/01/2000,01:05:28.91,22.08,-57.34,-992.59,175.0,-761.25,-236.25,1,94.271,
01/01/2000,01:05:28.92,22.20,-57.34,-992.84,105.0,-630.0,-385.0,1,94.286,
01/01/2000,01:05:28.93,22.20,-57.46,-992.84,140.0,-630.0,-411.25,1,94.301,
01/01/2000,01:05:28.94,22.08,-57.34,-992.84,271.25,-831.25,-411.25,1,94.315,
01/01/2000,01:05:28.95,22.08,-57.34,-992.59,131.25,-708.75,-262.50,1,94.330,
01/01/2000,01:05:28.97,22.08,-57.34,-992.71,192.50,-717.50,-262.50,1,94.344,
01/01/2000,01:05:28.98,22.20,-57.58,-992.84,43.75,-822.50,-350.0,1,94.359,
01/01/2000,01:05:28.99,22.20,-57.46,-992.84,35.0,-682.50,-280.0,1,94.373,
01/01/2000,01:05:29.00,21.96,-57.71,-992.84,210.0,-586.25,-315.0,1,94.388,
01/01/2000,01:05:29.01,21.84,-57.58,-992.71,201.25,-630.0,-402.50,1,94.402,
01/01/2000,01:05:29.02,21.84,-57.34,-992.71,166.25,-700.0,-192.50,1,94.416,
01/01/2000,01:05:29.03,21.96,-57.34,-992.59,148.75,-735.0,-271.25,1,94.430,
01/01/2000,01:05:29.04,21.96,-57.34,-992.59,236.25,-568.75,-411.25,1,94.444,
01/01/2000,01:05:29.05,21.84,-57.46,-992.59,78.75,-673.75,-341.25,1,94.458,
01/01/2000,01:05:29.06,21.96,-57.34,-992.71,96.25,-621.25,-376.25,1,94.472,
01/01/2000,01:05:29.07,21.96,-57.34,-992.59,148.75,-638.75,-280.0,1,94.486,
01/01/2000,01:05:29.08,22.08,-57.22,-992.84,245.0,-647.50,-157.50,1,94.500,
01/01/2000,01:05:29.09,22.08,-57.34,-992.84,113.75,-717.50,-218.75,1,94.514,
01/01/2000,01:05:29.10,21.96,-57.58,-992.96,148.75,-735.0,-376.25,1,94.293,
01/01/2000,01:05:29.11,22.20,-57.58,-992.84,131.25,-682.50,-332.50,1,94.307,
01/01/2000,01:05:29.12,22.20,-57.58,-992.84,192.50,-656.25,-446.25,1,94.321,
01/01/2000,01:05:29.13,22.08,-57.46,-992.84,253.75,-682.50,-411.25,1,94.335,
01/01/2000,01:05:29.14,21.96,-57.22,-992.71,96.25,-778.75,-183.75,1,94.349,
01/01/2000,01:05:29.15,21.96,-57.34,-992.96,245.0,-647.50,-323.75,1,94.363,
01/01/2000,01:05:29.16,21.96,-57.46,-993.20,96.25,-673.75,-323.75,1,94.377,
01/01/2000,01:05:29.18,21.96,-57.58,-992.84,166.25,-700.0,-428.75,1,94.161,
01/01/2000,01:05:29.19,21.96,-57.46,-992.84,183.75,-735.0,-437.50,1,94.175,
01/01/2000,01:05:29.20,21.96,-57.34,-992.84,96.25,-673.75,-315.0,1,94.189,
01/01/2000,01:05:29.21,21.96,-57.34,-992.96,201.25,-805.0,-288.75,1,94.203,
01/01/2000,01:05:29.22,21.96,-57.34,-992.84,201.25,-630.0,-367.50,1,94.217,
01/01/2000,01:05:29.23,21.84,-57.22,-992.84,148.75,-700.0,-332.50,1,94.231,
01/01/2000,01:05:29.25,21.84,-57.34,-992.84,227.50,-735.0,-306.25,1,94.245,
01/01/2000,01:05:29.26,21.84,-57.34,-992.59,218.75,-656.25,-332.50,1,94.258,
01/01/2000,01:05:29.27,21.84,-57.34,-992.59,280.0,-638.75,-236.25,1,94.272,
01/01/2000,01:05:29.28,21.84,-57.34,-992.84,43.75,-665.0,-288.75,1,94.286,
01/01/2000,01:05:29.29,21.84,-57.34,-992.96,166.25,-726.25,-350.0,1,94.299,
01/01/2000,01:05:29.30,21.72,-57.34,-992.96,245.0,-638.75,-428.75,1,94.313,
01/01/2000,01:05:29.31,21.72,-57.34,-992.84,271.25,-717.50,-446.25,1,94.326,
01/01/2000,01:05:29.32,21.72,-57.34,-992.96,227.50,-665.0,-297.50,1,94.340,
01/01/2000,01:05:29.33,21.84,-57.34,-992.96,70.0,-665.0,-367.50,1,94.353,
01/01/2000,01:05:29.34,21.84,-57.34,-992.84,183.75,-700.0,-323.75,1,94.366,
01/01/2000,01:05:29.35,21.84,-57.34,-992.71,87.50,-691.25,-323.75,1,94.379,
01/01/2000,01:05:29.36,21.84,-57.22,-992.71,131.25,-621.25,-367.50,1,94.393,
01/01/2000,01:05:29.37,21.96,-57.10,-992.96,201.25,-735.0,-245.0,1,94.406,
01/01/2000,01:05:29.38,21.96,-56.97,-993.08,78.75,-761.25,-315.0,1,94.419,
01/01/2000,01:05:29.39,21.84,-57.10,-992.84,148.75,-717.50,-166.25,1,94.432,
01/01/2000,01:05:29.40,21.72,-57.34,-992.84,131.25,-691.25,-385.0,1,94.444,
01/01/2000,01:05:29.41,21.72,-57.46,-992.71,131.25,-595.0,-428.75,1,94.457,
01/01/2000,01:05:29.42,21.84,-57.34,-992.84,70.0,-831.25,-245.0,1,94.470,
01/01/2000,01:05:29.43,21.72,-57.34,-992.84,201.25,-743.75,-402.50,1,94.483,
01/01/2000,01:05:29.44,21.59,-57.46,-992.84,105.0,-787.50,-280.0,1,94.495,
01/01/2000,01:05:29.46,21.72,-57.46,-992.71,43.75,-656.25,-315.0,1,94.292,
01/01/2000,01:05:29.46,21.72,-57.46,-992.71,87.50,-726.25,-253.75,1,94.305,
01/01/2000,01:05:29.48,21.84,-57.58,-992.59,245.0,-691.25,-306.25,1,94.318,
01/01/2000,01:05:29.49,21.84,-57.34,-992.47,131.25,-647.50,-306.25,1,94.331,
01/01/2000,01:05:29.50,21.59,-57.34,-992.59,96.25,-630.0,-323.75,1,94.344,
01/01/2000,01:05:29.51,21.72,-57.46,-992.35,332.50,-857.50,-358.75,1,94.357,
01/01/2000,01:05:29.52,21.84,-57.34,-992.47,78.75,-752.50,-236.25,1,94.369,
01/01/2000,01:05:29.53,22.08,-57.34,-992.59,122.50,-595.0,-323.75,1,94.382,
01/01/2000,01:05:29.54,21.96,-57.58,-992.47,105.0,-761.25,-358.75,1,94.395,
01/01/2000,01:05:29.55,21.96,-57.58,-992.23,210.0,-717.50,-341.25,1,94.407,
01/01/2000,01:05:29.56,21.96,-57.46,-992.23,166.25,-700.0,-297.50,1,94.420,
01/01/2000,01:05:29.57,24.03,-57.58,-989.66,96.25,-306.25,-586.25,1,94.432,
01/01/2000,01:05:29.58,14.15,-55.75,-961.12,-52.50,-1111.25,4060.0,1,94.444,
01/01/2000,01:05:29.59,10.49,-53.44,-950.87,-122.50,-1881.25,96.25,1,94.457,
01/01/2000,01:05:29.60,22.20,-63.20,-999.30,910.0,-1225.0,-4471.25,1,94.260,
01/01/2000,01:05:29.61,30.38,-62.71,-1032.36,245.0,157.50,-1618.75,1,94.273,
01/01/2000,01:05:29.62,30.50,-61.0,-1043.59,665.0,306.25,3141.25,1,94.286,
01/01/2000,01:05:29.63,29.52,-54.29,-1031.39,43.75,-157.50,78.75,1,94.298,
01/01/2000,01:05:29.64,26.60,-51.12,-994.67,560.0,-910.0,-1260.0,1,94.311,
01/01/2000,01:05:29.65,21.96,-53.07,-976.49,-350.0,-1050.0,-533.75,1,94.323,
01/01/2000,01:05:29.67,20.62,-62.46,-976.73,183.75,-1225.0,586.25,1,94.336,
01/01/2000,01:05:29.68,22.94,-65.27,-991.01,87.50,-910.0,-1898.75,1,94.348,
01/01/2000,01:05:29.69,24.40,-57.10,-1006.01,105.0,-245.0,-288.75,1,94.156,
01/01/2000,01:05:29.71,22.57,-51.48,-1000.89,227.50,-393.75,1102.50,1,94.168,
01/01/2000,01:05:29.72,21.35,-49.04,-992.84,35.0,-568.75,665.0,1,94.181,
01/01/2000,01:05:29.73,21.11,-55.51,-984.78,183.75,-761.25,236.25,1,94.194,
01/01/2000,01:05:29.74,21.84,-61.12,-985.64,-17.50,-866.25,-481.25,1,94.206,
01/01/2000,01:05:29.75,23.30,-64.66,-990.27,192.50,-787.50,-1662.50,1,94.218,
01/01/2000,01:05:29.76,23.79,-61.98,-995.03,183.75,-717.50,-1190.0,1,94.231,
01/01/2000,01:05:29.77,22.57,-56.12,-994.18,140.0,-673.75,-236.25,1,94.243,
01/01/2000,01:05:29.78,21.23,-51.97,-991.86,367.50,-621.25,533.75,1,94.255,
01/01/2000,01:05:29.79,20.37,-51.00,-990.15,35.0,-603.75,1015.0,1,94.268,
01/01/2000,01:05:29.80,20.50,-54.29,-990.88,140.0,-551.25,210.0,1,94.280,
01/01/2000,01:05:29.81,21.96,-61.0,-992.35,262.50,-665.0,-953.75,1,94.292,
01/01/2000,01:05:29.82,22.94,-62.59,-992.84,148.75,-787.50,-1557.50,1,94.304,
01/01/2000,01:05:29.83,22.94,-61.49,-992.23,96.25,-848.75,-603.75,1,94.316,
01/01/2000,01:05:29.84,21.96,-56.12,-991.25,140.0,-752.50,17.50,1,94.328,
01/01/2000,01:05:29.85,20.98,-53.56,-991.37,236.25,-621.25,700.0,1,94.340,
01/01/2000,01:05:29.86,20.62,-53.31,-992.59,253.75,-560.0,437.50,1,94.351,
01/01/2000,01:05:29.87,20.74,-55.51,-993.57,61.25,-525.0,-560.0,1,94.363,
01/01/2000,01:05:29.88,21.96,-59.54,-993.32,271.25,-682.50,-770.0,1,94.179,
01/01/2000,01:05:29.89,22.45,-60.51,-991.98,183.75,-691.25,-673.75,1,94.191,
01/01/2000,01:05:29.90,22.45,-58.80,-990.88,148.75,-805.0,-253.75,1,94.203,
01/01/2000,01:05:29.91,21.84,-56.73,-991.62,227.50,-726.25,105.0,1,94.215,
01/01/2000,01:05:29.92,21.23,-55.39,-993.08,227.50,-612.50,0.0,1,94.227,
01/01/2000,01:05:29.93,20.74,-55.14,-994.30,175.0,-516.25,-437.50,1,94.239,
01/01/2000,01:05:29.94,21.23,-56.85,-993.69,210.0,-507.50,-428.75,1,94.251,
01/01/2000,01:05:29.96,21.96,-59.05,-991.49,227.50,-735.0,-385.0,1,94.262,
01/01/2000,01:05:29.97,22.69,-59.29,-990.88,-17.50,-805.0,-262.50,1,94.274,
01/01/2000,01:05:29.98,22.57,-58.80,-991.37,148.75,-796.25,-341.25,1,94.286,
01/01/2000,01:05:29.99,21.96,-57.83,-992.84,175.0,-682.50,-385.0,1,94.297,
01/01/2000,01:05:30.00,21.35,-56.61,-994.06,192.50,-665.0,-297.50,1,94.309,
01/01/2000,01:05:30.01,20.98,-56.00,-993.81,253.75,-595.0,-201.25,1,94.320,
01/01/2000,01:05:30.02,21.47,-56.24,-992.71,105.0,-586.25,-70.0,1,94.332,
01/01/2000,01:05:30.03,22.45,-58.32,-991.62,113.75,-805.0,-262.50,1,94.343,
01/01/2000,01:05:30.04,22.69,-59.54,-991.86,131.25,-735.0,-341.25,1,94.355,
01/01/2000,01:05:30.05,22.33,-59.17,-992.84,-52.50,-673.75,-682.50,1,94.366,
01/01/2000,01:05:30.06,21.72,-57.95,-993.57,166.25,-700.0,-463.75,1,94.378,
01/01/2000,01:05:30.07,21.11,-55.63,-993.45,175.0,-595.0,-218.75,1,94.389,
01/01/2000,01:05:30.08,21.35,-55.39,-992.96,78.75,-551.25,-87.50,1,94.400,
01/01/2000,01:05:30.09,22.20,-56.97,-992.47,245.0,-656.25,-87.50,1,94.223,
01/01/2000,01:05:30.10,22.57,-58.68,-992.47,96.25,-717.50,-315.0,1,94.235,
01/01/2000,01:05:30.11,22.45,-59.54,-992.71,70.0,-708.75,-656.25,1,94.246,
01/01/2000,01:05:30.12,21.72,-58.07,-992.96,113.75,-743.75,-551.25,1,94.257,
01/01/2000,01:05:30.13,21.47,-56.61,-992.96,131.25,-673.75,-490.0,1,94.269,
01/01/2000,01:05:30.14,21.35,-55.63,-993.08,183.75,-656.25,-87.50,1,94.280,
01/01/2000,01:05:30.15,21.35,-55.88,-993.08,131.25,-708.75,157.50,1,94.291,
01/01/2000,01:05:30.17,21.96,-57.71,-992.96,131.25,-665.0,-201.25,1,94.303,
01/01/2000,01:05:30.18,22.08,-58.68,-992.59,96.25,-787.50,-516.25,1,94.314,
01/01/2000,01:05:30.19,22.08,-58.56,-992.35,253.75,-708.75,-638.75,1,94.325,
01/01/2000,01:05:30.20,21.72,-56.97,-992.59,253.75,-735.0,-420.0,1,94.152,
01/01/2000,01:05:30.21,21.59,-56.12,-993.08,70.0,-743.75,-78.75,1,94.163,
01/01/2000,01:05:30.22,21.59,-56.12,-993.20,262.50,-700.0,-87.50,1,94.175,
01/01/2000,01:05:30.23,21.72,-57.22,-993.08,183.75,-595.0,-262.50,1,94.186,
01/01/2000,01:05:30.25,21.84,-58.32,-992.59,262.50,-603.75,-358.75,1,94.197,
01/01/2000,01:05:30.25,21.96,-58.32,-992.23,210.0,-796.25,-551.25,1,94.208,
01/01/2000,01:05:30.27,21.96,-57.58,-992.59,157.50,-813.75,-288.75,1,94.220,
01/01/2000,01:05:30.28,21.72,-57.10,-993.08,122.50,-735.0,-253.75,1,94.231,
01/01/2000,01:05:30.29,21.47,-56.85,-993.32,140.0,-665.0,-245.0,1,94.242,
01/01/2000,01:05:30.30,21.35,-57.22,-993.32,262.50,-560.0,-245.0,1,94.253,
01/01/2000,01:05:30.31,21.84,-57.58,-992.84,148.75,-700.0,-280.0,1,94.264,
01/01/2000,01:05:30.32,22.08,-58.07,-992.35,87.50,-691.25,-280.0,1,94.275,
01/01/2000,01:05:30.33,21.96,-58.07,-992.35,113.75,-813.75,-323.75,1,94.286,
01/01/2000,01:05:30.34,21.84,-57.83,-992.59,236.25,-708.75,-323.75,1,94.297,
01/01/2000,01:05:30.35,21.47,-56.85,-993.08,113.75,-708.75,-245.0,1,94.307,
01/01/2000,01:05:30.36,21.47,-56.73,-993.20,315.0,-656.25,-148.75,1,94.318,
01/01/2000,01:05:30.37,21.47,-56.97,-993.08,61.25,-612.50,-341.25,1,94.329,
01/01/2000,01:05:30.38,21.59,-57.22,-992.71,183.75,-647.50,-350.0,1,94.340,
01/01/2000,01:05:30.39,21.84,-57.83,-992.35,105.0,-700.0,-367.50,1,94.350,
01/01/2000,01:05:30.40,21.84,-57.83,-992.59,271.25,-831.25,-428.75,1,94.361,
01/01/2000,01:05:30.41,21.84,-57.95,-992.84,297.50,-761.25,-341.25,1,94.371,
01/01/2000,01:05:30.42,21.72,-57.58,-993.08,192.50,-621.25,-306.25,1,94.382,
01/01/2000,01:05:30.43,21.84,-56.85,-992.96,87.50,-717.50,-253.75,1,94.393,
01/01/2000,01:05:30.44,21.96,-57.10,-992.96,192.50,-577.50,-297.50,1,94.403,
01/01/2000,01:05:30.45,21.96,-57.58,-992.71,175.0,-813.75,-315.0,1,94.238,
01/01/2000,01:05:30.46,21.96,-57.95,-992.71,148.75,-621.25,-533.75,1,94.249,
01/01/2000,01:05:30.47,21.96,-57.71,-992.84,35.0,-665.0,-271.25,1,94.259,
01/01/2000,01:05:30.48,21.96,-57.34,-993.08,175.0,-691.25,-367.50,1,94.270,
01/01/2000,01:05:30.49,21.84,-56.97,-993.08,157.50,-743.75,-332.50,1,94.280,
01/01/2000,01:05:30.50,21.96,-57.10,-993.08,218.75,-743.75,-288.75,1,94.291,
01/01/2000,01:05:30.52,21.96,-57.46,-992.84,113.75,-691.25,-306.25,1,94.301,
01/01/2000,01:05:30.53,21.96,-57.83,-992.84,157.50,-805.0,-437.50,1,94.312,
01/01/2000,01:05:30.54,21.96,-57.95,-992.84,262.50,-621.25,-411.25,1,94.322,
01/01/2000,01:05:30.55,22.08,-57.71,-992.71,78.75,-726.25,-358.75,1,94.333,
01/01/2000,01:05:30.56,21.96,-57.46,-992.84,201.25,-717.50,-192.50,1,94.343,
01/01/2000,01:05:30.57,21.84,-57.10,-992.84,131.25,-647.50,-350.0,1,94.353,
01/01/2000,01:05:30.58,21.72,-57.10,-992.84,280.0,-778.75,-323.75,1,94.364,
01/01/2000,01:05:30.59,21.72,-57.34,-992.84,140.0,-717.50,-332.50,1,94.374,
01/01/2000,01:05:30.60,21.84,-57.46,-992.71,236.25,-726.25,-350.0,1,94.384,
01/01/2000,01:05:30.61,21.72,-57.22,-992.59,218.75,-656.25,-306.25,1,94.394,
01/01/2000,01:05:30.62,21.72,-57.34,-992.71,218.75,-691.25,-262.50,1,94.404,
01/01/2000,01:05:30.63,21.59,-57.10,-992.71,140.0,-595.0,-245.0,1,94.414,
01/01/2000,01:05:30.64,21.59,-57.10,-992.84,131.25,-665.0,-315.0,1,94.424,
01/01/2000,01:05:30.65,21.72,-57.34,-992.71,323.75,-778.75,-297.50,1,94.434,
01/01/2000,01:05:30.66,21.72,-57.58,-992.59,148.75,-682.50,-402.50,1,94.275,
01/01/2000,01:05:30.67,21.72,-57.46,-992.59,96.25,-752.50,-323.75,1,94.286,
01/01/2000,01:05:30.68,21.96,-57.46,-992.59,332.50,-665.0,-315.0,1,94.296,
01/01/2000,01:05:30.69,21.84,-57.34,-992.59,166.25,-726.25,-385.0,1,94.306,
01/01/2000,01:05:30.71,21.72,-57.34,-992.59,131.25,-673.75,-288.75,1,94.316,
01/01/2000,01:05:30.72,21.72,-57.46,-992.59,271.25,-700.0,-341.25,1,94.326,
01/01/2000,01:05:30.73,21.59,-57.46,-992.59,271.25,-665.0,-463.75,1,94.336,
01/01/2000,01:05:30.74,21.84,-57.46,-992.59,175.0,-787.50,-306.25,1,94.346,
01/01/2000,01:05:30.75,21.72,-57.46,-992.59,175.0,-717.50,-297.50,1,94.356,
01/01/2000,01:05:30.76,21.72,-57.34,-992.71,140.0,-700.0,-358.75,1,94.200,
01/01/2000,01:05:30.77,21.72,-57.22,-992.84,17.50,-665.0,-280.0,1,94.376,
01/01/2000,01:05:30.78,21.72,-57.34,-992.71,122.50,-743.75,-393.75,1,94.221,
01/01/2000,01:05:30.79,21.72,-57.22,-992.71,105.0,-621.25,-350.0,1,94.231,
01/01/2000,01:05:30.80,21.72,-57.34,-992.71,192.50,-682.50,-411.25,1,94.241,
01/01/2000,01:05:30.81,21.84,-57.34,-992.59,288.75,-647.50,-376.25,1,94.251,
01/01/2000,01:05:30.82,21.72,-57.34,-992.59,175.0,-770.0,-323.75,1,94.261,
01/01/2000,01:05:30.83,21.72,-57.34,-992.59,218.75,-612.50,-210.0,1,94.271,
01/01/2000,01:05:30.84,21.47,-57.34,-992.47,122.50,-665.0,-350.0,1,94.281,
01/01/2000,01:05:30.85,21.59,-57.10,-992.47,96.25,-630.0,-288.75,1,94.291,
01/01/2000,01:05:30.86,21.96,-57.34,-992.71,236.25,-630.0,-218.75,1,94.301,
01/01/2000,01:05:30.88,22.20,-57.58,-992.84,201.25,-621.25,-245.0,1,94.310,
01/01/2000,01:05:30.89,21.96,-57.58,-992.71,183.75,-735.0,-420.0,1,94.320,
01/01/2000,01:05:30.90,21.84,-57.46,-992.59,131.25,-743.75,-385.0,1,94.330,
01/01/2000,01:05:30.91,21.84,-57.34,-992.59,210.0,-735.0,-288.75,1,94.340,
01/01/2000,01:05:30.92,21.96,-57.34,-992.71,175.0,-761.25,-358.75,1,94.349,
01/01/2000,01:05:30.93,21.96,-57.34,-992.84,157.50,-726.25,-323.75,1,94.359,
01/01/2000,01:05:30.94,21.96,-57.58,-992.84,131.25,-691.25,-367.50,1,94.369,
01/01/2000,01:05:30.95,21.96,-57.46,-992.71,131.25,-682.50,-385.0,1,94.378,
01/01/2000,01:05:30.96,21.96,-57.46,-992.59,131.25,-778.75,-385.0,1,94.388,
01/01/2000,01:05:30.97,21.84,-57.34,-992.59,113.75,-647.50,-288.75,1,94.237,
01/01/2000,01:05:30.98,21.84,-57.22,-992.84,210.0,-568.75,-253.75,1,94.407,
01/01/2000,01:05:30.99,21.72,-57.34,-992.84,201.25,-673.75,-288.75,1,94.257,
01/01/2000,01:05:31.00,21.84,-57.22,-992.84,78.75,-778.75,-350.0,1,94.426,
01/01/2000,01:05:31.02,21.84,-57.10,-992.59,245.0,-708.75,-350.0,1,94.276,
01/01/2000,01:05:31.03,21.96,-57.22,-992.59,140.0,-717.50,-358.75,1,94.286,
01/01/2000,01:05:31.04,21.84,-57.10,-992.59,78.75,-717.50,-271.25,1,94.295,
01/01/2000,01:05:31.05,21.72,-57.58,-992.59,236.25,-577.50,-315.0,1,94.305,
01/01/2000,01:05:31.06,21.72,-57.46,-992.84,210.0,-726.25,-446.25,1,94.314,
01/01/2000,01:05:31.07,21.84,-57.58,-992.71,131.25,-638.75,-402.50,1,94.324,
01/01/2000,01:05:31.08,21.72,-57.46,-992.35,166.25,-656.25,-323.75,1,94.333,
01/01/2000,01:05:31.09,21.72,-57.58,-992.35,87.50,-700.0,-358.75,1,94.343,
01/01/2000,01:05:31.10,21.47,-57.22,-992.59,96.25,-682.50,-236.25,1,94.352,
01/01/2000,01:05:31.11,21.47,-57.34,-992.59,271.25,-691.25,-367.50,1,94.362,
01/01/2000,01:05:31.12,21.47,-57.34,-992.59,236.25,-612.50,-288.75,1,94.371,
01/01/2000,01:05:31.13,21.59,-57.22,-992.96,131.25,-577.50,-367.50,1,94.380,
01/01/2000,01:05:31.14,21.72,-57.22,-992.71,245.0,-787.50,-393.75,1,94.389,
01/01/2000,01:05:31.15,21.96,-57.22,-992.47,175.0,-568.75,-358.75,1,94.243,
01/01/2000,01:05:31.16,21.84,-57.34,-992.35,227.50,-735.0,-341.25,1,94.253,
01/01/2000,01:05:31.17,21.84,-57.22,-992.59,288.75,-726.25,-323.75,1,94.262,
01/01/2000,01:05:31.18,21.96,-57.10,-992.71,201.25,-691.25,-315.0,1,94.272,
01/01/2000,01:05:31.19,21.96,-57.22,-992.84,236.25,-682.50,-271.25,1,94.281,
01/01/2000,01:05:31.20,21.96,-57.10,-992.71,140.0,-700.0,-341.25,1,94.290,
01/01/2000,01:05:31.21,21.96,-57.34,-992.71,236.25,-691.25,-253.75,1,94.300,
01/01/2000,01:05:31.23,21.96,-57.34,-992.71,96.25,-770.0,-437.50,1,94.156,
01/01/2000,01:05:31.24,22.08,-57.34,-992.96,96.25,-708.75,-262.50,1,94.165,
01/01/2000,01:05:31.25,21.96,-57.34,-992.84,271.25,-708.75,-227.50,1,94.175,
01/01/2000,01:05:31.26,21.96,-57.46,-992.71,218.75,-691.25,-297.50,1,94.184,
01/01/2000,01:05:31.27,21.84,-57.46,-992.59,183.75,-691.25,-288.75,1,94.194,
01/01/2000,01:05:31.28,21.72,-57.58,-992.59,245.0,-682.50,-367.50,1,94.203,
01/01/2000,01:05:31.29,21.72,-57.46,-992.71,218.75,-665.0,-350.0,1,94.212,
01/01/2000,01:05:31.31,21.72,-57.34,-992.71,105.0,-638.75,-367.50,1,94.222,
01/01/2000,01:05:31.31,21.84,-57.34,-992.84,341.25,-656.25,-245.0,1,94.231,
01/01/2000,01:05:31.33,21.84,-57.58,-992.71,52.50,-770.0,-367.50,1,94.240,
01/01/2000,01:05:31.34,21.96,-57.58,-992.84,218.75,-630.0,-455.0,1,94.249,
01/01/2000,01:05:31.35,22.08,-57.58,-992.84,201.25,-752.50,-420.0,1,94.258,
01/01/2000,01:05:31.36,22.20,-57.34,-992.84,52.50,-612.50,-315.0,1,94.268,
01/01/2000,01:05:31.37,22.08,-57.46,-992.59,166.25,-743.75,-332.50,1,94.277,
01/01/2000,01:05:31.38,21.84,-57.58,-992.35,192.50,-717.50,-218.75,1,94.286,
01/01/2000,01:05:31.39,21.47,-57.58,-992.59,131.25,-682.50,-341.25,1,94.295,
01/01/2000,01:05:31.40,21.72,-57.58,-992.59,148.75,-673.75,-376.25,1,94.304,
01/01/2000,01:05:31.41,21.96,-57.46,-992.84,297.50,-700.0,-437.50,1,94.313,
01/01/2000,01:05:31.42,22.08,-57.22,-992.84,341.25,-717.50,-358.75,1,94.322,
01/01/2000,01:05:31.43,22.08,-57.22,-992.59,122.50,-700.0,-367.50,1,94.331,
01/01/2000,01:05:31.44,21.84,-57.46,-992.35,96.25,-787.50,-341.25,1,94.340,
01/01/2000,01:05:31.45,21.84,-57.58,-992.59,271.25,-638.75,-332.50,1,94.349,
01/01/2000,01:05:31.46,21.84,-57.58,-992.59,140.0,-717.50,-367.50,1,94.357,
01/01/2000,01:05:31.47,22.20,-57.58,-992.59,8.75,-665.0,-306.25,1,94.366,
01/01/2000,01:05:31.48,22.08,-57.34,-992.35,131.25,-743.75,-323.75,1,94.375,
01/01/2000,01:05:31.49,21.96,-57.46,-992.35,105.0,-673.75,-341.25,1,94.384,
01/01/2000,01:05:31.50,21.72,-57.34,-992.35,87.50,-691.25,-411.25,1,94.246,
01/01/2000,01:05:31.51,21.84,-57.58,-992.71,87.50,-647.50,-280.0,1,94.255,
01/01/2000,01:05:31.52,21.84,-57.46,-992.84,96.25,-708.75,-402.50,1,94.264,
01/01/2000,01:05:31.54,21.84,-57.34,-992.84,166.25,-752.50,-236.25,1,94.272,
01/01/2000,01:05:31.54,21.96,-57.22,-992.84,122.50,-761.25,-367.50,1,94.281,
01/01/2000,01:05:31.56,21.72,-57.46,-992.71,262.50,-673.75,-306.25,1,94.290,
01/01/2000,01:05:31.57,21.72,-57.34,-992.71,8.75,-647.50,-402.50,1,94.299,
01/01/2000,01:05:31.58,21.96,-57.34,-992.84,148.75,-770.0,-350.0,1,94.308,
01/01/2000,01:05:31.59,21.96,-57.46,-992.84,131.25,-621.25,-323.75,1,94.316,
01/01/2000,01:05:31.60,21.96,-57.34,-992.71,17.50,-778.75,-315.0,1,94.325,
01/01/2000,01:05:31.61,21.84,-57.58,-992.59,131.25,-682.50,-297.50,1,94.334,
01/01/2000,01:05:31.62,21.72,-57.95,-992.59,131.25,-805.0,-367.50,1,94.343,
01/01/2000,01:05:31.63,21.72,-57.58,-992.59,323.75,-630.0,-332.50,1,94.351,
01/01/2000,01:05:31.64,21.84,-57.46,-992.59,227.50,-700.0,-402.50,1,94.360,
01/01/2000,01:05:31.65,21.96,-57.46,-992.59,166.25,-647.50,-306.25,1,94.225,
01/01/2000,01:05:31.66,21.59,-57.46,-992.47,227.50,-630.0,-385.0,1,94.234,
01/01/2000,01:05:31.67,21.72,-57.58,-992.59,148.75,-630.0,-393.75,1,94.242,
01/01/2000,01:05:31.68,21.72,-57.58,-992.59,113.75,-691.25,-341.25,1,94.251,
01/01/2000,01:05:31.69,21.72,-57.34,-992.59,157.50,-726.25,-367.50,1,94.260,
01/01/2000,01:05:31.70,21.84,-57.10,-992.47,148.75,-682.50,-315.0,1,94.268,
01/01/2000,01:05:31.72,21.72,-57.46,-992.59,262.50,-691.25,-306.25,1,94.277,
01/01/2000,01:05:31.73,21.72,-57.46,-992.71,131.25,-621.25,-306.25,1,94.286,
01/01/2000,01:05:31.74,21.72,-57.46,-992.59,17.50,-761.25,-315.0,1,94.294,
01/01/2000,01:05:31.75,21.84,-57.34,-992.59,122.50,-682.50,-367.50,1,94.162,
01/01/2000,01:05:31.76,21.96,-57.34,-992.47,122.50,-682.50,-288.75,1,94.170,
01/01/2000,01:05:31.77,21.84,-57.34,-992.59,210.0,-700.0,-210.0,1,94.179,
01/01/2000,01:05:31.78,21.84,-57.34,-992.59,105.0,-708.75,-376.25,1,94.188,
01/01/2000,01:05:31.79,21.84,-57.46,-992.59,175.0,-595.0,-358.75,1,94.196,
01/01/2000,01:05:31.80,21.96,-57.46,-992.59,78.75,-630.0,-367.50,1,94.205,
01/01/2000,01:05:31.81,21.96,-57.34,-992.47,131.25,-621.25,-358.75,1,94.214,
01/01/2000,01:05:31.82,22.08,-57.46,-992.10,122.50,-603.75,-253.75,1,94.222,
01/01/2000,01:05:31.83,21.84,-57.58,-992.10,131.25,-726.25,-350.0,1,94.231,
01/01/2000,01:05:31.84,21.59,-57.34,-992.35,122.50,-673.75,-341.25,1,94.239,
01/01/2000,01:05:31.86,21.84,-57.34,-992.59,131.25,-708.75,-323.75,1,94.248,
01/01/2000,01:05:31.87,21.96,-57.10,-992.59,131.25,-673.75,-367.50,1,94.256,
01/01/2000,01:05:31.88,22.20,-57.10,-992.35,175.0,-787.50,-385.0,1,94.265,
01/01/2000,01:05:31.89,22.20,-57.34,-992.23,166.25,-665.0,-341.25,1,94.273,
01/01/2000,01:05:31.90,21.96,-57.34,-992.23,157.50,-700.0,-376.25,1,94.282,
01/01/2000,01:05:31.91,21.96,-57.58,-992.35,166.25,-717.50,-315.0,1,94.290,
01/01/2000,01:05:31.92,21.84,-57.34,-992.35,183.75,-621.25,-490.0,1,94.298,
01/01/2000,01:05:31.93,21.72,-56.85,-992.10,183.75,-603.75,-271.25,1,94.307,
01/01/2000,01:05:31.94,21.72,-57.10,-992.23,105.0,-717.50,-192.50,1,94.315,
01/01/2000,01:05:31.95,21.59,-57.22,-992.23,157.50,-778.75,-315.0,1,94.323,
01/01/2000,01:05:31.96,21.59,-57.58,-992.35,131.25,-647.50,-367.50,1,94.331,
01/01/2000,01:05:31.97,21.47,-57.46,-992.47,157.50,-673.75,-385.0,1,94.340,
01/01/2000,01:05:31.98,21.59,-57.10,-992.35,122.50,-761.25,-393.75,1,94.348,
01/01/2000,01:05:31.99,21.47,-57.10,-992.23,166.25,-682.50,-358.75,1,94.356,
01/01/2000,01:05:32.00,21.47,-56.97,-992.23,166.25,-682.50,-166.25,1,94.364,
01/01/2000,01:05:32.01,21.72,-57.10,-992.59,-70.0,-700.0,-358.75,1,94.372,
01/01/2000,01:05:32.02,21.72,-57.58,-992.59,253.75,-647.50,-393.75,1,94.380,
01/01/2000,01:05:32.03,21.72,-57.46,-992.59,70.0,-603.75,-385.0,1,94.388,
01/01/2000,01:05:32.04,21.72,-57.58,-992.47,218.75,-673.75,-358.75,1,94.397,
01/01/2000,01:05:32.05,21.72,-57.34,-992.47,17.50,-700.0,-192.50,1,94.405,
01/01/2000,01:05:32.07,21.84,-57.58,-992.71,140.0,-743.75,-323.75,1,94.278,
01/01/2000,01:05:32.08,21.84,-57.58,-992.84,140.0,-656.25,-297.50,1,94.286,
01/01/2000,01:05:32.09,21.84,-57.71,-992.59,157.50,-743.75,-385.0,1,94.294,
01/01/2000,01:05:32.10,21.96,-57.58,-992.59,218.75,-778.75,-323.75,1,94.302,
01/01/2000,01:05:32.11,21.96,-57.34,-992.59,113.75,-560.0,-341.25,1,94.310,
01/01/2000,01:05:32.12,21.84,-57.46,-992.59,-26.25,-656.25,-227.50,1,94.318,
01/01/2000,01:05:32.13,21.84,-57.58,-992.71,236.25,-691.25,-288.75,1,94.326,
01/01/2000,01:05:32.14,21.96,-57.46,-992.59,376.25,-805.0,-463.75,1,94.334,
01/01/2000,01:05:32.15,21.96,-57.22,-992.59,105.0,-726.25,-437.50,1,94.342,
01/01/2000,01:05:32.16,21.96,-57.10,-992.59,70.0,-673.75,-306.25,1,94.350,
01/01/2000,01:05:32.17,21.96,-57.10,-992.47,201.25,-735.0,-358.75,1,94.358,
01/01/2000,01:05:32.18,21.72,-57.22,-992.59,201.25,-621.25,-271.25,1,94.366,
01/01/2000,01:05:32.19,21.84,-57.34,-992.59,201.25,-682.50,-411.25,1,94.374,
01/01/2000,01:05:32.20,21.96,-57.22,-992.84,70.0,-551.25,-332.50,1,94.382,
01/01/2000,01:05:32.21,22.08,-57.10,-992.71,70.0,-735.0,-385.0,1,94.258,
01/01/2000,01:05:32.22,22.08,-57.22,-992.47,166.25,-796.25,-332.50,1,94.266,
01/01/2000,01:05:32.23,21.96,-57.22,-992.59,148.75,-691.25,-245.0,1,94.274,
01/01/2000,01:05:32.24,21.96,-57.46,-992.59,157.50,-673.75,-262.50,1,94.282,
01/01/2000,01:05:32.26,22.08,-57.22,-992.71,166.25,-638.75,-437.50,1,94.290,
01/01/2000,01:05:32.27,21.96,-57.22,-992.47,157.50,-665.0,-323.75,1,94.298,
01/01/2000,01:05:32.28,21.84,-57.34,-992.35,-8.75,-656.25,-288.75,1,94.306,
01/01/2000,01:05:32.29,21.72,-57.34,-992.23,271.25,-647.50,-358.75,1,94.313,
01/01/2000,01:05:32.30,21.96,-57.22,-992.35,210.0,-708.75,-253.75,1,94.321,
01/01/2000,01:05:32.31,21.96,-57.22,-992.59,70.0,-735.0,-323.75,1,94.329,
01/01/2000,01:05:32.32,21.96,-57.10,-992.47,183.75,-568.75,-192.50,1,94.337,
01/01/2000,01:05:32.33,21.84,-57.34,-992.35,148.75,-656.25,-341.25,1,94.345,
01/01/2000,01:05:32.34,21.84,-57.10,-992.23,43.75,-647.50,-210.0,1,94.353,
01/01/2000,01:05:32.35,21.96,-56.97,-992.47,131.25,-743.75,-140.0,1,94.231,
01/01/2000,01:05:32.36,21.96,-56.85,-992.35,148.75,-656.25,-70.0,1,94.239,
01/01/2000,01:05:32.37,21.72,-56.12,-992.35,148.75,-743.75,280.0,1,94.247,
01/01/2000,01:05:32.38,21.84,-54.78,-992.10,183.75,-673.75,892.50,1,94.254,
01/01/2000,01:05:32.39,21.84,-51.00,-992.23,192.50,-665.0,1968.75,1,94.262,
01/01/2000,01:05:32.40,21.47,-49.41,-992.71,201.25,-551.25,3281.25,1,94.270,
01/01/2000,01:05:32.41,21.11,-49.29,-993.08,201.25,-621.25,4996.25,1,94.278,
01/01/2000,01:05:32.43,20.98,-52.09,-993.20,140.0,-472.50,6238.75,1,94.286,
01/01/2000,01:05:32.44,21.35,-54.41,-992.84,17.50,-516.25,6203.75,1,94.293,
01/01/2000,01:05:32.45,22.08,-57.22,-991.86,17.50,-630.0,6335.0,1,94.301,
01/01/2000,01:05:32.46,22.08,-57.58,-991.62,175.0,-525.0,6623.75,1,94.309,
01/01/2000,01:05:32.47,21.96,-57.10,-991.74,-52.50,-533.75,7131.25,1,94.317,
01/01/2000,01:05:32.48,21.72,-56.00,-991.98,70.0,-315.0,8522.50,1,94.324,
01/01/2000,01:05:32.49,21.23,-53.56,-992.71,148.75,-297.50,9940.0,1,94.332,
01/01/2000,01:05:32.50,21.47,-52.34,-992.84,140.0,-218.75,11926.25,1,94.340,
01/01/2000,01:05:32.51,21.72,-51.85,-992.59,0.0,-271.25,13160.0,1,94.347,
01/01/2000,01:05:32.52,21.96,-53.19,-992.35,78.75,-288.75,14218.75,1,94.355,
01/01/2000,01:05:32.53,21.84,-54.66,-992.23,43.75,-288.75,14735.0,1,94.362,
01/01/2000,01:05:32.54,21.72,-55.63,-992.47,43.75,-288.75,13230.0,1,94.370,
01/01/2000,01:05:32.55,21.84,-56.61,-992.47,35.0,-280.0,11331.25,1,94.378,
01/01/2000,01:05:32.56,21.84,-56.97,-992.35,-61.25,-472.50,8076.25,1,94.259,
01/01/2000,01:05:32.57,21.59,-58.07,-992.10,87.50,-455.0,5845.0,1,94.267,
01/01/2000,01:05:32.58,21.72,-59.78,-992.10,175.0,-577.50,4007.50,1,94.274,
01/01/2000,01:05:32.59,21.59,-61.24,-992.10,17.50,-682.50,2765.0,1,94.282,
01/01/2000,01:05:32.60,21.84,-62.10,-991.98,52.50,-735.0,1417.50,1,94.290,
01/01/2000,01:05:32.61,22.08,-61.98,-991.86,227.50,-656.25,1172.50,1,94.297,
01/01/2000,01:05:32.62,21.96,-61.0,-991.86,70.0,-735.0,1671.25,1,94.305,
01/01/2000,01:05:32.64,21.59,-58.80,-992.23,157.50,-560.0,2861.25,1,94.312,
01/01/2000,01:05:32.65,21.47,-57.71,-992.35,-70.0,-603.75,3570.0,1,94.320,
01/01/2000,01:05:32.66,21.47,-57.95,-992.59,236.25,-481.25,4086.25,1,94.327,
01/01/2000,01:05:32.67,21.47,-59.05,-992.59,87.50,-560.0,3675.0,1,94.335,
01/01/2000,01:05:32.68,21.72,-62.10,-992.10,262.50,-516.25,2817.50,1,94.342,
01/01/2000,01:05:32.69,21.96,-62.46,-991.86,-78.75,-638.75,1251.25,1,94.350,
01/01/2000,01:05:32.70,22.08,-61.12,-991.86,245.0,-831.25,-35.0,1,94.233,
01/01/2000,01:05:32.71,21.59,-59.54,-992.10,-52.50,-656.25,175.0,1,94.241,
01/01/2000,01:05:32.72,21.47,-58.80,-992.59,70.0,-577.50,603.75,1,94.248,
01/01/2000,01:05:32.73,21.23,-58.68,-992.96,323.75,-621.25,682.50,1,94.256,
01/01/2000,01:05:32.74,21.59,-59.17,-992.71,70.0,-612.50,612.50,1,94.263,
01/01/2000,01:05:32.75,22.08,-59.90,-992.10,78.75,-673.75,245.0,1,94.271,
01/01/2000,01:05:32.77,21.96,-59.78,-991.86,166.25,-892.50,-131.25,1,94.278,
01/01/2000,01:05:32.78,21.72,-59.17,-992.47,131.25,-691.25,-17.50,1,94.286,
01/01/2000,01:05:32.79,21.59,-57.95,-992.84,376.25,-630.0,17.50,1,94.293,
01/01/2000,01:05:32.80,21.59,-57.83,-992.84,70.0,-700.0,0.0,1,94.301,
01/01/2000,01:05:32.81,21.59,-57.83,-992.59,183.75,-612.50,-78.75,1,94.308,
01/01/2000,01:05:32.82,21.72,-58.07,-992.10,-17.50,-691.25,-17.50,1,94.194,
01/01/2000,01:05:32.83,21.84,-58.80,-992.10,201.25,-682.50,-175.0,1,94.323,
01/01/2000,01:05:32.84,21.84,-58.68,-992.35,192.50,-708.75,-288.75,1,94.208,
01/01/2000,01:05:32.85,21.72,-58.19,-992.71,166.25,-647.50,-183.75,1,94.216,
01/01/2000,01:05:32.86,21.59,-57.34,-992.71,201.25,-665.0,-87.50,1,94.223,
01/01/2000,01:05:32.87,21.47,-57.10,-992.35,140.0,-691.25,-105.0,1,94.231,
01/01/2000,01:05:32.88,21.47,-57.46,-991.98,227.50,-708.75,-35.0,1,94.238,
01/01/2000,01:05:32.89,21.72,-57.83,-992.10,140.0,-595.0,-140.0,1,94.246,
01/01/2000,01:05:32.90,21.84,-58.32,-992.23,43.75,-805.0,-227.50,1,94.253,
01/01/2000,01:05:32.92,21.96,-58.07,-992.23,-43.75,-717.50,-332.50,1,94.260,
01/01/2000,01:05:32.93,21.72,-57.34,-992.10,236.25,-700.0,-262.50,1,94.268,
01/01/2000,01:05:32.94,21.47,-57.10,-992.10,280.0,-647.50,-323.75,1,94.275,
01/01/2000,01:05:32.95,21.47,-56.97,-992.35,140.0,-700.0,-315.0,1,94.282,
01/01/2000,01:05:32.96,21.59,-57.34,-992.59,166.25,-673.75,-262.50,1,94.289,
01/01/2000,01:05:32.97,21.72,-57.71,-992.35,43.75,-796.25,-420.0,1,94.297,
01/01/2000,01:05:32.98,21.72,-57.83,-992.35,17.50,-761.25,-376.25,1,94.304,
01/01/2000,01:05:32.99,21.72,-57.46,-992.35,52.50,-796.25,-341.25,1,94.311,
01/01/2000,01:05:33.00,21.72,-57.10,-992.35,227.50,-630.0,-201.25,1,94.318,
01/01/2000,01:05:33.01,21.59,-56.97,-992.59,192.50,-743.75,-183.75,1,94.325,
01/01/2000,01:05:33.02,21.47,-56.97,-992.59,157.50,-691.25,-350.0,1,94.332,
01/01/2000,01:05:33.03,21.59,-57.34,-992.47,183.75,-735.0,-297.50,1,94.340,
01/01/2000,01:05:33.04,21.84,-57.46,-992.23,26.25,-848.75,-306.25,1,94.347,
01/01/2000,01:05:33.05,21.72,-57.34,-992.10,183.75,-682.50,-306.25,1,94.236,
01/01/2000,01:05:33.07,21.72,-57.22,-992.10,166.25,-682.50,-455.0,1,94.243,
01/01/2000,01:05:33.08,21.84,-57.22,-992.10,175.0,-665.0,-350.0,1,94.250,
01/01/2000,01:05:33.09,21.72,-57.10,-992.10,131.25,-770.0,-280.0,1,94.257,
01/01/2000,01:05:33.10,21.47,-57.10,-992.10,201.25,-691.25,-446.25,1,94.264,
01/01/2000,01:05:33.11,21.72,-57.34,-992.23,122.50,-691.25,-350.0,1,94.271,
01/01/2000,01:05:33.12,21.84,-57.34,-992.23,201.25,-743.75,-315.0,1,94.279,
01/01/2000,01:05:33.13,21.84,-57.46,-992.47,175.0,-560.0,-271.25,1,94.286,
01/01/2000,01:05:33.14,21.59,-57.46,-992.59,157.50,-577.50,-411.25,1,94.293,
01/01/2000,01:05:33.15,21.59,-57.22,-992.35,-17.50,-665.0,-367.50,1,94.300,
01/01/2000,01:05:33.16,21.72,-57.34,-992.23,201.25,-665.0,-175.0,1,94.307,
01/01/2000,01:05:33.17,21.84,-57.22,-992.10,245.0,-647.50,-323.75,1,94.314,
01/01/2000,01:05:33.18,21.84,-57.46,-992.23,218.75,-743.75,-297.50,1,94.321,
01/01/2000,01:05:33.19,21.84,-57.83,-992.35,288.75,-682.50,-341.25,1,94.328,
01/01/2000,01:05:33.20,21.72,-57.58,-992.35,140.0,-665.0,-367.50,1,94.219,
01/01/2000,01:05:33.21,21.72,-57.22,-992.47,148.75,-630.0,-332.50,1,94.226,
01/01/2000,01:05:33.22,21.72,-57.10,-992.47,166.25,-691.25,-297.50,1,94.233,
01/01/2000,01:05:33.23,21.72,-57.34,-992.35,78.75,-682.50,-367.50,1,94.240,
01/01/2000,01:05:33.24,21.72,-57.58,-992.35,175.0,-761.25,-306.25,1,94.247,
01/01/2000,01:05:33.25,21.72,-57.71,-992.35,157.50,-778.75,-455.0,1,94.254,
01/01/2000,01:05:33.26,21.72,-57.46,-992.35,183.75,-735.0,-481.25,1,94.261,
01/01/2000,01:05:33.28,21.72,-57.34,-992.47,201.25,-717.50,-245.0,1,94.153,
01/01/2000,01:05:33.29,21.72,-57.34,-992.47,157.50,-665.0,-148.75,1,94.161,
01/01/2000,01:05:33.30,21.84,-57.58,-992.35,157.50,-743.75,-306.25,1,94.168,
01/01/2000,01:05:33.31,21.96,-57.58,-992.23,140.0,-682.50,-376.25,1,94.175,
01/01/2000,01:05:33.32,21.96,-57.71,-992.23,218.75,-743.75,-315.0,1,94.182,
01/01/2000,01:05:33.33,21.96,-57.58,-992.35,148.75,-726.25,-420.0,1,94.189,
01/01/2000,01:05:33.35,21.84,-57.22,-992.35,192.50,-612.50,-402.50,1,94.196,
01/01/2000,01:05:33.35,21.72,-57.34,-992.23,201.25,-665.0,-315.0,1,94.203,
01/01/2000,01:05:33.37,21.72,-57.46,-992.10,201.25,-595.0,-280.0,1,94.210,
01/01/2000,01:05:33.38,21.72,-57.58,-992.23,140.0,-673.75,-306.25,1,94.217,
01/01/2000,01:05:33.39,21.84,-57.58,-992.23,96.25,-717.50,-411.25,1,94.224,
01/01/2000,01:05:33.40,21.84,-57.58,-992.23,306.25,-691.25,-227.50,1,94.231,
01/01/2000,01:05:33.41,21.84,-57.58,-992.23,262.50,-638.75,-358.75,1,94.238,
01/01/2000,01:05:33.42,21.84,-57.58,-992.35,157.50,-691.25,-385.0,1,94.245,
01/01/2000,01:05:33.43,21.72,-57.46,-992.35,105.0,-665.0,-437.50,1,94.251,
01/01/2000,01:05:33.44,21.72,-57.34,-992.35,227.50,-647.50,-323.75,1,94.258,
01/01/2000,01:05:33.45,21.84,-57.34,-992.35,280.0,-673.75,-411.25,1,94.265,
01/01/2000,01:05:33.46,21.96,-57.34,-992.35,140.0,-735.0,-385.0,1,94.272,
01/01/2000,01:05:33.47,21.96,-57.34,-992.23,183.75,-700.0,-306.25,1,94.279,
01/01/2000,01:05:33.48,21.84,-57.22,-992.10,192.50,-700.0,-332.50,1,94.286,
01/01/2000,01:05:33.49,21.84,-57.10,-992.23,297.50,-630.0,-280.0,1,94.293,
01/01/2000,01:05:33.50,21.96,-57.10,-992.23,35.0,-726.25,-306.25,1,94.299,
01/01/2000,01:05:33.51,21.96,-57.10,-992.10,183.75,-700.0,-253.75,1,94.306,
01/01/2000,01:05:33.52,21.96,-57.34,-992.23,52.50,-708.75,-236.25,1,94.313,
01/01/2000,01:05:33.53,21.96,-57.34,-992.23,245.0,-682.50,-376.25,1,94.320,
01/01/2000,01:05:33.54,21.84,-57.34,-992.35,175.0,-638.75,-402.50,1,94.326,
01/01/2000,01:05:33.56,21.96,-57.10,-992.35,157.50,-717.50,-367.50,1,94.222,
01/01/2000,01:05:33.56,21.84,-57.10,-992.23,166.25,-796.25,-315.0,1,94.229,
01/01/2000,01:05:33.58,21.72,-57.34,-992.23,131.25,-708.75,-385.0,1,94.235,
01/01/2000,01:05:33.59,21.72,-57.34,-992.35,201.25,-761.25,-376.25,1,94.242,
01/01/2000,01:05:33.60,21.72,-57.34,-992.35,35.0,-682.50,-332.50,1,94.249,
01/01/2000,01:05:33.61,21.72,-57.22,-992.35,78.75,-647.50,-393.75,1,94.256,
01/01/2000,01:05:33.62,21.72,-57.34,-992.23,192.50,-630.0,-297.50,1,94.262,
01/01/2000,01:05:33.63,21.72,-57.22,-991.98,78.75,-708.75,-402.50,1,94.269,
01/01/2000,01:05:33.64,21.96,-57.22,-992.23,96.25,-656.25,-350.0,1,94.276,
01/01/2000,01:05:33.65,21.96,-57.22,-992.23,175.0,-665.0,-323.75,1,94.282,
01/01/2000,01:05:33.66,22.20,-57.22,-992.35,8.75,-735.0,-385.0,1,94.289,
01/01/2000,01:05:33.67,22.08,-57.34,-992.10,201.25,-796.25,-280.0,1,94.296,
01/01/2000,01:05:33.68,21.96,-57.22,-991.98,122.50,-770.0,-376.25,1,94.302,
01/01/2000,01:05:33.69,21.84,-57.34,-992.23,166.25,-682.50,-446.25,1,94.309,
01/01/2000,01:05:33.70,21.72,-57.22,-992.59,306.25,-735.0,-385.0,1,94.206,
01/01/2000,01:05:33.71,22.45,-56.97,-992.35,227.50,-770.0,-428.75,1,94.213,
01/01/2000,01:05:33.72,22.45,-57.22,-992.10,192.50,-883.75,-87.50,1,94.220,
01/01/2000,01:05:33.73,21.96,-57.46,-992.35,166.25,-691.25,-157.50,1,94.226,
01/01/2000,01:05:33.74,21.23,-57.71,-992.84,148.75,-700.0,-665.0,1,94.233,
01/01/2000,01:05:33.75,21.96,-57.10,-992.96,157.50,-682.50,-848.75,1,94.240,
01/01/2000,01:05:33.77,22.33,-56.61,-992.47,70.0,-612.50,-52.50,1,94.246,
01/01/2000,01:05:33.78,21.84,-56.85,-992.10,183.75,-770.0,175.0,1,94.253,
01/01/2000,01:05:33.79,21.72,-57.58,-991.86,201.25,-682.50,-621.25,1,94.259,
01/01/2000,01:05:33.80,21.96,-57.34,-992.47,70.0,-603.75,-323.75,1,94.158,
01/01/2000,01:05:33.81,21.96,-57.22,-992.59,280.0,-595.0,-245.0,1,94.165,
01/01/2000,01:05:33.82,22.08,-56.97,-992.35,245.0,-708.75,-323.75,1,94.171,
01/01/2000,01:05:33.83,22.20,-57.10,-992.10,131.25,-700.0,-218.75,1,94.178,
01/01/2000,01:05:33.84,21.84,-57.34,-992.10,131.25,-656.25,-288.75,1,94.185,
01/01/2000,01:05:33.85,21.72,-57.46,-992.35,35.0,-647.50,-411.25,1,94.191,
01/01/2000,01:05:33.86,21.96,-57.58,-992.71,166.25,-726.25,-367.50,1,94.198,
01/01/2000,01:05:33.87,21.96,-57.58,-992.71,192.50,-752.50,-481.25,1,94.205,
01/01/2000,01:05:33.88,21.72,-57.34,-992.23,245.0,-647.50,-148.75,1,94.211,
01/01/2000,01:05:33.89,21.72,-57.10,-991.98,35.0,-735.0,-367.50,1,94.218,
01/01/2000,01:05:33.90,21.72,-57.22,-992.23,192.50,-577.50,-218.75,1,94.224,
01/01/2000,01:05:33.92,22.08,-57.46,-992.59,236.25,-673.75,-367.50,1,94.231,
01/01/2000,01:05:33.93,22.08,-57.46,-992.59,140.0,-778.75,-367.50,1,94.237,
01/01/2000,01:05:33.94,21.96,-57.34,-992.35,113.75,-752.50,-271.25,1,94.244,
01/01/2000,01:05:33.95,21.72,-57.34,-992.10,61.25,-700.0,-306.25,1,94.250,
01/01/2000,01:05:33.96,21.84,-57.22,-992.23,87.50,-656.25,-236.25,1,94.257,
01/01/2000,01:05:33.97,22.20,-57.34,-992.47,271.25,-708.75,-437.50,1,94.263,
01/01/2000,01:05:33.98,22.20,-57.58,-992.47,8.75,-595.0,-280.0,1,94.270,
01/01/2000,01:05:33.99,21.72,-57.58,-992.23,201.25,-735.0,-367.50,1,94.276,
01/01/2000,01:05:34.00,21.59,-57.58,-991.98,183.75,-726.25,-437.50,1,94.283,
01/01/2000,01:05:34.01,21.72,-57.34,-991.86,140.0,-726.25,-367.50,1,94.289,
01/01/2000,01:05:34.02,21.96,-57.22,-992.35,157.50,-700.0,-236.25,1,94.295,
01/01/2000,01:05:34.03,21.84,-57.46,-992.47,201.25,-682.50,-367.50,1,94.302,
01/01/2000,01:05:34.04,21.72,-57.58,-992.47,148.75,-700.0,-376.25,1,94.308,
01/01/2000,01:05:34.05,21.59,-57.58,-992.10,43.75,-761.25,-341.25,1,94.209,
01/01/2000,01:05:34.06,21.72,-57.46,-992.10,253.75,-665.0,-332.50,1,94.216,
01/01/2000,01:05:34.07,21.72,-57.34,-992.35,131.25,-691.25,-253.75,1,94.222,
01/01/2000,01:05:34.08,21.96,-57.34,-992.35,-52.50,-612.50,-201.25,1,94.229,
01/01/2000,01:05:34.09,21.72,-57.46,-992.23,280.0,-787.50,-288.75,1,94.235,
01/01/2000,01:05:34.10,21.72,-57.58,-992.10,131.25,-638.75,-455.0,1,94.241,
01/01/2000,01:05:34.11,21.59,-57.58,-992.10,271.25,-743.75,-402.50,1,94.248,
01/01/2000,01:05:34.13,21.84,-57.34,-992.10,297.50,-647.50,-262.50,1,94.254,
01/01/2000,01:05:34.14,21.84,-57.22,-992.10,262.50,-638.75,-367.50,1,94.260,
01/01/2000,01:05:34.15,21.72,-57.34,-992.23,218.75,-630.0,-341.25,1,94.267,
01/01/2000,01:05:34.16,21.84,-57.46,-992.10,262.50,-612.50,-455.0,1,94.273,
01/01/2000,01:05:34.17,21.96,-57.34,-991.98,70.0,-691.25,-376.25,1,94.279,
01/01/2000,01:05:34.18,21.96,-57.34,-992.23,201.25,-787.50,-332.50,1,94.286,
01/01/2000,01:05:34.19,21.96,-57.34,-992.35,236.25,-700.0,-455.0,1,94.189,
01/01/2000,01:05:34.20,21.96,-57.46,-992.35,157.50,-673.75,-271.25,1,94.195,
01/01/2000,01:05:34.21,21.96,-57.58,-992.23,148.75,-656.25,-367.50,1,94.201,
01/01/2000,01:05:34.22,21.96,-57.58,-992.35,227.50,-612.50,-402.50,1,94.208,
01/01/2000,01:05:34.23,21.96,-57.46,-992.35,166.25,-708.75,-350.0,1,94.214,
01/01/2000,01:05:34.24,22.08,-57.46,-992.35,253.75,-682.50,-411.25,1,94.220,
01/01/2000,01:05:34.25,22.08,-57.34,-992.35,140.0,-691.25,-297.50,1,94.227,
01/01/2000,01:05:34.27,21.96,-57.34,-992.10,218.75,-691.25,-376.25,1,94.233,
01/01/2000,01:05:34.28,21.96,-57.46,-992.10,236.25,-665.0,-288.75,1,94.239,
01/01/2000,01:05:34.29,22.08,-57.34,-992.10,148.75,-691.25,-288.75,1,94.245,
01/01/2000,01:05:34.30,21.96,-57.34,-992.23,105.0,-647.50,-323.75,1,94.150,
01/01/2000,01:05:34.31,21.72,-57.34,-992.10,218.75,-691.25,-367.50,1,94.156,
01/01/2000,01:05:34.33,21.72,-57.34,-992.10,192.50,-708.75,-358.75,1,94.162,
01/01/2000,01:05:34.34,21.96,-57.34,-992.35,113.75,-560.0,-262.50,1,94.168,
01/01/2000,01:05:34.35,21.96,-57.34,-992.35,157.50,-673.75,-376.25,1,94.175,
01/01/2000,01:05:34.36,21.84,-57.58,-992.23,192.50,-638.75,-411.25,1,94.181,
01/01/2000,01:05:34.37,21.84,-57.58,-992.10,70.0,-743.75,-420.0,1,94.187,
01/01/2000,01:05:34.38,21.96,-57.58,-992.10,227.50,-656.25,-350.0,1,94.194,
01/01/2000,01:05:34.39,21.96,-57.58,-992.23,201.25,-630.0,-323.75,1,94.200,
01/01/2000,01:05:34.40,21.96,-57.46,-992.35,245.0,-673.75,-175.0,1,94.206,
01/01/2000,01:05:34.41,21.96,-57.58,-992.10,148.75,-735.0,-420.0,1,94.212,
01/01/2000,01:05:34.42,21.96,-57.71,-991.98,105.0,-673.75,-350.0,1,94.218,
01/01/2000,01:05:34.43,21.84,-57.58,-992.10,210.0,-595.0,-446.25,1,94.225,
01/01/2000,01:05:34.44,21.96,-57.58,-992.23,131.25,-612.50,-288.75,1,94.231,
01/01/2000,01:05:34.45,21.96,-57.34,-992.23,-26.25,-665.0,-358.75,1,94.237,
01/01/2000,01:05:34.46,21.96,-57.46,-992.35,175.0,-691.25,-288.75,1,94.243,
01/01/2000,01:05:34.47,21.96,-57.46,-992.47,166.25,-717.50,-306.25,1,94.249,
01/01/2000,01:05:34.48,21.84,-57.58,-992.23,113.75,-665.0,-280.0,1,94.155,
01/01/2000,01:05:34.49,22.08,-57.71,-992.10,210.0,-761.25,-376.25,1,94.161,
01/01/2000,01:05:34.50,22.08,-57.58,-991.98,192.50,-787.50,-341.25,1,94.168,
01/01/2000,01:05:34.51,21.96,-57.34,-992.23,166.25,-691.25,-306.25,1,94.174,
01/01/2000,01:05:34.52,21.96,-57.34,-992.35,122.50,-673.75,-385.0,1,94.180,
01/01/2000,01:05:34.53,22.08,-57.34,-992.35,52.50,-647.50,-210.0,1,94.186,
01/01/2000,01:05:34.55,22.08,-57.34,-992.23,227.50,-717.50,-315.0,1,94.192,
01/01/2000,01:05:34.56,22.08,-57.46,-992.10,253.75,-656.25,-341.25,1,94.198,
01/01/2000,01:05:34.57,22.20,-57.46,-992.10,192.50,-691.25,-358.75,1,94.204,
01/01/2000,01:05:34.58,22.20,-57.34,-992.23,148.75,-691.25,-297.50,1,94.211,
01/01/2000,01:05:34.59,21.96,-57.46,-992.35,332.50,-560.0,-192.50,1,94.217,
01/01/2000,01:05:34.60,21.96,-57.34,-992.35,236.25,-708.75,-315.0,1,94.223,
01/01/2000,01:05:34.61,22.08,-57.34,-992.35,122.50,-673.75,-350.0,1,94.229,
01/01/2000,01:05:34.62,22.20,-57.34,-992.35,131.25,-691.25,-376.25,1,94.235,
01/01/2000,01:05:34.63,22.08,-57.34,-992.23,96.25,-682.50,-402.50,1,94.241,
01/01/2000,01:05:34.64,21.96,-57.34,-992.10,148.75,-647.50,-376.25,1,94.247,
01/01/2000,01:05:34.65,21.96,-57.34,-992.23,315.0,-621.25,-367.50,1,94.253,
01/01/2000,01:05:34.66,21.96,-57.34,-992.35,78.75,-691.25,-341.25,1,94.259,
01/01/2000,01:05:34.67,21.84,-57.34,-992.35,113.75,-708.75,-218.75,1,94.265,
01/01/2000,01:05:34.68,21.84,-57.34,-992.35,105.0,-717.50,-367.50,1,94.271,
01/01/2000,01:05:34.69,21.84,-57.34,-992.47,122.50,-743.75,-271.25,1,94.179,
01/01/2000,01:05:34.70,21.84,-57.34,-992.59,183.75,-682.50,-262.50,1,94.185,
01/01/2000,01:05:34.71,21.72,-57.34,-992.47,236.25,-656.25,-393.75,1,94.191,
01/01/2000,01:05:34.72,21.47,-57.10,-992.35,105.0,-813.75,-332.50,1,94.197,
01/01/2000,01:05:34.73,21.59,-57.22,-992.23,253.75,-700.0,-350.0,1,94.203,
01/01/2000,01:05:34.75,21.59,-57.10,-992.23,210.0,-752.50,-297.50,1,94.209,
01/01/2000,01:05:34.76,21.84,-57.10,-992.23,131.25,-717.50,-367.50,1,94.215,
01/01/2000,01:05:34.77,21.84,-57.34,-992.35,271.25,-630.0,-306.25,1,94.221,
01/01/2000,01:05:34.78,21.84,-57.10,-992.35,113.75,-621.25,-341.25,1,94.227,
01/01/2000,01:05:34.79,21.72,-57.22,-992.35,166.25,-735.0,-376.25,1,94.233,
01/01/2000,01:05:34.80,21.72,-57.10,-992.35,192.50,-603.75,-315.0,1,94.239,
01/01/2000,01:05:34.81,21.59,-57.10,-992.35,192.50,-778.75,-367.50,1,94.148,
01/01/2000,01:05:34.82,21.72,-57.22,-992.35,148.75,-647.50,-332.50,1,94.154,
01/01/2000,01:05:34.84,21.96,-57.22,-992.23,148.75,-717.50,-393.75,1,94.160,
01/01/2000,01:05:34.85,21.84,-57.10,-992.35,140.0,-717.50,-332.50,1,94.166,
01/01/2000,01:05:34.86,21.72,-57.10,-992.23,201.25,-586.25,-358.75,1,94.172,
01/01/2000,01:05:34.87,21.59,-56.97,-992.35,105.0,-743.75,-350.0,1,94.178,
01/01/2000,01:05:34.88,21.72,-56.85,-992.47,201.25,-682.50,-385.0,1,94.184,
01/01/2000,01:05:34.89,21.72,-56.97,-992.59,236.25,-787.50,-183.75,1,94.190,
01/01/2000,01:05:34.90,21.72,-57.10,-992.35,192.50,-691.25,-358.75,1,94.196,
01/01/2000,01:05:34.91,21.72,-57.10,-992.23,122.50,-682.50,-306.25,1,94.201,
01/01/2000,01:05:34.92,21.72,-57.22,-992.35,192.50,-778.75,-376.25,1,94.207,
01/01/2000,01:05:34.93,21.84,-57.10,-992.47,183.75,-656.25,-472.50,1,94.213,
01/01/2000,01:05:34.94,21.84,-57.10,-992.47,157.50,-717.50,-271.25,1,94.219,
01/01/2000,01:05:34.95,21.84,-56.97,-992.47,140.0,-708.75,-367.50,1,94.225,
01/01/2000,01:05:34.96,21.72,-57.10,-992.47,140.0,-787.50,-385.0,1,94.231,
01/01/2000,01:05:34.97,21.72,-57.10,-992.35,17.50,-612.50,-280.0,1,94.237,
01/01/2000,01:05:34.98,21.72,-57.34,-992.35,26.25,-673.75,-323.75,1,94.242,
01/01/2000,01:05:34.99,21.72,-57.34,-992.47,70.0,-743.75,-428.75,1,94.248,
01/01/2000,01:05:35.00,21.72,-57.10,-992.59,70.0,-735.0,-323.75,1,94.254,
01/01/2000,01:05:35.01,21.72,-57.10,-992.23,210.0,-647.50,-280.0,1,94.260,
01/01/2000,01:05:35.02,21.72,-57.10,-992.23,43.75,-665.0,-341.25,1,94.266,
01/01/2000,01:05:35.03,21.72,-57.22,-992.10,245.0,-656.25,-350.0,1,94.271,
01/01/2000,01:05:35.04,21.84,-57.46,-992.35,236.25,-630.0,-428.75,1,94.183,
01/01/2000,01:05:35.05,21.96,-57.34,-992.35,43.75,-647.50,-367.50,1,94.188,
01/01/2000,01:05:35.06,21.96,-57.34,-992.10,26.25,-726.25,-315.0,1,94.194,
01/01/2000,01:05:35.07,21.72,-57.22,-992.10,105.0,-682.50,-323.75,1,94.200,
01/01/2000,01:05:35.08,21.59,-57.34,-992.10,166.25,-726.25,-306.25,1,94.206,
01/01/2000,01:05:35.09,21.59,-57.34,-992.23,210.0,-638.75,-315.0,1,94.212,
01/01/2000,01:05:35.11,21.84,-57.46,-992.35,78.75,-647.50,-323.75,1,94.217,
01/01/2000,01:05:35.12,21.84,-57.34,-992.23,70.0,-717.50,-271.25,1,94.223,
01/01/2000,01:05:35.13,21.72,-57.46,-992.23,96.25,-595.0,-332.50,1,94.229,
01/01/2000,01:05:35.14,21.72,-57.58,-992.35,192.50,-770.0,-280.0,1,94.235,
01/01/2000,01:05:35.15,21.72,-57.34,-992.47,26.25,-708.75,-288.75,1,94.240,
01/01/2000,01:05:35.16,21.59,-57.34,-992.59,140.0,-708.75,-393.75,1,94.246,
01/01/2000,01:05:35.17,21.72,-57.46,-992.47,253.75,-577.50,-332.50,1,94.252,
01/01/2000,01:05:35.18,21.59,-57.46,-992.23,35.0,-700.0,-288.75,1,94.257,
01/01/2000,01:05:35.19,21.72,-57.46,-992.35,122.50,-778.75,-367.50,1,94.263,
01/01/2000,01:05:35.20,21.96,-57.34,-992.35,183.75,-673.75,-323.75,1,94.269,
01/01/2000,01:05:35.21,21.72,-57.10,-992.35,157.50,-761.25,-306.25,1,94.274,
01/01/2000,01:05:35.22,21.84,-57.10,-992.35,253.75,-691.25,-271.25,1,94.280,
01/01/2000,01:05:35.23,21.84,-57.22,-991.98,157.50,-638.75,-280.0,1,94.286,
01/01/2000,01:05:35.24,21.96,-57.46,-991.98,192.50,-647.50,-350.0,1,94.291,
01/01/2000,01:05:35.25,21.84,-57.58,-992.10,175.0,-595.0,-358.75,1,94.204,
01/01/2000,01:05:35.27,21.72,-57.58,-992.23,87.50,-743.75,-367.50,1,94.210,
01/01/2000,01:05:35.27,21.72,-57.58,-992.35,192.50,-691.25,-245.0,1,94.216,
01/01/2000,01:05:35.29,21.59,-57.46,-992.35,140.0,-726.25,-393.75,1,94.221,
01/01/2000,01:05:35.30,21.72,-57.58,-992.23,210.0,-700.0,-245.0,1,94.227,
01/01/2000,01:05:35.31,21.72,-57.58,-992.35,26.25,-691.25,-358.75,1,94.233,
01/01/2000,01:05:35.32,21.72,-57.58,-992.35,175.0,-560.0,-350.0,1,94.146,
01/01/2000,01:05:35.33,21.72,-57.46,-992.35,87.50,-673.75,-306.25,1,94.152,
01/01/2000,01:05:35.34,21.72,-57.58,-992.35,271.25,-761.25,-341.25,1,94.158,
01/01/2000,01:05:35.35,21.96,-57.46,-992.35,253.75,-682.50,-323.75,1,94.163,
01/01/2000,01:05:35.36,21.96,-57.46,-992.35,70.0,-682.50,-332.50,1,94.169,
01/01/2000,01:05:35.37,21.96,-57.46,-992.23,201.25,-665.0,-280.0,1,94.175,
01/01/2000,01:05:35.38,21.84,-57.46,-992.10,227.50,-726.25,-402.50,1,94.180,
01/01/2000,01:05:35.40,21.72,-57.34,-992.10,140.0,-761.25,-315.0,1,94.186,
01/01/2000,01:05:35.41,21.96,-57.34,-992.23,271.25,-665.0,-358.75,1,94.192,
01/01/2000,01:05:35.42,21.96,-57.46,-992.35,288.75,-621.25,-315.0,1,94.197,
01/01/2000,01:05:35.43,21.84,-57.34,-992.35,61.25,-586.25,-280.0,1,94.203,
01/01/2000,01:05:35.44,21.59,-57.46,-992.23,262.50,-665.0,-288.75,1,94.208,
01/01/2000,01:05:35.45,21.59,-57.34,-992.35,140.0,-691.25,-358.75,1,94.214,
01/01/2000,01:05:35.46,21.72,-57.34,-992.35,227.50,-691.25,-262.50,1,94.220,
01/01/2000,01:05:35.47,21.72,-57.34,-992.47,245.0,-656.25,-411.25,1,94.225,
01/01/2000,01:05:35.48,21.72,-57.22,-992.35,253.75,-673.75,-245.0,1,94.231,
01/01/2000,01:05:35.49,21.47,-57.22,-992.10,113.75,-805.0,-428.75,1,94.236,
01/01/2000,01:05:35.50,21.72,-57.34,-991.86,236.25,-700.0,-437.50,1,94.242,
01/01/2000,01:05:35.51,21.72,-57.34,-992.10,35.0,-708.75,-463.75,1,94.247,
01/01/2000,01:05:35.52,21.96,-57.34,-992.10,35.0,-708.75,-236.25,1,94.253,
01/01/2000,01:05:35.53,21.84,-57.46,-992.10,52.50,-700.0,-350.0,1,94.258,
01/01/2000,01:05:35.54,21.72,-57.46,-992.23,157.50,-708.75,-350.0,1,94.264,
01/01/2000,01:05:35.55,21.59,-57.46,-992.10,96.25,-770.0,-481.25,1,94.269,
01/01/2000,01:05:35.56,21.72,-57.46,-992.10,271.25,-656.25,-253.75,1,94.275,
01/01/2000,01:05:35.57,21.96,-57.34,-991.98,70.0,-717.50,-323.75,1,94.280,
01/01/2000,01:05:35.58,21.96,-57.46,-991.98,288.75,-656.25,-262.50,1,94.286,
01/01/2000,01:05:35.59,21.72,-57.58,-992.10,96.25,-673.75,-280.0,1,94.202,
01/01/2000,01:05:35.61,21.72,-57.58,-992.10,105.0,-726.25,-306.25,1,94.207,
01/01/2000,01:05:35.62,21.72,-57.46,-992.35,113.75,-673.75,-288.75,1,94.213,
01/01/2000,01:05:35.63,21.96,-57.34,-992.23,-8.75,-735.0,-253.75,1,94.218,
01/01/2000,01:05:35.64,21.96,-57.22,-992.23,175.0,-726.25,-271.25,1,94.223,
01/01/2000,01:05:35.65,21.84,-57.34,-992.23,131.25,-647.50,-420.0,1,94.229,
01/01/2000,01:05:35.66,21.96,-57.34,-992.35,192.50,-682.50,-376.25,1,94.234,
01/01/2000,01:05:35.67,21.96,-57.34,-992.47,105.0,-700.0,-358.75,1,94.240,
01/01/2000,01:05:35.68,21.72,-57.34,-992.59,148.75,-726.25,-227.50,1,94.245,
01/01/2000,01:05:35.69,21.96,-57.10,-992.35,183.75,-787.50,-463.75,1,94.251,
01/01/2000,01:05:35.70,22.33,-57.10,-991.86,78.75,-778.75,-210.0,1,94.256,
01/01/2000,01:05:35.71,22.20,-57.34,-991.98,96.25,-761.25,-236.25,1,94.262,
01/01/2000,01:05:35.72,21.72,-57.58,-992.10,113.75,-726.25,-420.0,1,94.267,
01/01/2000,01:05:35.73,21.72,-57.34,-992.35,78.75,-700.0,-498.75,1,94.272,
01/01/2000,01:05:35.74,22.20,-56.97,-992.10,113.75,-656.25,-385.0,1,94.189,
01/01/2000,01:05:35.75,22.08,-56.97,-992.10,78.75,-770.0,-192.50,1,94.195,
01/01/2000,01:05:35.76,21.84,-57.34,-991.98,271.25,-560.0,-341.25,1,94.200,
01/01/2000,01:05:35.77,21.72,-57.34,-992.10,35.0,-717.50,-350.0,1,94.206,
01/01/2000,01:05:35.78,21.84,-57.58,-992.23,210.0,-691.25,-507.50,1,94.211,
01/01/2000,01:05:35.79,21.72,-57.34,-992.35,157.50,-665.0,-332.50,1,94.216,
01/01/2000,01:05:35.80,21.72,-57.10,-992.10,122.50,-700.0,-385.0,1,94.222,
01/01/2000,01:05:35.82,21.96,-57.10,-991.86,96.25,-708.75,-323.75,1,94.227,
01/01/2000,01:05:35.83,21.96,-57.34,-992.23,105.0,-778.75,-332.50,1,94.233,
01/01/2000,01:05:35.84,21.96,-57.58,-992.47,166.25,-638.75,-411.25,1,94.150,
01/01/2000,01:05:35.85,21.96,-57.34,-992.59,140.0,-840.0,-323.75,1,94.156,
01/01/2000,01:05:35.86,22.08,-57.22,-992.35,52.50,-787.50,-280.0,1,94.161,
01/01/2000,01:05:35.87,22.08,-57.10,-992.10,148.75,-752.50,-315.0,1,94.167,
01/01/2000,01:05:35.88,22.08,-57.10,-992.23,148.75,-761.25,-306.25,1,94.172,
01/01/2000,01:05:35.89,21.96,-57.34,-992.71,288.75,-708.75,-315.0,1,94.177,
01/01/2000,01:05:35.90,21.96,-57.34,-992.84,192.50,-726.25,-420.0,1,94.183,
01/01/2000,01:05:35.91,21.96,-57.22,-992.71,26.25,-708.75,-385.0,1,94.188,
01/01/2000,01:05:35.92,21.96,-57.10,-992.35,166.25,-787.50,-332.50,1,94.194,
01/01/2000,01:05:35.93,21.84,-57.10,-992.23,122.50,-700.0,-288.75,1,94.199,
01/01/2000,01:05:35.94,21.96,-57.22,-992.35,175.0,-700.0,-306.25,1,94.204,
01/01/2000,01:05:35.96,21.84,-57.34,-992.59,183.75,-656.25,-350.0,1,94.210,
01/01/2000,01:05:35.97,21.72,-57.34,-992.59,201.25,-603.75,-350.0,1,94.215,
01/01/2000,01:05:35.98,21.72,-57.22,-992.47,271.25,-647.50,-297.50,1,94.220,
01/01/2000,01:05:35.99,21.84,-57.22,-992.35,148.75,-770.0,-280.0,1,94.225,
01/01/2000,01:05:36.00,22.08,-57.10,-992.23,43.75,-656.25,-323.75,1,94.231,
01/01/2000,01:05:36.01,21.96,-57.34,-992.35,192.50,-612.50,-262.50,1,94.236,
01/01/2000,01:05:36.02,21.96,-57.34,-992.47,140.0,-612.50,-411.25,1,94.241,
01/01/2000,01:05:36.03,21.96,-57.34,-992.35,166.25,-822.50,-411.25,1,94.247,
01/01/2000,01:05:36.04,21.84,-57.10,-992.35,96.25,-595.0,-306.25,1,94.252,
01/01/2000,01:05:36.05,21.96,-57.10,-992.35,105.0,-630.0,-262.50,1,94.257,
01/01/2000,01:05:36.06,21.84,-57.34,-992.47,201.25,-691.25,-385.0,1,94.262,
01/01/2000,01:05:36.07,21.72,-57.46,-992.47,70.0,-726.25,-271.25,1,94.268,
01/01/2000,01:05:36.08,21.84,-57.71,-992.35,192.50,-691.25,-376.25,1,94.273,
01/01/2000,01:05:36.09,21.96,-57.46,-992.35,148.75,-603.75,-306.25,1,94.278,
01/01/2000,01:05:36.10,21.96,-57.46,-992.35,87.50,-735.0,-192.50,1,94.283,
01/01/2000,01:05:36.11,21.96,-57.46,-992.10,148.75,-682.50,-288.75,1,94.288,
01/01/2000,01:05:36.12,21.72,-57.58,-992.23,183.75,-682.50,-297.50,1,94.293,
01/01/2000,01:05:36.13,21.84,-57.71,-992.35,166.25,-691.25,-385.0,1,94.299,
01/01/2000,01:05:36.14,21.96,-57.71,-992.47,148.75,-673.75,-218.75,1,94.219,
01/01/2000,01:05:36.15,22.08,-57.34,-992.47,113.75,-682.50,-306.25,1,94.224,
01/01/2000,01:05:36.17,21.84,-57.10,-992.23,140.0,-735.0,-306.25,1,94.229,
01/01/2000,01:05:36.18,21.72,-57.22,-992.23,113.75,-761.25,-358.75,1,94.234,
01/01/2000,01:05:36.19,21.72,-57.34,-992.35,227.50,-700.0,-315.0,1,94.239,
01/01/2000,01:05:36.20,21.96,-57.34,-992.59,201.25,-805.0,-385.0,1,94.245,
01/01/2000,01:05:36.21,21.96,-57.34,-992.59,105.0,-717.50,-271.25,1,94.250,
01/01/2000,01:05:36.22,21.96,-57.34,-992.35,105.0,-621.25,-367.50,1,94.255,
01/01/2000,01:05:36.23,21.96,-57.22,-992.35,236.25,-735.0,-288.75,1,94.260,
01/01/2000,01:05:36.24,21.96,-57.34,-992.47,148.75,-665.0,-245.0,1,94.265,
01/01/2000,01:05:36.25,22.08,-57.46,-992.59,192.50,-673.75,-385.0,1,94.270,
01/01/2000,01:05:36.26,22.20,-57.34,-992.59,157.50,-717.50,-358.75,1,94.275,
01/01/2000,01:05:36.27,22.20,-57.34,-992.35,78.75,-796.25,-393.75,1,94.281,
01/01/2000,01:05:36.28,22.08,-57.22,-992.35,105.0,-665.0,-420.0,1,94.286,
01/01/2000,01:05:36.29,21.96,-57.46,-992.47,245.0,-586.25,-253.75,1,94.291,
01/01/2000,01:05:36.30,21.96,-57.46,-992.84,271.25,-708.75,-402.50,1,94.296,
01/01/2000,01:05:36.31,22.08,-57.46,-992.84,236.25,-682.50,-297.50,1,94.217,
01/01/2000,01:05:36.32,22.08,-57.58,-992.47,122.50,-752.50,-288.75,1,94.222,
01/01/2000,01:05:36.33,21.84,-57.46,-992.10,96.25,-778.75,-385.0,1,94.227,
01/01/2000,01:05:36.35,21.84,-57.46,-992.35,157.50,-726.25,-350.0,1,94.232,
01/01/2000,01:05:36.36,21.96,-57.34,-992.59,175.0,-708.75,-280.0,1,94.238,
01/01/2000,01:05:36.37,21.96,-57.34,-992.71,236.25,-708.75,-437.50,1,94.243,
01/01/2000,01:05:36.38,21.96,-57.22,-992.59,113.75,-700.0,-323.75,1,94.248,
01/01/2000,01:05:36.39,21.96,-57.22,-992.35,61.25,-673.75,-306.25,1,94.253,
01/01/2000,01:05:36.40,21.96,-57.22,-992.23,166.25,-665.0,-350.0,1,94.258,
01/01/2000,01:05:36.41,21.96,-57.34,-992.35,236.25,-568.75,-315.0,1,94.263,
01/01/2000,01:05:36.42,21.84,-57.22,-992.35,17.50,-717.50,-341.25,1,94.268,
01/01/2000,01:05:36.43,21.84,-57.22,-992.35,236.25,-682.50,-315.0,1,94.273,
01/01/2000,01:05:36.44,21.84,-57.10,-992.10,87.50,-691.25,-437.50,1,94.278,
01/01/2000,01:05:36.45,21.72,-57.22,-992.10,105.0,-638.75,-402.50,1,94.200,
01/01/2000,01:05:36.46,21.84,-57.46,-992.35,61.25,-682.50,-350.0,1,94.205,
01/01/2000,01:05:36.47,21.84,-57.71,-992.59,280.0,-682.50,-367.50,1,94.211,
01/01/2000,01:05:36.48,21.72,-57.58,-992.59,122.50,-805.0,-236.25,1,94.216,
01/01/2000,01:05:36.49,21.72,-57.46,-992.47,183.75,-673.75,-393.75,1,94.221,
01/01/2000,01:05:36.50,21.84,-57.34,-992.35,201.25,-665.0,-367.50,1,94.226,
01/01/2000,01:05:36.51,21.84,-57.34,-992.47,218.75,-743.75,-297.50,1,94.231,
01/01/2000,01:05:36.53,21.96,-57.34,-992.47,52.50,-638.75,-253.75,1,94.236,
01/01/2000,01:05:36.54,21.96,-57.58,-992.35,210.0,-647.50,-376.25,1,94.241,
01/01/2000,01:05:36.55,21.96,-57.46,-992.23,35.0,-761.25,-332.50,1,94.246,
01/01/2000,01:05:36.56,21.96,-57.34,-992.35,218.75,-717.50,-385.0,1,94.251,
01/01/2000,01:05:36.57,21.96,-57.34,-992.23,105.0,-656.25,-280.0,1,94.256,
01/01/2000,01:05:36.58,21.96,-57.34,-992.23,253.75,-778.75,-350.0,1,94.261,
01/01/2000,01:05:36.59,21.84,-57.46,-992.35,245.0,-743.75,-350.0,1,94.266,
01/01/2000,01:05:36.60,21.84,-57.34,-992.23,210.0,-700.0,-332.50,1,94.271,
01/01/2000,01:05:36.61,21.72,-57.46,-991.98,122.50,-586.25,-280.0,1,94.276,
01/01/2000,01:05:36.62,21.84,-57.46,-992.10,210.0,-682.50,-490.0,1,94.281,
01/01/2000,01:05:36.63,21.96,-57.46,-992.10,227.50,-682.50,-306.25,1,94.286,
01/01/2000,01:05:36.64,22.08,-57.34,-992.23,166.25,-665.0,-385.0,1,94.291,
01/01/2000,01:05:36.65,21.96,-57.22,-992.35,157.50,-673.75,-411.25,1,94.296,
01/01/2000,01:05:36.67,21.96,-57.10,-992.10,166.25,-848.75,-341.25,1,94.219,
01/01/2000,01:05:36.68,22.08,-57.10,-992.10,166.25,-595.0,-236.25,1,94.224,
01/01/2000,01:05:36.69,21.96,-57.10,-991.98,148.75,-805.0,-271.25,1,94.229,
01/01/2000,01:05:36.70,21.96,-57.22,-992.10,140.0,-682.50,-481.25,1,94.234,
01/01/2000,01:05:36.71,21.96,-57.22,-992.35,52.50,-735.0,-385.0,1,94.239,
01/01/2000,01:05:36.72,21.96,-57.34,-992.35,227.50,-682.50,-210.0,1,94.244,
01/01/2000,01:05:36.73,21.96,-57.22,-992.35,52.50,-691.25,-323.75,1,94.249,
01/01/2000,01:05:36.74,21.96,-57.34,-992.35,78.75,-717.50,-341.25,1,94.254,
01/01/2000,01:05:36.75,21.84,-57.46,-992.35,245.0,-630.0,-446.25,1,94.259,
01/01/2000,01:05:36.76,21.72,-57.34,-992.35,183.75,-822.50,-376.25,1,94.264,
01/01/2000,01:05:36.77,21.84,-57.10,-992.23,148.75,-822.50,-376.25,1,94.269,
01/01/2000,01:05:36.78,21.84,-57.10,-992.10,113.75,-866.25,-280.0,1,94.274,
01/01/2000,01:05:36.79,21.96,-56.97,-992.23,26.25,-726.25,-393.75,1,94.278,
01/01/2000,01:05:36.80,21.84,-57.22,-992.10,218.75,-647.50,-332.50,1,94.203,
01/01/2000,01:05:36.81,22.08,-57.34,-992.23,236.25,-770.0,-446.25,1,94.208,
01/01/2000,01:05:36.82,22.20,-57.22,-992.35,96.25,-612.50,-358.75,1,94.213,
01/01/2000,01:05:36.83,22.20,-57.46,-992.23,70.0,-621.25,-236.25,1,94.218,
01/01/2000,01:05:36.84,21.96,-57.46,-992.23,218.75,-752.50,-376.25,1,94.223,
01/01/2000,01:05:36.86,21.96,-57.46,-992.23,148.75,-700.0,-271.25,1,94.228,
01/01/2000,01:05:36.87,21.96,-57.34,-992.35,140.0,-743.75,-367.50,1,94.232,
01/01/2000,01:05:36.88,21.96,-57.71,-992.35,218.75,-647.50,-367.50,1,94.237,
01/01/2000,01:05:36.89,21.96,-57.71,-992.23,96.25,-682.50,-402.50,1,94.242,
01/01/2000,01:05:36.90,21.96,-57.71,-992.10,166.25,-586.25,-402.50,1,94.247,
01/01/2000,01:05:36.91,22.08,-57.71,-992.10,61.25,-638.75,-350.0,1,94.252,
01/01/2000,01:05:36.92,22.08,-57.58,-992.23,148.75,-656.25,-367.50,1,94.257,
01/01/2000,01:05:36.93,21.96,-57.46,-992.23,131.25,-665.0,-420.0,1,94.262,
01/01/2000,01:05:36.94,21.96,-57.46,-992.10,183.75,-813.75,-245.0,1,94.266,
01/01/2000,01:05:36.95,21.96,-57.46,-991.98,113.75,-682.50,-376.25,1,94.192,
01/01/2000,01:05:36.96,21.84,-57.58,-991.86,131.25,-700.0,-358.75,1,94.276,
01/01/2000,01:05:36.97,21.96,-57.58,-991.98,105.0,-735.0,-306.25,1,94.202,
01/01/2000,01:05:36.98,21.84,-57.58,-992.10,245.0,-691.25,-271.25,1,94.207,
01/01/2000,01:05:36.99,21.84,-57.58,-992.23,253.75,-682.50,-498.75,1,94.211,
01/01/2000,01:05:37.00,21.84,-57.58,-992.23,148.75,-735.0,-411.25,1,94.216,
01/01/2000,01:05:37.02,21.72,-57.46,-992.23,43.75,-586.25,-315.0,1,94.221,
01/01/2000,01:05:37.03,21.96,-57.46,-992.35,87.50,-630.0,-350.0,1,94.226,
01/01/2000,01:05:37.04,21.84,-57.58,-992.35,201.25,-761.25,-297.50,1,94.231,
01/01/2000,01:05:37.05,21.72,-57.58,-992.35,113.75,-673.75,-323.75,1,94.236,
01/01/2000,01:05:37.06,21.84,-57.58,-992.47,148.75,-717.50,-376.25,1,94.240,
01/01/2000,01:05:37.07,21.96,-57.71,-992.47,280.0,-603.75,-341.25,1,94.245,
01/01/2000,01:05:37.08,21.96,-57.46,-992.71,148.75,-708.75,-288.75,1,94.250,
01/01/2000,01:05:37.09,22.08,-57.34,-992.59,87.50,-638.75,-271.25,1,94.255,
01/01/2000,01:05:37.10,21.84,-57.46,-992.47,210.0,-708.75,-446.25,1,94.260,
01/01/2000,01:05:37.11,21.84,-57.46,-992.35,227.50,-752.50,-332.50,1,94.264,
01/01/2000,01:05:37.12,21.72,-57.46,-992.35,262.50,-761.25,-358.75,1,94.269,
01/01/2000,01:05:37.13,21.96,-57.34,-992.35,166.25,-603.75,-393.75,1,94.274,
01/01/2000,01:05:37.14,21.96,-57.34,-992.35,105.0,-708.75,-236.25,1,94.279,
01/01/2000,01:05:37.15,21.59,-57.58,-992.35,140.0,-770.0,-358.75,1,94.205,
01/01/2000,01:05:37.16,21.72,-57.58,-992.23,175.0,-656.25,-358.75,1,94.210,
01/01/2000,01:05:37.17,21.72,-57.58,-992.23,157.50,-735.0,-393.75,1,94.215,
01/01/2000,01:05:37.18,21.84,-57.46,-992.47,245.0,-673.75,-192.50,1,94.220,
01/01/2000,01:05:37.19,21.72,-57.34,-992.71,70.0,-743.75,-367.50,1,94.224,
01/01/2000,01:05:37.20,21.59,-57.34,-992.71,183.75,-708.75,-332.50,1,94.229,
01/01/2000,01:05:37.21,21.59,-57.34,-992.71,140.0,-665.0,-227.50,1,94.234,
01/01/2000,01:05:37.23,21.59,-57.34,-992.59,192.50,-673.75,-358.75,1,94.239,
01/01/2000,01:05:37.24,21.59,-57.34,-992.59,140.0,-647.50,-271.25,1,94.243,
01/01/2000,01:05:37.25,21.59,-57.46,-992.59,113.75,-630.0,-306.25,1,94.248,
01/01/2000,01:05:37.26,21.47,-57.46,-992.59,210.0,-735.0,-306.25,1,94.253,
01/01/2000,01:05:37.27,21.47,-57.46,-992.59,148.75,-752.50,-341.25,1,94.258,
01/01/2000,01:05:37.28,21.47,-57.34,-992.71,87.50,-665.0,-227.50,1,94.262,
01/01/2000,01:05:37.29,21.72,-57.34,-992.59,183.75,-647.50,-332.50,1,94.267,
01/01/2000,01:05:37.30,21.59,-57.46,-992.59,210.0,-603.75,-323.75,1,94.272,
01/01/2000,01:05:37.31,21.47,-57.46,-992.59,183.75,-656.25,-262.50,1,94.276,
01/01/2000,01:05:37.32,21.47,-57.34,-992.47,-17.50,-647.50,-367.50,1,94.281,
01/01/2000,01:05:37.33,21.59,-57.46,-992.35,183.75,-787.50,-332.50,1,94.286,
01/01/2000,01:05:37.34,21.72,-57.58,-992.59,218.75,-665.0,-323.75,1,94.290,
01/01/2000,01:05:37.35,21.84,-57.34,-992.47,105.0,-813.75,-367.50,1,94.295,
01/01/2000,01:05:37.37,21.84,-57.34,-992.47,192.50,-621.25,-341.25,1,94.223,
01/01/2000,01:05:37.38,21.84,-57.22,-992.47,61.25,-726.25,-376.25,1,94.228,
01/01/2000,01:05:37.39,21.96,-57.34,-992.59,245.0,-805.0,-323.75,1,94.232,
01/01/2000,01:05:37.40,21.84,-57.58,-992.71,183.75,-796.25,-201.25,1,94.237,
01/01/2000,01:05:37.41,21.84,-57.46,-992.59,262.50,-673.75,-280.0,1,94.242,
01/01/2000,01:05:37.42,21.72,-57.34,-992.59,105.0,-743.75,-306.25,1,94.246,
01/01/2000,01:05:37.43,21.59,-57.58,-992.47,175.0,-700.0,-376.25,1,94.251,
01/01/2000,01:05:37.44,21.59,-57.83,-992.59,131.25,-770.0,-350.0,1,94.256,
01/01/2000,01:05:37.45,21.59,-57.71,-992.71,262.50,-770.0,-455.0,1,94.260,
01/01/2000,01:05:37.46,21.59,-57.83,-992.71,140.0,-682.50,-332.50,1,94.265,
01/01/2000,01:05:37.47,21.59,-57.58,-992.84,87.50,-691.25,-393.75,1,94.270,
01/01/2000,01:05:37.48,21.72,-57.58,-992.84,175.0,-656.25,-297.50,1,94.274,
01/01/2000,01:05:37.49,21.84,-57.46,-992.84,96.25,-630.0,-288.75,1,94.279,
01/01/2000,01:05:37.50,21.96,-57.46,-992.59,210.0,-673.75,-323.75,1,94.283,
01/01/2000,01:05:37.51,21.72,-57.46,-992.35,236.25,-630.0,-446.25,1,94.212,
01/01/2000,01:05:37.52,21.84,-57.58,-992.35,35.0,-621.25,-262.50,1,94.217,
01/01/2000,01:05:37.53,21.84,-57.58,-992.35,236.25,-726.25,-411.25,1,94.222,
01/01/2000,01:05:37.54,21.84,-57.46,-992.47,262.50,-612.50,-393.75,1,94.226,
01/01/2000,01:05:37.55,21.72,-57.58,-992.47,253.75,-577.50,-420.0,1,94.231,
01/01/2000,01:05:37.56,21.72,-57.58,-992.35,96.25,-691.25,-218.75,1,94.235,
01/01/2000,01:05:37.58,21.96,-57.46,-992.23,175.0,-665.0,-227.50,1,94.240,
01/01/2000,01:05:37.59,21.72,-57.34,-992.35,245.0,-761.25,-358.75,1,94.245,
01/01/2000,01:05:37.60,21.84,-57.46,-992.47,157.50,-743.75,-341.25,1,94.249,
01/01/2000,01:05:37.61,21.72,-57.58,-992.47,105.0,-708.75,-420.0,1,94.254,
01/01/2000,01:05:37.62,21.47,-57.46,-992.35,113.75,-717.50,-288.75,1,94.258,
01/01/2000,01:05:37.63,21.72,-57.58,-992.59,262.50,-717.50,-411.25,1,94.263,
01/01/2000,01:05:37.64,21.96,-57.22,-992.71,70.0,-665.0,-332.50,1,94.268,
01/01/2000,01:05:37.65,21.84,-57.22,-992.59,236.25,-638.75,-297.50,1,94.272,
01/01/2000,01:05:37.66,21.72,-57.34,-992.59,218.75,-603.75,-323.75,1,94.277,
01/01/2000,01:05:37.67,21.72,-57.46,-992.59,166.25,-726.25,-280.0,1,94.281,
01/01/2000,01:05:37.68,21.96,-57.46,-992.71,218.75,-682.50,-428.75,1,94.286,
01/01/2000,01:05:37.69,21.96,-57.46,-992.59,183.75,-673.75,-393.75,1,94.290,
01/01/2000,01:05:37.70,21.96,-57.22,-992.35,61.25,-735.0,-341.25,1,94.295,
01/01/2000,01:05:37.71,21.96,-57.34,-992.35,236.25,-682.50,-271.25,1,94.299,
01/01/2000,01:05:37.73,21.96,-57.46,-992.47,122.50,-630.0,-297.50,1,94.229,
01/01/2000,01:05:37.73,21.96,-57.58,-992.59,70.0,-822.50,-315.0,1,94.234,
01/01/2000,01:05:37.75,21.96,-57.58,-992.59,157.50,-656.25,-306.25,1,94.238,
01/01/2000,01:05:37.76,21.96,-57.46,-992.59,96.25,-735.0,-376.25,1,94.243,
01/01/2000,01:05:37.77,21.96,-57.46,-992.35,52.50,-656.25,-323.75,1,94.247,
01/01/2000,01:05:37.78,21.72,-57.46,-992.23,166.25,-778.75,-332.50,1,94.252,
01/01/2000,01:05:37.79,21.96,-57.58,-992.47,0.0,-770.0,-376.25,1,94.256,
01/01/2000,01:05:37.80,21.96,-57.58,-992.59,157.50,-656.25,-323.75,1,94.261,
01/01/2000,01:05:37.81,21.96,-57.58,-992.47,105.0,-665.0,-350.0,1,94.266,
01/01/2000,01:05:37.82,21.72,-57.58,-992.35,245.0,-700.0,-367.50,1,94.270,
01/01/2000,01:05:37.83,21.84,-57.22,-992.35,183.75,-726.25,-332.50,1,94.275,
01/01/2000,01:05:37.84,22.08,-57.34,-992.59,122.50,-682.50,-323.75,1,94.279,
01/01/2000,01:05:37.85,22.08,-57.58,-992.84,227.50,-700.0,-245.0,1,94.283,
01/01/2000,01:05:37.86,21.96,-57.58,-992.71,105.0,-665.0,-402.50,1,94.214,
01/01/2000,01:05:37.88,21.96,-57.34,-992.10,122.50,-665.0,-455.0,1,94.219,
01/01/2000,01:05:37.89,21.96,-57.34,-991.98,131.25,-708.75,-367.50,1,94.223,
01/01/2000,01:05:37.90,21.96,-57.34,-992.10,140.0,-568.75,-227.50,1,94.228,
01/01/2000,01:05:37.91,21.72,-57.58,-992.35,236.25,-726.25,-315.0,1,94.232,
01/01/2000,01:05:37.92,21.59,-57.46,-992.47,210.0,-586.25,-358.75,1,94.237,
01/01/2000,01:05:37.93,21.47,-57.58,-992.23,236.25,-691.25,-218.75,1,94.241,
01/01/2000,01:05:37.94,21.84,-57.34,-992.10,288.75,-752.50,-288.75,1,94.246,
01/01/2000,01:05:37.95,21.96,-57.34,-992.10,192.50,-682.50,-332.50,1,94.250,
01/01/2000,01:05:37.96,21.84,-57.46,-992.23,35.0,-796.25,-253.75,1,94.255,
01/01/2000,01:05:37.97,21.59,-57.58,-992.35,175.0,-700.0,-481.25,1,94.259,
01/01/2000,01:05:37.98,21.59,-57.46,-992.35,131.25,-743.75,-411.25,1,94.264,
01/01/2000,01:05:37.99,21.84,-57.58,-992.23,192.50,-778.75,-280.0,1,94.268,
01/01/2000,01:05:38.00,21.84,-57.46,-992.35,87.50,-726.25,-367.50,1,94.272,
01/01/2000,01:05:38.01,21.96,-57.58,-992.35,122.50,-857.50,-227.50,1,94.277,
01/01/2000,01:05:38.02,21.84,-57.71,-992.35,166.25,-717.50,-306.25,1,94.281,
01/01/2000,01:05:38.03,21.72,-57.71,-992.47,105.0,-656.25,-227.50,1,94.286,
01/01/2000,01:05:38.04,21.84,-57.58,-992.47,131.25,-595.0,-525.0,1,94.290,
01/01/2000,01:05:38.05,21.96,-57.34,-992.47,105.0,-717.50,-253.75,1,94.222,
01/01/2000,01:05:38.06,21.84,-57.10,-992.23,148.75,-708.75,-341.25,1,94.299,
01/01/2000,01:05:38.07,21.72,-57.34,-992.10,157.50,-586.25,-350.0,1,94.231,
01/01/2000,01:05:38.08,21.72,-57.34,-992.10,105.0,-673.75,-315.0,1,94.235,
01/01/2000,01:05:38.09,21.72,-57.58,-992.47,175.0,-665.0,-367.50,1,94.240,
01/01/2000,01:05:38.10,21.84,-57.34,-992.59,96.25,-612.50,-245.0,1,94.244,
01/01/2000,01:05:38.11,21.72,-57.34,-992.47,96.25,-673.75,-376.25,1,94.248,
01/01/2000,01:05:38.12,21.72,-57.34,-992.23,148.75,-691.25,-306.25,1,94.253,
01/01/2000,01:05:38.13,21.59,-57.34,-992.10,183.75,-770.0,-393.75,1,94.257,
01/01/2000,01:05:38.15,21.72,-57.34,-992.10,-8.75,-717.50,-315.0,1,94.262,
01/01/2000,01:05:38.16,21.72,-57.58,-992.23,166.25,-673.75,-411.25,1,94.266,
01/01/2000,01:05:38.17,21.59,-57.71,-992.10,131.25,-673.75,-306.25,1,94.270,
01/01/2000,01:05:38.18,21.47,-57.58,-991.98,175.0,-682.50,-341.25,1,94.275,
01/01/2000,01:05:38.19,21.47,-57.46,-992.10,113.75,-568.75,-411.25,1,94.279,
01/01/2000,01:05:38.20,21.72,-57.34,-992.35,70.0,-717.50,-306.25,1,94.284,
01/01/2000,01:05:38.21,21.72,-57.34,-992.35,140.0,-708.75,-297.50,1,94.216,
01/01/2000,01:05:38.22,21.72,-57.46,-992.35,148.75,-726.25,-367.50,1,94.221,
01/01/2000,01:05:38.23,21.72,-57.34,-992.23,157.50,-665.0,-437.50,1,94.225,
01/01/2000,01:05:38.24,21.84,-57.34,-992.23,87.50,-708.75,-350.0,1,94.229,
01/01/2000,01:05:38.25,21.84,-57.22,-992.47,113.75,-673.75,-288.75,1,94.234,
01/01/2000,01:05:38.26,21.72,-57.34,-992.59,192.50,-647.50,-245.0,1,94.238,
01/01/2000,01:05:38.27,21.72,-57.34,-992.35,210.0,-682.50,-376.25,1,94.242,
01/01/2000,01:05:38.29,21.96,-57.22,-992.47,8.75,-700.0,-306.25,1,94.247,
01/01/2000,01:05:38.30,21.84,-57.34,-992.59,271.25,-665.0,-402.50,1,94.251,
01/01/2000,01:05:38.31,21.96,-57.34,-992.59,157.50,-568.75,-376.25,1,94.255,
01/01/2000,01:05:38.32,21.84,-57.34,-992.59,183.75,-761.25,-218.75,1,94.260,
01/01/2000,01:05:38.33,21.84,-57.34,-992.35,166.25,-673.75,-358.75,1,94.264,
01/01/2000,01:05:38.34,21.84,-57.34,-992.35,148.75,-595.0,-376.25,1,94.268,
01/01/2000,01:05:38.35,21.72,-57.22,-992.35,35.0,-647.50,-315.0,1,94.202,
01/01/2000,01:05:38.36,21.72,-57.34,-992.47,131.25,-700.0,-332.50,1,94.206,
01/01/2000,01:05:38.37,21.72,-57.34,-992.59,183.75,-595.0,-350.0,1,94.211,
01/01/2000,01:05:38.39,21.72,-57.34,-992.59,166.25,-778.75,-323.75,1,94.215,
01/01/2000,01:05:38.40,21.72,-57.22,-992.47,43.75,-682.50,-358.75,1,94.219,
01/01/2000,01:05:38.41,21.72,-57.22,-992.47,122.50,-743.75,-297.50,1,94.224,
01/01/2000,01:05:38.42,21.59,-57.34,-992.47,201.25,-691.25,-236.25,1,94.228,
01/01/2000,01:05:38.43,21.72,-57.34,-992.23,122.50,-656.25,-315.0,1,94.232,
01/01/2000,01:05:38.44,21.72,-57.46,-992.10,175.0,-595.0,-306.25,1,94.237,
01/01/2000,01:05:38.45,21.72,-57.34,-992.10,175.0,-682.50,-306.25,1,94.241,
01/01/2000,01:05:38.46,21.84,-57.34,-992.10,210.0,-665.0,-385.0,1,94.245,
01/01/2000,01:05:38.47,21.96,-57.22,-992.35,105.0,-691.25,-288.75,1,94.249,
01/01/2000,01:05:38.48,21.96,-57.22,-992.47,140.0,-621.25,-402.50,1,94.254,
01/01/2000,01:05:38.49,22.08,-57.22,-992.47,166.25,-665.0,-271.25,1,94.258,
01/01/2000,01:05:38.50,21.96,-57.34,-992.47,148.75,-752.50,-350.0,1,94.262,
01/01/2000,01:05:38.51,21.96,-57.34,-992.35,131.25,-708.75,-315.0,1,94.267,
01/01/2000,01:05:38.52,21.96,-57.46,-992.35,43.75,-717.50,-323.75,1,94.271,
01/01/2000,01:05:38.53,22.08,-57.22,-992.59,201.25,-621.25,-341.25,1,94.275,
01/01/2000,01:05:38.54,21.96,-57.34,-992.59,166.25,-787.50,-367.50,1,94.279,
01/01/2000,01:05:38.55,21.84,-57.46,-992.59,210.0,-665.0,-262.50,1,94.284,
01/01/2000,01:05:38.56,21.84,-57.46,-992.35,157.50,-691.25,-297.50,1,94.218,
01/01/2000,01:05:38.58,22.20,-57.58,-992.47,236.25,-665.0,-376.25,1,94.222,
01/01/2000,01:05:38.58,21.96,-57.34,-992.47,78.75,-717.50,-288.75,1,94.227,
01/01/2000,01:05:38.60,21.96,-57.34,-992.59,113.75,-586.25,-297.50,1,94.231,
01/01/2000,01:05:38.61,21.84,-57.34,-992.35,157.50,-717.50,-437.50,1,94.235,
01/01/2000,01:05:38.62,21.72,-57.34,-992.35,183.75,-656.25,-350.0,1,94.239,
01/01/2000,01:05:38.63,21.84,-57.34,-992.35,166.25,-603.75,-262.50,1,94.244,
01/01/2000,01:05:38.64,21.84,-57.22,-992.47,148.75,-612.50,-367.50,1,94.178,
01/01/2000,01:05:38.65,21.96,-57.22,-992.35,157.50,-778.75,-192.50,1,94.183,
01/01/2000,01:05:38.66,21.84,-57.22,-992.47,140.0,-743.75,-341.25,1,94.187,
01/01/2000,01:05:38.67,21.96,-57.22,-992.59,148.75,-717.50,-341.25,1,94.191,
01/01/2000,01:05:38.69,21.96,-57.34,-992.47,183.75,-726.25,-271.25,1,94.195,
01/01/2000,01:05:38.69,21.96,-57.22,-992.59,201.25,-630.0,-350.0,1,94.200,
01/01/2000,01:05:38.71,21.84,-57.22,-992.47,245.0,-691.25,-271.25,1,94.204,
01/01/2000,01:05:38.72,21.72,-57.10,-992.47,0.0,-621.25,-201.25,1,94.208,
01/01/2000,01:05:38.73,21.84,-57.10,-992.47,140.0,-752.50,-402.50,1,94.212,
01/01/2000,01:05:38.74,22.08,-56.97,-992.71,201.25,-691.25,-271.25,1,94.217,
01/01/2000,01:05:38.75,22.08,-57.22,-992.84,122.50,-673.75,-350.0,1,94.221,
01/01/2000,01:05:38.76,21.96,-57.22,-992.71,157.50,-726.25,-385.0,1,94.225,
01/01/2000,01:05:38.77,21.96,-57.34,-992.59,166.25,-700.0,-297.50,1,94.229,
01/01/2000,01:05:38.78,21.96,-57.22,-992.59,140.0,-735.0,-288.75,1,94.234,
01/01/2000,01:05:38.79,22.08,-57.34,-992.59,236.25,-700.0,-385.0,1,94.238,
01/01/2000,01:05:38.80,22.08,-57.34,-992.84,52.50,-700.0,-385.0,1,94.242,
01/01/2000,01:05:38.81,21.96,-57.46,-992.84,43.75,-621.25,-323.75,1,94.246,
01/01/2000,01:05:38.82,21.96,-57.46,-992.59,113.75,-691.25,-358.75,1,94.250,
01/01/2000,01:05:38.83,21.96,-57.34,-992.71,253.75,-665.0,-367.50,1,94.255,
01/01/2000,01:05:38.84,21.96,-57.22,-992.71,122.50,-735.0,-367.50,1,94.259,
01/01/2000,01:05:38.85,21.96,-57.34,-992.59,131.25,-647.50,-367.50,1,94.263,
01/01/2000,01:05:38.86,21.96,-57.58,-992.47,183.75,-647.50,-332.50,1,94.267,
01/01/2000,01:05:38.87,21.96,-57.58,-992.47,192.50,-656.25,-323.75,1,94.271,
01/01/2000,01:05:38.88,21.96,-57.58,-992.35,227.50,-691.25,-306.25,1,94.275,
01/01/2000,01:05:38.90,21.96,-57.34,-992.10,271.25,-752.50,-236.25,1,94.211,
01/01/2000,01:05:38.91,21.96,-57.34,-992.23,166.25,-787.50,-332.50,1,94.215,
01/01/2000,01:05:38.92,21.96,-57.46,-992.47,166.25,-673.75,-411.25,1,94.220,
01/01/2000,01:05:38.93,22.08,-57.46,-992.47,78.75,-700.0,-358.75,1,94.224,
01/01/2000,01:05:38.94,22.08,-57.58,-992.23,175.0,-630.0,-376.25,1,94.228,
01/01/2000,01:05:38.95,21.72,-57.46,-992.35,245.0,-630.0,-428.75,1,94.232,
01/01/2000,01:05:38.96,21.59,-57.46,-992.35,122.50,-805.0,-183.75,1,94.236,
01/01/2000,01:05:38.97,21.96,-57.22,-992.35,87.50,-717.50,-428.75,1,94.240,
01/01/2000,01:05:38.98,22.08,-57.46,-992.23,157.50,-778.75,-192.50,1,94.245,
01/01/2000,01:05:38.99,21.96,-57.46,-992.23,0.0,-735.0,-253.75,1,94.249,
01/01/2000,01:05:39.00,21.72,-57.71,-992.47,350.0,-743.75,-463.75,1,94.253,
01/01/2000,01:05:39.01,21.72,-57.34,-992.59,17.50,-735.0,-428.75,1,94.189,
01/01/2000,01:05:39.02,21.96,-57.10,-992.47,70.0,-612.50,-271.25,1,94.261,
01/01/2000,01:05:39.03,21.72,-57.46,-992.35,393.75,-761.25,-192.50,1,94.198,
01/01/2000,01:05:39.04,21.84,-57.34,-992.23,-96.25,-682.50,-428.75,1,94.202,
01/01/2000,01:05:39.05,21.72,-57.95,-992.35,437.50,-708.75,-288.75,1,94.206,
01/01/2000,01:05:39.06,21.59,-57.83,-992.59,183.75,-638.75,-358.75,1,94.210,
01/01/2000,01:05:39.07,21.84,-57.34,-992.59,61.25,-717.50,-463.75,1,94.214,
01/01/2000,01:05:39.08,21.96,-57.34,-992.35,148.75,-595.0,-306.25,1,94.218,
01/01/2000,01:05:39.09,22.20,-57.10,-992.10,96.25,-700.0,-201.25,1,94.223,
01/01/2000,01:05:39.10,21.96,-57.34,-992.10,306.25,-630.0,-245.0,1,94.227,
01/01/2000,01:05:39.11,21.96,-57.58,-992.35,105.0,-656.25,-393.75,1,94.231,
01/01/2000,01:05:39.12,22.08,-57.71,-992.35,315.0,-743.75,-393.75,1,94.235,
01/01/2000,01:05:39.14,21.96,-57.46,-992.35,262.50,-700.0,-297.50,1,94.239,
01/01/2000,01:05:39.15,21.84,-57.10,-992.23,78.75,-752.50,-455.0,1,94.243,
01/01/2000,01:05:39.16,21.72,-57.10,-992.10,245.0,-700.0,-271.25,1,94.247,
01/01/2000,01:05:39.17,21.72,-57.34,-992.35,157.50,-630.0,-245.0,1,94.251,
01/01/2000,01:05:39.18,21.72,-57.46,-992.59,87.50,-673.75,-315.0,1,94.255,
01/01/2000,01:05:39.19,21.96,-57.58,-992.59,183.75,-735.0,-288.75,1,94.259,
01/01/2000,01:05:39.20,22.08,-57.34,-992.35,61.25,-778.75,-358.75,1,94.263,
01/01/2000,01:05:39.21,21.96,-57.46,-992.10,288.75,-682.50,-280.0,1,94.268,
01/01/2000,01:05:39.22,21.84,-57.22,-992.10,271.25,-735.0,-385.0,1,94.272,
01/01/2000,01:05:39.23,22.08,-57.22,-992.23,192.50,-700.0,-411.25,1,94.276,
01/01/2000,01:05:39.24,21.96,-57.10,-991.37,166.25,-682.50,-245.0,1,94.213,
01/01/2000,01:05:39.25,21.59,-57.10,-989.79,192.50,-700.0,-297.50,1,94.284,
01/01/2000,01:05:39.26,21.47,-56.97,-988.08,131.25,-665.0,-288.75,1,94.221,
01/01/2000,01:05:39.28,21.23,-56.85,-986.25,113.75,-717.50,-236.25,1,94.225,
01/01/2000,01:05:39.29,21.35,-57.10,-984.42,78.75,-752.50,-367.50,1,94.229,
01/01/2000,01:05:39.30,21.96,-56.85,-982.71,78.75,-673.75,-393.75,1,94.233,
01/01/2000,01:05:39.31,22.45,-56.61,-981.12,227.50,-848.75,-288.75,1,94.238,
01/01/2000,01:05:39.32,22.57,-56.36,-980.39,-140.0,-787.50,-8.75,1,94.242,
01/01/2000,01:05:39.33,21.96,-57.34,-980.39,262.50,-761.25,-201.25,1,94.246,
01/01/2000,01:05:39.34,21.23,-57.10,-981.00,61.25,-665.0,-315.0,1,94.250,
01/01/2000,01:05:39.35,21.23,-56.85,-980.64,253.75,-595.0,-358.75,1,94.254,
01/01/2000,01:05:39.36,20.74,-56.12,-978.81,201.25,-647.50,-280.0,1,94.258,
01/01/2000,01:05:39.37,20.62,-55.88,-976.37,-26.25,-682.50,-105.0,1,94.262,
01/01/2000,01:05:39.38,20.86,-56.24,-974.05,227.50,-682.50,-113.75,1,94.266,
01/01/2000,01:05:39.39,20.86,-57.10,-972.46,201.25,-726.25,-297.50,1,94.270,
01/01/2000,01:05:39.40,20.74,-57.22,-973.19,183.75,-752.50,-358.75,1,94.208,
01/01/2000,01:05:39.42,20.74,-56.85,-975.02,35.0,-656.25,-253.75,1,94.212,
01/01/2000,01:05:39.43,20.62,-56.36,-976.37,288.75,-708.75,-166.25,1,94.216,
01/01/2000,01:05:39.44,20.50,-56.12,-977.83,70.0,-656.25,-236.25,1,94.220,
01/01/2000,01:05:39.45,20.74,-56.24,-978.93,131.25,-673.75,-192.50,1,94.224,
01/01/2000,01:05:39.46,21.23,-56.73,-979.90,175.0,-603.75,-122.50,1,94.228,
01/01/2000,01:05:39.47,21.72,-57.22,-981.12,227.50,-612.50,-341.25,1,94.232,
01/01/2000,01:05:39.48,21.96,-57.58,-981.86,52.50,-735.0,-306.25,1,94.236,
01/01/2000,01:05:39.49,21.96,-57.22,-982.47,245.0,-717.50,-358.75,1,94.240,
01/01/2000,01:05:39.50,21.84,-56.73,-982.10,183.75,-656.25,-17.50,1,94.244,
01/01/2000,01:05:39.51,21.35,-56.24,-981.73,96.25,-665.0,-113.75,1,94.248,
01/01/2000,01:05:39.52,21.11,-56.49,-981.37,17.50,-691.25,-113.75,1,94.252,
01/01/2000,01:05:39.53,20.98,-56.85,-981.73,245.0,-717.50,-96.25,1,94.256,
01/01/2000,01:05:39.54,20.86,-57.22,-982.47,131.25,-700.0,-262.50,1,94.260,
01/01/2000,01:05:39.55,20.98,-57.22,-983.93,157.50,-717.50,-420.0,1,94.264,
01/01/2000,01:05:39.56,21.47,-56.85,-986.74,8.75,-612.50,-358.75,1,94.203,
01/01/2000,01:05:39.57,21.96,-56.85,-988.57,148.75,-691.25,-297.50,1,94.207,
01/01/2000,01:05:39.58,22.69,-56.73,-989.79,148.75,-638.75,-183.75,1,94.211,
01/01/2000,01:05:39.59,22.81,-57.10,-990.15,70.0,-700.0,-210.0,1,94.215,
01/01/2000,01:05:39.60,22.94,-57.10,-989.91,70.0,-630.0,-192.50,1,94.219,
01/01/2000,01:05:39.61,22.20,-57.34,-989.91,236.25,-752.50,-358.75,1,94.223,
01/01/2000,01:05:39.63,21.84,-57.34,-990.52,87.50,-726.25,-323.75,1,94.227,
01/01/2000,01:05:39.64,21.72,-57.10,-991.01,175.0,-638.75,-288.75,1,94.231,
01/01/2000,01:05:39.65,21.47,-57.10,-990.88,157.50,-726.25,-227.50,1,94.235,
01/01/2000,01:05:39.66,21.59,-56.73,-990.64,-8.75,-691.25,-280.0,1,94.239,
01/01/2000,01:05:39.67,21.84,-57.46,-990.88,35.0,-708.75,-280.0,1,94.243,
01/01/2000,01:05:39.68,22.20,-57.58,-991.62,201.25,-700.0,-481.25,1,94.247,
01/01/2000,01:05:39.69,22.08,-57.58,-991.86,78.75,-848.75,-297.50,1,94.251,
01/01/2000,01:05:39.70,22.20,-56.97,-992.10,175.0,-656.25,-341.25,1,94.254,
01/01/2000,01:05:39.71,22.33,-56.85,-992.35,157.50,-656.25,-148.75,1,94.258,
01/01/2000,01:05:39.72,22.20,-56.97,-992.59,0.0,-595.0,-323.75,1,94.262,
01/01/2000,01:05:39.73,21.96,-57.22,-992.23,0.0,-700.0,-271.25,1,94.266,
01/01/2000,01:05:39.74,21.59,-57.22,-991.37,166.25,-691.25,-332.50,1,94.270,
01/01/2000,01:05:39.75,21.59,-57.10,-990.64,70.0,-595.0,-271.25,1,94.274,
01/01/2000,01:05:39.76,21.47,-56.97,-990.52,218.75,-770.0,-367.50,1,94.278,
01/01/2000,01:05:39.77,21.47,-56.97,-991.37,87.50,-656.25,-385.0,1,94.218,
01/01/2000,01:05:39.78,21.47,-56.97,-992.84,166.25,-665.0,-315.0,1,94.222,
01/01/2000,01:05:39.79,21.84,-57.10,-993.57,70.0,-638.75,-367.50,1,94.226,
01/01/2000,01:05:39.81,22.08,-57.34,-994.42,113.75,-621.25,-332.50,1,94.229,
01/01/2000,01:05:39.81,22.45,-57.22,-994.79,61.25,-682.50,-385.0,1,94.233,
01/01/2000,01:05:39.83,22.45,-57.10,-993.93,183.75,-691.25,-341.25,1,94.237,
01/01/2000,01:05:39.84,22.20,-57.22,-991.98,61.25,-665.0,-271.25,1,94.241,
01/01/2000,01:05:39.85,21.72,-56.97,-990.88,96.25,-700.0,-358.75,1,94.245,
01/01/2000,01:05:39.86,20.98,-57.22,-990.52,262.50,-726.25,-166.25,1,94.249,
01/01/2000,01:05:39.87,20.98,-57.10,-990.88,-26.25,-778.75,-481.25,1,94.253,
01/01/2000,01:05:39.88,20.98,-57.10,-991.37,157.50,-665.0,-297.50,1,94.257,
01/01/2000,01:05:39.89,20.86,-56.73,-992.47,157.50,-752.50,-271.25,1,94.261,
01/01/2000,01:05:39.90,21.72,-56.49,-993.20,105.0,-761.25,-350.0,1,94.265,
01/01/2000,01:05:39.92,23.06,-57.22,-994.67,8.75,-770.0,-560.0,1,94.205,
01/01/2000,01:05:39.93,23.18,-57.46,-994.42,61.25,-630.0,-402.50,1,94.209,
01/01/2000,01:05:39.94,22.94,-57.34,-992.96,96.25,-647.50,-385.0,1,94.213,
01/01/2000,01:05:39.95,21.96,-56.97,-990.76,350.0,-770.0,-218.75,1,94.217,
01/01/2000,01:05:39.96,21.35,-56.73,-990.64,-8.75,-743.75,-288.75,1,94.220,
01/01/2000,01:05:39.97,20.98,-57.10,-991.49,192.50,-761.25,-358.75,1,94.224,
01/01/2000,01:05:39.98,20.98,-56.97,-992.71,122.50,-717.50,-358.75,1,94.228,
01/01/2000,01:05:39.99,21.35,-56.85,-993.32,122.50,-778.75,-350.0,1,94.232,
01/01/2000,01:05:40.00,21.72,-56.85,-993.08,183.75,-673.75,-253.75,1,94.236,
01/01/2000,01:05:40.01,22.45,-56.61,-993.08,8.75,-752.50,-341.25,1,94.240,
01/01/2000,01:05:40.02,22.81,-57.34,-992.96,131.25,-595.0,-332.50,1,94.244,
01/01/2000,01:05:40.03,22.94,-57.34,-992.84,-35.0,-726.25,-306.25,1,94.247,
01/01/2000,01:05:40.04,22.81,-57.22,-992.23,218.75,-717.50,-490.0,1,94.251,
01/01/2000,01:05:40.05,22.08,-57.10,-991.37,218.75,-822.50,-227.50,1,94.255,
01/01/2000,01:05:40.06,21.23,-56.61,-990.27,8.75,-665.0,-323.75,1,94.259,
01/01/2000,01:05:40.07,20.74,-56.85,-989.91,113.75,-796.25,-236.25,1,94.263,
01/01/2000,01:05:40.08,20.13,-56.97,-990.40,131.25,-621.25,-376.25,1,94.267,
01/01/2000,01:05:40.09,20.25,-57.10,-991.62,96.25,-673.75,-463.75,1,94.270,
01/01/2000,01:05:40.10,20.74,-57.22,-993.69,192.50,-638.75,-463.75,1,94.274,
01/01/2000,01:05:40.11,21.72,-56.61,-994.79,52.50,-656.25,-428.75,1,94.215,
01/01/2000,01:05:40.12,22.45,-56.61,-995.40,131.25,-673.75,-376.25,1,94.219,
01/01/2000,01:05:40.13,22.94,-56.73,-995.52,236.25,-708.75,-201.25,1,94.223,
01/01/2000,01:05:40.14,22.81,-56.97,-994.42,70.0,-682.50,-166.25,1,94.227,
01/01/2000,01:05:40.15,22.33,-57.22,-992.96,113.75,-621.25,-315.0,1,94.231,
01/01/2000,01:05:40.16,21.47,-57.10,-990.88,323.75,-700.0,-306.25,1,94.235,
01/01/2000,01:05:40.17,20.25,-56.73,-989.30,70.0,-822.50,-376.25,1,94.238,
01/01/2000,01:05:40.18,19.64,-56.61,-989.05,70.0,-673.75,-297.50,1,94.242,
01/01/2000,01:05:40.20,20.13,-56.85,-991.01,157.50,-726.25,-385.0,1,94.246,
01/01/2000,01:05:40.21,20.74,-56.73,-992.47,87.50,-700.0,-463.75,1,94.250,
01/01/2000,01:05:40.22,21.84,-56.73,-993.93,271.25,-673.75,-507.50,1,94.254,
01/01/2000,01:05:40.23,23.18,-56.85,-995.15,70.0,-612.50,-551.25,1,94.257,
01/01/2000,01:05:40.24,24.16,-56.85,-995.40,253.75,-700.0,-332.50,1,94.261,
01/01/2000,01:05:40.25,24.28,-56.85,-994.06,148.75,-717.50,-306.25,1,94.265,
01/01/2000,01:05:40.26,22.94,-56.61,-991.37,87.50,-682.50,-323.75,1,94.269,
01/01/2000,01:05:40.27,21.72,-56.61,-989.91,-8.75,-656.25,-227.50,1,94.273,
01/01/2000,01:05:40.28,20.50,-56.61,-989.42,183.75,-708.75,-280.0,1,94.276,
01/01/2000,01:05:40.29,19.76,-56.61,-990.03,157.50,-691.25,-420.0,1,94.280,
01/01/2000,01:05:40.30,20.50,-56.49,-992.47,227.50,-673.75,-481.25,1,94.284,
01/01/2000,01:05:40.31,21.72,-56.36,-994.30,140.0,-647.50,-542.50,1,94.288,
01/01/2000,01:05:40.32,22.94,-56.49,-996.13,113.75,-700.0,-323.75,1,94.291,
01/01/2000,01:05:40.34,24.89,-56.97,-996.98,210.0,-621.25,-262.50,1,94.233,
01/01/2000,01:05:40.35,24.89,-56.97,-995.40,70.0,-700.0,-341.25,1,94.237,
01/01/2000,01:05:40.36,24.03,-56.73,-992.59,358.75,-743.75,-166.25,1,94.241,
01/01/2000,01:05:40.37,21.96,-56.61,-989.66,8.75,-796.25,-175.0,1,94.245,
01/01/2000,01:05:40.38,20.50,-56.85,-988.93,218.75,-673.75,-341.25,1,94.248,
01/01/2000,01:05:40.39,19.15,-56.73,-988.57,210.0,-682.50,-323.75,1,94.252,
01/01/2000,01:05:40.40,18.67,-56.36,-988.93,70.0,-665.0,-428.75,1,94.256,
01/01/2000,01:05:40.41,19.64,-56.49,-991.13,227.50,-700.0,-463.75,1,94.260,
01/01/2000,01:05:40.42,21.96,-56.73,-994.18,61.25,-682.50,-437.50,1,94.202,
01/01/2000,01:05:40.43,24.28,-57.22,-996.25,210.0,-630.0,-385.0,1,94.206,
01/01/2000,01:05:40.44,24.64,-57.22,-995.64,227.50,-630.0,-253.75,1,94.209,
01/01/2000,01:05:40.45,23.79,-56.97,-994.06,-8.75,-752.50,-17.50,1,94.213,
01/01/2000,01:05:40.46,22.45,-56.85,-991.25,148.75,-665.0,-175.0,1,94.217,
01/01/2000,01:05:40.48,20.13,-56.85,-990.15,218.75,-577.50,-350.0,1,94.221,
01/01/2000,01:05:40.49,19.28,-56.61,-990.27,113.75,-673.75,-367.50,1,94.225,
01/01/2000,01:05:40.50,19.28,-56.85,-991.01,166.25,-595.0,-393.75,1,94.228,
01/01/2000,01:05:40.51,20.98,-56.61,-992.84,140.0,-656.25,-542.50,1,94.232,
01/01/2000,01:05:40.52,22.45,-56.49,-994.30,52.50,-708.75,-385.0,1,94.236,
01/01/2000,01:05:40.53,23.67,-56.85,-996.01,105.0,-726.25,-341.25,1,94.239,
01/01/2000,01:05:40.54,24.77,-56.61,-996.50,131.25,-673.75,-428.75,1,94.243,
01/01/2000,01:05:40.55,25.38,-56.85,-994.06,105.0,-682.50,-17.50,1,94.247,
01/01/2000,01:05:40.56,24.28,-56.85,-991.62,131.25,-656.25,-35.0,1,94.251,
01/01/2000,01:05:40.57,22.45,-56.61,-990.03,52.50,-778.75,-148.75,1,94.254,
01/01/2000,01:05:40.58,20.86,-56.49,-989.42,210.0,-813.75,-525.0,1,94.258,
01/01/2000,01:05:40.59,19.76,-56.36,-990.27,35.0,-612.50,-463.75,1,94.262,
01/01/2000,01:05:40.60,19.28,-56.49,-991.13,236.25,-551.25,-262.50,1,94.265,
01/01/2000,01:05:40.61,19.64,-56.00,-991.74,87.50,-647.50,-463.75,1,94.269,
01/01/2000,01:05:40.62,21.96,-56.61,-994.06,105.0,-875.0,-446.25,1,94.273,
01/01/2000,01:05:40.63,23.91,-57.10,-996.50,87.50,-516.25,-402.50,1,94.277,
01/01/2000,01:05:40.64,25.86,-57.10,-997.47,236.25,-691.25,-463.75,1,94.280,
01/01/2000,01:05:40.65,25.86,-56.61,-995.40,70.0,-647.50,-131.25,1,94.284,
01/01/2000,01:05:40.66,24.64,-56.24,-992.23,148.75,-796.25,-17.50,1,94.227,
01/01/2000,01:05:40.67,22.81,-56.12,-989.91,8.75,-945.0,-166.25,1,94.291,
01/01/2000,01:05:40.69,20.01,-56.73,-989.05,17.50,-726.25,-472.50,1,94.234,
01/01/2000,01:05:40.70,18.79,-56.85,-989.66,78.75,-752.50,-647.50,1,94.238,
01/01/2000,01:05:40.71,18.79,-56.12,-991.37,78.75,-700.0,-910.0,1,94.242,
01/01/2000,01:05:40.72,19.89,-55.88,-993.32,148.75,-682.50,-525.0,1,94.246,
01/01/2000,01:05:40.73,21.72,-56.12,-995.52,227.50,-595.0,-455.0,1,94.249,
01/01/2000,01:05:40.74,23.42,-56.49,-996.50,122.50,-542.50,-402.50,1,94.253,
01/01/2000,01:05:40.75,24.40,-56.85,-994.06,140.0,-717.50,-175.0,1,94.257,
01/01/2000,01:05:40.76,23.67,-56.49,-990.15,-70.0,-822.50,-105.0,1,94.260,
01/01/2000,01:05:40.77,22.08,-56.85,-989.18,183.75,-673.75,-341.25,1,94.264,
01/01/2000,01:05:40.78,20.86,-56.49,-989.91,105.0,-682.50,-455.0,1,94.268,
01/01/2000,01:05:40.79,20.01,-56.36,-991.37,35.0,-612.50,-271.25,1,94.271,
01/01/2000,01:05:40.80,20.01,-56.00,-992.84,70.0,-665.0,-717.50,1,94.275,
01/01/2000,01:05:40.81,21.11,-55.88,-993.93,166.25,-647.50,-455.0,1,94.278,
01/01/2000,01:05:40.82,22.57,-56.24,-994.30,131.25,-612.50,-323.75,1,94.282,
01/01/2000,01:05:40.83,24.03,-56.97,-993.57,341.25,-682.50,-253.75,1,94.226,
01/01/2000,01:05:40.84,23.67,-57.22,-992.35,96.25,-875.0,-218.75,1,94.230,
01/01/2000,01:05:40.85,22.94,-56.85,-990.88,140.0,-752.50,-175.0,1,94.233,
01/01/2000,01:05:40.86,21.23,-56.12,-989.42,61.25,-542.50,-236.25,1,94.237,
01/01/2000,01:05:40.87,19.52,-55.63,-989.05,131.25,-700.0,-245.0,1,94.241,
01/01/2000,01:05:40.88,19.03,-55.75,-989.54,140.0,-630.0,-446.25,1,94.244,
01/01/2000,01:05:40.90,19.89,-56.49,-991.62,113.75,-726.25,-560.0,1,94.248,
01/01/2000,01:05:40.91,20.98,-56.73,-993.20,122.50,-630.0,-428.75,1,94.251,
01/01/2000,01:05:40.92,22.57,-56.73,-995.03,157.50,-630.0,-542.50,1,94.255,
01/01/2000,01:05:40.93,24.52,-56.24,-996.25,236.25,-630.0,-183.75,1,94.199,
01/01/2000,01:05:40.94,24.16,-55.88,-995.03,105.0,-761.25,-26.25,1,94.203,
01/01/2000,01:05:40.95,23.18,-56.12,-992.59,122.50,-726.25,183.75,1,94.207,
01/01/2000,01:05:40.96,21.11,-56.36,-990.40,87.50,-787.50,-210.0,1,94.210,
01/01/2000,01:05:40.97,18.79,-56.36,-988.93,192.50,-726.25,-595.0,1,94.214,
01/01/2000,01:05:40.98,18.18,-56.49,-989.42,52.50,-743.75,-533.75,1,94.217,
01/01/2000,01:05:40.99,18.54,-56.00,-990.64,183.75,-717.50,-726.25,1,94.221,
01/01/2000,01:05:41.00,19.76,-55.51,-993.08,140.0,-700.0,-700.0,1,94.225,
01/01/2000,01:05:41.01,22.94,-55.63,-995.15,87.50,-735.0,-437.50,1,94.228,
01/01/2000,01:05:41.02,25.38,-56.12,-996.50,271.25,-656.25,-192.50,1,94.232,
01/01/2000,01:05:41.03,26.60,-56.61,-996.13,140.0,-665.0,-52.50,1,94.236,
01/01/2000,01:05:41.05,25.99,-56.36,-993.57,87.50,-752.50,-43.75,1,94.239,
01/01/2000,01:05:41.06,24.64,-56.36,-992.10,87.50,-752.50,-122.50,1,94.243,
01/01/2000,01:05:41.07,22.94,-56.24,-991.62,227.50,-647.50,-201.25,1,94.246,
01/01/2000,01:05:41.08,21.35,-56.12,-991.62,78.75,-612.50,-481.25,1,94.250,
01/01/2000,01:05:41.09,20.62,-55.63,-991.74,166.25,-595.0,-411.25,1,94.254,
01/01/2000,01:05:41.10,20.86,-55.63,-992.10,52.50,-700.0,-455.0,1,94.257,
01/01/2000,01:05:41.11,22.81,-56.36,-993.93,17.50,-656.25,-551.25,1,94.261,
01/01/2000,01:05:41.12,24.16,-56.61,-994.42,192.50,-743.75,-367.50,1,94.264,
01/01/2000,01:05:41.13,24.28,-56.49,-993.69,87.50,-656.25,96.25,1,94.268,
01/01/2000,01:05:41.14,23.18,-56.12,-992.47,8.75,-638.75,175.0,1,94.271,
01/01/2000,01:05:41.15,20.74,-56.00,-990.76,78.75,-691.25,-52.50,1,94.275,
01/01/2000,01:05:41.16,18.79,-56.00,-989.79,96.25,-752.50,-218.75,1,94.279,
01/01/2000,01:05:41.17,17.32,-56.00,-989.42,105.0,-542.50,-402.50,1,94.282,
01/01/2000,01:05:41.18,17.32,-56.12,-990.27,122.50,-682.50,-822.50,1,94.227,
01/01/2000,01:05:41.19,19.15,-56.00,-991.49,201.25,-787.50,-770.0,1,94.231,
01/01/2000,01:05:41.20,21.35,-56.00,-993.81,113.75,-656.25,402.50,1,94.234,
01/01/2000,01:05:41.21,24.77,-56.36,-994.54,105.0,-560.0,105.0,1,94.238,
01/01/2000,01:05:41.22,25.50,-56.24,-994.54,87.50,-717.50,-105.0,1,94.241,
01/01/2000,01:05:41.23,25.50,-56.36,-993.69,157.50,-682.50,490.0,1,94.245,
01/01/2000,01:05:41.24,24.89,-56.36,-992.84,78.75,-612.50,280.0,1,94.249,
01/01/2000,01:05:41.26,22.45,-55.75,-991.86,52.50,-647.50,-367.50,1,94.252,
01/01/2000,01:05:41.27,20.74,-55.63,-991.37,201.25,-673.75,-665.0,1,94.256,
01/01/2000,01:05:41.28,20.01,-55.75,-991.49,157.50,-612.50,-796.25,1,94.259,
01/01/2000,01:05:41.29,20.13,-55.88,-992.10,52.50,-691.25,-953.75,1,94.263,
01/01/2000,01:05:41.30,20.74,-56.24,-993.20,8.75,-621.25,-708.75,1,94.266,
01/01/2000,01:05:41.31,21.47,-56.36,-993.93,245.0,-577.50,-245.0,1,94.270,
01/01/2000,01:05:41.32,22.20,-56.00,-993.32,113.75,-595.0,-227.50,1,94.273,
01/01/2000,01:05:41.33,21.96,-55.63,-990.76,157.50,-665.0,-61.25,1,94.277,
01/01/2000,01:05:41.34,21.47,-55.63,-990.15,-52.50,-805.0,-245.0,1,94.280,
01/01/2000,01:05:41.35,21.47,-56.24,-990.76,43.75,-700.0,-481.25,1,94.284,
01/01/2000,01:05:41.36,21.35,-56.36,-991.86,87.50,-717.50,-595.0,1,94.287,
01/01/2000,01:05:41.37,21.59,-55.88,-993.57,78.75,-752.50,-630.0,1,94.291,
01/01/2000,01:05:41.38,22.81,-55.75,-994.91,96.25,-752.50,-525.0,1,94.237,
01/01/2000,01:05:41.40,25.13,-56.12,-996.25,87.50,-560.0,-315.0,1,94.240,
01/01/2000,01:05:41.41,25.62,-56.61,-995.52,306.25,-647.50,17.50,1,94.244,
01/01/2000,01:05:41.42,25.38,-56.36,-993.32,17.50,-595.0,341.25,1,94.247,
01/01/2000,01:05:41.43,24.16,-56.36,-991.01,17.50,-875.0,-166.25,1,94.251,
01/01/2000,01:05:41.44,22.20,-56.24,-990.15,122.50,-883.75,-743.75,1,94.254,
01/01/2000,01:05:41.45,20.01,-56.12,-990.88,157.50,-691.25,-446.25,1,94.258,
01/01/2000,01:05:41.46,18.79,-55.88,-991.86,175.0,-560.0,-245.0,1,94.261,
01/01/2000,01:05:41.47,18.06,-55.88,-993.08,157.50,-603.75,-472.50,1,94.207,
01/01/2000,01:05:41.48,19.28,-55.88,-993.81,140.0,-542.50,-621.25,1,94.211,
01/01/2000,01:05:41.49,21.11,-56.00,-993.69,8.75,-533.75,-411.25,1,94.214,
01/01/2000,01:05:41.50,22.57,-56.00,-992.47,148.75,-726.25,-122.50,1,94.218,
01/01/2000,01:05:41.51,23.91,-56.12,-991.25,61.25,-752.50,-43.75,1,94.221,
01/01/2000,01:05:41.52,24.28,-56.36,-991.62,43.75,-778.75,-175.0,1,94.225,
01/01/2000,01:05:41.53,23.91,-56.61,-992.47,148.75,-673.75,-358.75,1,94.228,
01/01/2000,01:05:41.54,22.94,-55.75,-992.84,148.75,-586.25,-472.50,1,94.232,
01/01/2000,01:05:41.55,21.72,-55.63,-992.10,122.50,-726.25,-253.75,1,94.235,
01/01/2000,01:05:41.56,21.47,-55.39,-992.10,78.75,-822.50,-253.75,1,94.239,
01/01/2000,01:05:41.57,22.33,-55.88,-992.10,227.50,-708.75,-376.25,1,94.242,
01/01/2000,01:05:41.58,23.06,-56.36,-991.49,105.0,-656.25,-376.25,1,94.246,
01/01/2000,01:05:41.59,23.18,-56.24,-990.03,70.0,-673.75,-341.25,1,94.249,
01/01/2000,01:05:41.61,22.08,-56.12,-990.15,166.25,-796.25,-315.0,1,94.253,
01/01/2000,01:05:41.62,20.62,-55.88,-990.64,26.25,-752.50,-227.50,1,94.256,
01/01/2000,01:05:41.63,19.40,-55.88,-991.25,201.25,-665.0,-192.50,1,94.260,
01/01/2000,01:05:41.64,18.54,-55.75,-991.74,131.25,-743.75,-280.0,1,94.263,
01/01/2000,01:05:41.65,18.91,-55.51,-992.47,210.0,-691.25,-253.75,1,94.267,
01/01/2000,01:05:41.66,20.98,-55.88,-993.45,131.25,-752.50,-568.75,1,94.270,
01/01/2000,01:05:41.67,22.94,-56.36,-994.18,201.25,-630.0,-376.25,1,94.274,
01/01/2000,01:05:41.68,24.77,-56.24,-993.93,140.0,-735.0,-210.0,1,94.220,
01/01/2000,01:05:41.69,24.89,-55.88,-992.84,52.50,-682.50,-201.25,1,94.224,
01/01/2000,01:05:41.70,23.67,-55.63,-991.49,148.75,-726.25,-201.25,1,94.227,
01/01/2000,01:05:41.71,21.47,-55.63,-990.15,122.50,-770.0,-306.25,1,94.231,
01/01/2000,01:05:41.72,20.62,-55.88,-990.40,8.75,-717.50,-411.25,1,94.234,
01/01/2000,01:05:41.73,20.13,-56.12,-991.62,113.75,-717.50,-533.75,1,94.238,
01/01/2000,01:05:41.75,21.35,-56.36,-996.25,8.75,-805.0,-875.0,1,94.241,
01/01/2000,01:05:41.76,22.81,-56.24,-1000.03,183.75,-586.25,-420.0,1,94.245,
01/01/2000,01:05:41.77,24.03,-55.88,-1002.47,113.75,-533.75,-87.50,1,94.248,
01/01/2000,01:05:41.78,23.06,-55.39,-1001.62,96.25,-490.0,201.25,1,94.251,
01/01/2000,01:05:41.79,21.72,-55.39,-999.91,26.25,-682.50,236.25,1,94.255,
01/01/2000,01:05:41.80,20.25,-56.36,-999.06,236.25,-910.0,-113.75,1,94.258,
01/01/2000,01:05:41.81,19.28,-56.97,-999.67,148.75,-673.75,-813.75,1,94.262,
01/01/2000,01:05:41.82,19.76,-56.85,-1002.60,96.25,-612.50,-787.50,1,94.265,
01/01/2000,01:05:41.83,21.84,-55.88,-1003.94,105.0,-621.25,-323.75,1,94.269,
