rtcDate,rtcTime,aX,aY,aZ,gX,gY,gZ,dataRdy,output_Hz,
01/01/2000,01:37:36.86,13.18,-60.27,-853.76,166.25,-673.75,-367.50,1,0.0,
01/01/2000,01:37:36.87,13.66,-62.34,-885.11,315.0,-700.0,-341.25,1,100.0,
01/01/2000,01:37:36.88,13.66,-63.68,-904.14,78.75,-708.75,-332.50,1,100.0,
01/01/2000,01:37:36.89,13.91,-64.66,-915.0,192.50,-717.50,-402.50,1,100.0,
01/01/2000,01:37:36.90,14.15,-65.27,-924.64,87.50,-665.0,-385.0,1,100.0,
01/01/2000,01:37:36.91,14.40,-65.88,-932.93,271.25,-717.50,-341.25,1,100.0,
01/01/2000,01:37:36.92,14.64,-66.37,-940.01,140.0,-752.50,-288.75,1,100.0,
01/01/2000,01:37:36.94,14.40,-66.86,-949.16,201.25,-682.50,-350.0,1,100.0,
01/01/2000,01:37:36.95,14.52,-67.22,-954.53,78.75,-603.75,-420.0,1,100.0,
01/01/2000,01:37:36.96,14.76,-67.59,-959.53,166.25,-568.75,-341.25,1,100.0,
01/01/2000,01:37:36.97,15.13,-68.08,-965.26,245.0,-708.75,-262.50,1,100.0,
01/01/2000,01:37:36.98,15.13,-68.44,-968.07,148.75,-717.50,-367.50,1,100.0,
01/01/2000,01:37:36.99,15.01,-68.69,-970.63,218.75,-665.0,-376.25,1,100.0,
01/01/2000,01:37:37.00,14.88,-69.05,-973.07,52.50,-612.50,-297.50,1,100.0,
01/01/2000,01:37:37.01,14.88,-69.30,-976.85,271.25,-612.50,-420.0,1,100.0,
01/01/2000,01:37:37.02,14.88,-69.05,-979.17,148.75,-796.25,-393.75,1,100.0,
01/01/2000,01:37:37.03,15.13,-68.93,-981.12,166.25,-647.50,-350.0,1,100.0,
01/01/2000,01:37:37.04,15.37,-68.93,-982.47,113.75,-621.25,-323.75,1,100.0,
01/01/2000,01:37:37.05,15.01,-69.54,-983.69,192.50,-682.50,-245.0,1,100.0,
01/01/2000,01:37:37.06,14.76,-70.03,-984.54,210.0,-560.0,-411.25,1,100.0,
01/01/2000,01:37:37.07,14.88,-70.15,-985.52,262.50,-840.0,-533.75,1,100.0,
01/01/2000,01:37:37.08,15.37,-69.91,-986.74,-17.50,-656.25,-280.0,1,100.0,
01/01/2000,01:37:37.09,15.49,-69.54,-988.20,201.25,-691.25,-236.25,1,100.0,
01/01/2000,01:37:37.10,15.13,-69.66,-988.44,78.75,-700.0,-288.75,1,100.0,
01/01/2000,01:37:37.11,14.88,-69.78,-988.69,96.25,-726.25,-358.75,1,100.0,
01/01/2000,01:37:37.12,15.01,-70.03,-989.05,96.25,-673.75,-376.25,1,100.0,
01/01/2000,01:37:37.13,15.49,-70.03,-989.79,96.25,-787.50,-341.25,1,100.0,
01/01/2000,01:37:37.14,15.74,-69.91,-990.15,35.0,-665.0,-315.0,1,96.552,
01/01/2000,01:37:37.15,15.37,-70.03,-990.27,271.25,-691.25,-175.0,1,96.667,
01/01/2000,01:37:37.16,15.13,-70.03,-990.76,131.25,-647.50,-271.25,1,96.774,
01/01/2000,01:37:37.17,15.13,-69.91,-991.13,183.75,-778.75,-385.0,1,96.875,
01/01/2000,01:37:37.18,15.37,-69.54,-991.74,166.25,-735.0,-350.0,1,96.970,
01/01/2000,01:37:37.19,15.49,-69.91,-991.62,122.50,-717.50,-288.75,1,97.059,
01/01/2000,01:37:37.21,15.37,-70.27,-991.37,8.75,-700.0,-455.0,1,97.143,
01/01/2000,01:37:37.22,15.37,-70.39,-991.62,122.50,-805.0,-367.50,1,97.222,
01/01/2000,01:37:37.23,15.49,-70.03,-992.10,96.25,-691.25,-385.0,1,97.297,
01/01/2000,01:37:37.24,15.49,-69.91,-992.23,297.50,-673.75,-297.50,1,97.368,
01/01/2000,01:37:37.25,15.49,-69.78,-992.10,96.25,-708.75,-245.0,1,97.436,
01/01/2000,01:37:37.26,15.13,-70.03,-991.86,148.75,-612.50,-341.25,1,97.500,
01/01/2000,01:37:37.27,15.25,-70.15,-991.86,192.50,-805.0,-350.0,1,97.561,
01/01/2000,01:37:37.28,15.49,-70.27,-992.47,262.50,-787.50,-463.75,1,97.619,
01/01/2000,01:37:37.29,15.62,-70.03,-992.59,113.75,-735.0,-315.0,1,97.674,
01/01/2000,01:37:37.30,15.62,-69.78,-992.59,52.50,-761.25,-358.75,1,97.727,
01/01/2000,01:37:37.31,15.25,-69.78,-992.10,105.0,-656.25,-385.0,1,97.778,
01/01/2000,01:37:37.32,15.13,-69.78,-992.23,262.50,-735.0,-358.75,1,97.826,
01/01/2000,01:37:37.33,15.37,-69.91,-992.59,26.25,-665.0,-367.50,1,97.872,
01/01/2000,01:37:37.34,15.74,-70.03,-992.96,157.50,-708.75,-341.25,1,97.917,
01/01/2000,01:37:37.35,15.86,-70.15,-992.59,175.0,-656.25,-332.50,1,96.0,
01/01/2000,01:37:37.36,15.49,-70.03,-991.98,105.0,-691.25,-376.25,1,96.078,
01/01/2000,01:37:37.37,15.37,-69.91,-992.10,271.25,-813.75,-402.50,1,96.154,
01/01/2000,01:37:37.39,15.86,-69.91,-992.71,175.0,-717.50,-315.0,1,96.226,
01/01/2000,01:37:37.40,15.86,-70.03,-992.84,105.0,-612.50,-280.0,1,96.296,
01/01/2000,01:37:37.41,15.62,-70.15,-992.23,157.50,-735.0,-323.75,1,96.364,
01/01/2000,01:37:37.42,15.49,-70.15,-991.62,253.75,-752.50,-402.50,1,96.429,
01/01/2000,01:37:37.43,15.74,-69.91,-991.74,131.25,-708.75,-227.50,1,96.491,
01/01/2000,01:37:37.44,15.86,-69.91,-992.35,183.75,-831.25,-341.25,1,96.552,
01/01/2000,01:37:37.45,15.86,-70.03,-992.59,26.25,-603.75,-350.0,1,96.610,
01/01/2000,01:37:37.46,15.74,-70.15,-992.47,131.25,-787.50,-323.75,1,96.667,
01/01/2000,01:37:37.47,15.62,-70.03,-992.35,87.50,-630.0,-393.75,1,96.721,
01/01/2000,01:37:37.48,15.74,-70.03,-992.10,210.0,-656.25,-306.25,1,96.774,
01/01/2000,01:37:37.49,15.98,-69.78,-992.23,148.75,-796.25,-385.0,1,95.313,
01/01/2000,01:37:37.50,15.86,-69.78,-992.35,52.50,-726.25,-350.0,1,95.385,
01/01/2000,01:37:37.51,15.74,-70.15,-992.35,175.0,-691.25,-481.25,1,95.455,
01/01/2000,01:37:37.52,15.37,-70.15,-992.47,227.50,-726.25,-402.50,1,95.522,
01/01/2000,01:37:37.53,15.62,-70.03,-992.47,280.0,-621.25,-236.25,1,95.588,
01/01/2000,01:37:37.54,15.86,-69.78,-992.35,210.0,-700.0,-350.0,1,95.652,
01/01/2000,01:37:37.55,15.62,-69.78,-992.10,113.75,-743.75,-288.75,1,95.714,
01/01/2000,01:37:37.57,15.37,-70.03,-992.23,140.0,-735.0,-393.75,1,95.775,
01/01/2000,01:37:37.58,15.37,-69.91,-992.35,253.75,-700.0,-358.75,1,95.833,
01/01/2000,01:37:37.59,15.62,-69.78,-992.47,175.0,-708.75,-323.75,1,95.890,
01/01/2000,01:37:37.60,15.25,-69.78,-992.35,183.75,-717.50,-341.25,1,95.946,
01/01/2000,01:37:37.61,15.25,-69.91,-992.23,105.0,-787.50,-332.50,1,96.0,
01/01/2000,01:37:37.62,15.37,-70.03,-992.10,87.50,-691.25,-253.75,1,96.053,
01/01/2000,01:37:37.63,15.37,-70.03,-992.23,166.25,-682.50,-332.50,1,96.104,
01/01/2000,01:37:37.64,15.37,-70.27,-992.10,183.75,-778.75,-367.50,1,96.154,
01/01/2000,01:37:37.65,15.49,-70.15,-992.10,367.50,-656.25,-358.75,1,96.203,
01/01/2000,01:37:37.66,15.37,-69.78,-991.86,183.75,-787.50,-420.0,1,96.250,
01/01/2000,01:37:37.67,15.37,-69.78,-991.74,218.75,-700.0,-367.50,1,96.296,
01/01/2000,01:37:37.68,15.37,-69.78,-991.86,113.75,-813.75,-280.0,1,96.341,
01/01/2000,01:37:37.69,15.62,-70.03,-991.86,96.25,-656.25,-367.50,1,96.386,
01/01/2000,01:37:37.71,15.49,-70.15,-991.86,175.0,-717.50,-393.75,1,95.294,
01/01/2000,01:37:37.72,15.37,-70.03,-991.86,96.25,-682.50,-358.75,1,95.349,
01/01/2000,01:37:37.73,15.49,-69.91,-991.74,253.75,-682.50,-306.25,1,95.402,
01/01/2000,01:37:37.74,15.37,-69.54,-991.86,175.0,-603.75,-288.75,1,95.455,
01/01/2000,01:37:37.75,15.49,-69.66,-991.86,175.0,-656.25,-332.50,1,95.506,
01/01/2000,01:37:37.76,15.37,-69.78,-991.62,96.25,-708.75,-280.0,1,95.556,
01/01/2000,01:37:37.77,15.37,-69.91,-991.62,218.75,-717.50,-402.50,1,95.604,
01/01/2000,01:37:37.78,15.37,-69.91,-991.86,253.75,-787.50,-367.50,1,95.652,
01/01/2000,01:37:37.79,15.37,-69.66,-992.23,227.50,-726.25,-245.0,1,95.699,
01/01/2000,01:37:37.80,15.37,-69.54,-991.86,17.50,-743.75,-245.0,1,95.745,
01/01/2000,01:37:37.81,15.37,-69.66,-991.74,96.25,-743.75,-280.0,1,95.789,
01/01/2000,01:37:37.82,15.25,-69.66,-991.74,166.25,-682.50,-341.25,1,95.833,
01/01/2000,01:37:37.83,15.37,-69.91,-991.98,122.50,-700.0,-297.50,1,95.876,
01/01/2000,01:37:37.84,15.62,-69.66,-992.10,96.25,-735.0,-280.0,1,94.949,
01/01/2000,01:37:37.85,15.62,-69.66,-991.98,166.25,-708.75,-315.0,1,95.0,
01/01/2000,01:37:37.86,15.13,-69.66,-991.74,43.75,-778.75,-288.75,1,95.050,
01/01/2000,01:37:37.87,15.25,-69.78,-991.86,140.0,-743.75,-472.50,1,95.098,
01/01/2000,01:37:37.88,15.74,-69.66,-991.86,183.75,-673.75,-350.0,1,95.146,
01/01/2000,01:37:37.90,15.13,-69.91,-992.35,87.50,-691.25,-218.75,1,95.192,
01/01/2000,01:37:37.91,14.88,-69.78,-992.23,166.25,-717.50,-568.75,1,95.238,
01/01/2000,01:37:37.92,15.37,-69.30,-992.10,105.0,-647.50,-525.0,1,95.283,
01/01/2000,01:37:37.93,15.86,-69.30,-991.74,262.50,-700.0,-96.25,1,95.327,
01/01/2000,01:37:37.94,15.25,-69.91,-991.74,78.75,-682.50,-105.0,1,95.370,
01/01/2000,01:37:37.95,15.13,-70.27,-991.86,227.50,-708.75,-481.25,1,95.413,
01/01/2000,01:37:37.96,15.37,-70.27,-992.23,210.0,-612.50,-490.0,1,95.455,
01/01/2000,01:37:37.97,15.37,-70.03,-992.47,192.50,-595.0,-315.0,1,95.495,
01/01/2000,01:37:37.98,15.49,-69.42,-992.47,192.50,-673.75,-245.0,1,95.536,
01/01/2000,01:37:37.99,15.62,-69.54,-991.98,157.50,-525.0,-201.25,1,94.737,
01/01/2000,01:37:38.00,15.37,-70.03,-991.62,245.0,-708.75,-393.75,1,94.783,
01/01/2000,01:37:38.01,15.37,-70.27,-992.23,96.25,-805.0,-472.50,1,94.828,
01/01/2000,01:37:38.02,15.62,-70.27,-992.84,17.50,-603.75,-498.75,1,94.872,
01/01/2000,01:37:38.03,15.62,-69.91,-992.84,183.75,-682.50,-271.25,1,94.915,
01/01/2000,01:37:38.04,15.49,-69.54,-992.35,61.25,-682.50,-227.50,1,94.958,
01/01/2000,01:37:38.06,15.13,-69.54,-991.62,271.25,-735.0,-428.75,1,95.0,
01/01/2000,01:37:38.07,15.37,-69.78,-991.86,113.75,-700.0,-315.0,1,95.041,
01/01/2000,01:37:38.08,15.62,-70.27,-992.71,61.25,-717.50,-376.25,1,95.082,
01/01/2000,01:37:38.09,15.49,-70.15,-992.59,227.50,-717.50,-455.0,1,95.122,
01/01/2000,01:37:38.10,15.37,-70.03,-992.10,78.75,-700.0,-437.50,1,95.161,
01/01/2000,01:37:38.11,15.37,-69.78,-991.86,122.50,-743.75,-227.50,1,95.200,
01/01/2000,01:37:38.12,15.37,-69.78,-992.10,157.50,-673.75,-262.50,1,95.238,
01/01/2000,01:37:38.13,15.62,-70.03,-992.84,218.75,-647.50,-315.0,1,95.276,
01/01/2000,01:37:38.14,15.62,-70.27,-992.84,105.0,-761.25,-402.50,1,95.313,
01/01/2000,01:37:38.15,15.49,-70.52,-992.59,201.25,-700.0,-358.75,1,95.349,
01/01/2000,01:37:38.16,15.37,-70.39,-992.10,183.75,-717.50,-350.0,1,95.385,
01/01/2000,01:37:38.17,15.49,-70.15,-991.98,175.0,-787.50,-402.50,1,95.420,
01/01/2000,01:37:38.18,15.74,-70.03,-992.23,140.0,-717.50,-288.75,1,95.455,
01/01/2000,01:37:38.19,15.62,-70.27,-992.59,192.50,-761.25,-236.25,1,95.489,
01/01/2000,01:37:38.21,15.37,-70.52,-992.10,236.25,-656.25,-463.75,1,94.815,
01/01/2000,01:37:38.21,15.49,-70.15,-991.74,87.50,-638.75,-367.50,1,94.853,
01/01/2000,01:37:38.23,15.74,-70.03,-991.62,210.0,-700.0,-323.75,1,94.891,
01/01/2000,01:37:38.23,15.74,-70.03,-991.74,201.25,-778.75,-236.25,1,94.928,
01/01/2000,01:37:38.25,15.62,-70.15,-992.10,192.50,-656.25,-376.25,1,94.964,
01/01/2000,01:37:38.26,15.62,-70.27,-992.23,70.0,-656.25,-271.25,1,95.0,
01/01/2000,01:37:38.27,15.37,-70.27,-991.98,218.75,-691.25,-376.25,1,95.035,
01/01/2000,01:37:38.28,15.49,-70.03,-991.74,113.75,-708.75,-306.25,1,95.070,
01/01/2000,01:37:38.29,15.62,-69.78,-991.62,201.25,-717.50,-236.25,1,95.105,
01/01/2000,01:37:38.30,15.74,-70.03,-991.98,87.50,-682.50,-393.75,1,95.139,
01/01/2000,01:37:38.31,15.62,-70.27,-992.35,61.25,-586.25,-350.0,1,95.172,
01/01/2000,01:37:38.32,15.37,-70.39,-992.35,218.75,-717.50,-481.25,1,95.205,
01/01/2000,01:37:38.33,15.49,-70.27,-991.98,52.50,-665.0,-271.25,1,95.238,
01/01/2000,01:37:38.34,15.49,-69.78,-991.86,122.50,-647.50,-236.25,1,94.631,
01/01/2000,01:37:38.35,15.37,-69.78,-991.74,157.50,-726.25,-262.50,1,94.667,
01/01/2000,01:37:38.36,15.37,-70.03,-991.86,131.25,-743.75,-271.25,1,94.702,
01/01/2000,01:37:38.37,15.62,-70.15,-992.10,183.75,-682.50,-385.0,1,94.737,
01/01/2000,01:37:38.38,15.62,-70.15,-992.10,113.75,-525.0,-402.50,1,94.771,
01/01/2000,01:37:38.39,15.62,-69.91,-991.86,131.25,-682.50,-323.75,1,94.805,
01/01/2000,01:37:38.41,15.49,-69.54,-991.62,227.50,-700.0,-358.75,1,94.839,
01/01/2000,01:37:38.42,15.37,-69.91,-991.86,157.50,-752.50,-253.75,1,94.268,
01/01/2000,01:37:38.43,15.62,-70.03,-992.23,148.75,-673.75,-376.25,1,94.304,
01/01/2000,01:37:38.44,15.86,-70.03,-992.35,113.75,-770.0,-385.0,1,94.340,
01/01/2000,01:37:38.45,15.74,-69.78,-991.74,192.50,-682.50,-297.50,1,94.375,
01/01/2000,01:37:38.46,15.37,-69.54,-991.49,262.50,-656.25,-420.0,1,94.410,
01/01/2000,01:37:38.47,15.37,-69.66,-991.62,271.25,-621.25,-297.50,1,94.444,
01/01/2000,01:37:38.48,15.62,-69.66,-992.10,175.0,-682.50,-271.25,1,94.479,
01/01/2000,01:37:38.49,15.86,-69.78,-992.35,236.25,-743.75,-376.25,1,94.512,
01/01/2000,01:37:38.50,15.62,-70.03,-991.86,192.50,-595.0,-341.25,1,94.545,
01/01/2000,01:37:38.51,15.37,-70.03,-991.37,113.75,-936.25,-472.50,1,94.578,
01/01/2000,01:37:38.52,15.37,-69.78,-991.25,96.25,-638.75,-358.75,1,94.611,
01/01/2000,01:37:38.53,15.62,-69.54,-991.74,87.50,-691.25,-306.25,1,94.643,
01/01/2000,01:37:38.54,15.62,-69.78,-991.86,183.75,-647.50,-262.50,1,94.675,
01/01/2000,01:37:38.56,15.49,-70.15,-991.86,157.50,-796.25,-402.50,1,94.706,
01/01/2000,01:37:38.57,15.37,-70.03,-991.62,166.25,-638.75,-358.75,1,94.737,
01/01/2000,01:37:38.58,15.74,-69.78,-991.37,131.25,-717.50,-367.50,1,94.767,
01/01/2000,01:37:38.59,15.74,-69.78,-991.49,78.75,-743.75,-271.25,1,94.798,
01/01/2000,01:37:38.60,15.74,-69.78,-991.74,210.0,-708.75,-332.50,1,94.828,
01/01/2000,01:37:38.61,15.49,-70.03,-991.98,218.75,-761.25,-376.25,1,94.857,
01/01/2000,01:37:38.62,15.25,-70.15,-991.86,113.75,-656.25,-402.50,1,94.886,
01/01/2000,01:37:38.63,14.88,-70.03,-991.98,210.0,-647.50,-455.0,1,94.915,
01/01/2000,01:37:38.64,15.62,-69.54,-991.86,210.0,-796.25,-525.0,1,94.944,
01/01/2000,01:37:38.65,16.47,-69.54,-991.37,87.50,-822.50,-367.50,1,94.972,
01/01/2000,01:37:38.66,16.23,-70.03,-991.13,113.75,-743.75,-8.75,1,95.0,
01/01/2000,01:37:38.67,15.13,-70.88,-991.86,52.50,-761.25,-227.50,1,95.028,
01/01/2000,01:37:38.68,14.64,-70.76,-992.35,297.50,-656.25,-787.50,1,95.055,
01/01/2000,01:37:38.69,15.74,-69.42,-992.35,105.0,-717.50,-638.75,1,94.565,
01/01/2000,01:37:38.70,15.62,-69.30,-991.98,122.50,-638.75,446.25,1,94.595,
01/01/2000,01:37:38.71,15.37,-69.66,-991.37,113.75,-656.25,472.50,1,94.624,
01/01/2000,01:37:38.72,15.13,-70.27,-991.13,183.75,-682.50,-708.75,1,94.652,
01/01/2000,01:37:38.73,15.37,-70.64,-992.23,262.50,-595.0,-866.25,1,94.681,
01/01/2000,01:37:38.74,15.49,-70.52,-992.84,105.0,-673.75,-385.0,1,94.709,
01/01/2000,01:37:38.75,15.62,-70.03,-992.59,78.75,-735.0,-262.50,1,94.737,
01/01/2000,01:37:38.77,15.62,-69.54,-991.37,218.75,-656.25,-148.75,1,94.764,
01/01/2000,01:37:38.78,15.25,-69.78,-991.13,157.50,-656.25,-245.0,1,94.792,
01/01/2000,01:37:38.79,15.37,-70.52,-992.10,70.0,-621.25,-385.0,1,94.819,
01/01/2000,01:37:38.80,15.74,-70.64,-992.84,175.0,-612.50,-411.25,1,94.845,
01/01/2000,01:37:38.81,15.86,-70.39,-992.84,148.75,-621.25,-393.75,1,94.872,
01/01/2000,01:37:38.82,15.62,-70.03,-991.98,140.0,-647.50,-437.50,1,94.898,
01/01/2000,01:37:38.83,15.49,-69.66,-991.25,122.50,-691.25,-218.75,1,94.924,
01/01/2000,01:37:38.84,15.49,-69.78,-991.62,183.75,-647.50,-341.25,1,94.472,
01/01/2000,01:37:38.85,15.49,-70.27,-992.59,-61.25,-691.25,-446.25,1,94.500,
01/01/2000,01:37:38.86,15.49,-70.39,-992.59,122.50,-560.0,-306.25,1,94.527,
01/01/2000,01:37:38.87,15.49,-70.15,-992.10,210.0,-691.25,-498.75,1,94.554,
01/01/2000,01:37:38.88,15.49,-69.78,-991.49,105.0,-682.50,-376.25,1,94.581,
01/01/2000,01:37:38.89,15.49,-69.78,-991.74,105.0,-743.75,-218.75,1,94.608,
01/01/2000,01:37:38.91,15.62,-70.15,-992.35,140.0,-700.0,-297.50,1,94.634,
01/01/2000,01:37:38.92,15.25,-70.52,-992.23,113.75,-735.0,-393.75,1,94.660,
01/01/2000,01:37:38.93,15.13,-70.27,-991.62,148.75,-560.0,-402.50,1,94.686,
01/01/2000,01:37:38.94,15.13,-69.78,-991.25,262.50,-656.25,-280.0,1,94.712,
01/01/2000,01:37:38.95,15.49,-69.78,-991.62,157.50,-700.0,-288.75,1,94.286,
01/01/2000,01:37:38.96,15.49,-69.91,-991.74,280.0,-717.50,-288.75,1,94.762,
01/01/2000,01:37:38.97,15.37,-70.15,-991.98,157.50,-638.75,-350.0,1,94.340,
01/01/2000,01:37:38.98,15.37,-70.15,-991.98,131.25,-691.25,-385.0,1,94.366,
01/01/2000,01:37:38.99,15.25,-69.78,-991.98,245.0,-752.50,-420.0,1,94.393,
01/01/2000,01:37:39.00,15.49,-69.78,-991.86,166.25,-647.50,-315.0,1,94.419,
01/01/2000,01:37:39.01,15.62,-69.78,-991.86,192.50,-665.0,-280.0,1,94.444,
01/01/2000,01:37:39.02,15.62,-70.03,-991.98,210.0,-735.0,-341.25,1,94.470,
01/01/2000,01:37:39.03,15.37,-70.27,-992.10,192.50,-673.75,-428.75,1,94.495,
01/01/2000,01:37:39.04,15.37,-70.03,-992.23,113.75,-682.50,-402.50,1,94.521,
01/01/2000,01:37:39.06,15.62,-69.78,-992.23,262.50,-787.50,-332.50,1,94.545,
01/01/2000,01:37:39.07,15.86,-69.91,-992.10,227.50,-717.50,-315.0,1,94.570,
01/01/2000,01:37:39.08,15.62,-70.03,-991.98,157.50,-848.75,-271.25,1,94.595,
01/01/2000,01:37:39.09,15.37,-70.27,-991.86,271.25,-700.0,-437.50,1,94.619,
01/01/2000,01:37:39.10,15.37,-70.03,-991.98,192.50,-656.25,-463.75,1,94.643,
01/01/2000,01:37:39.11,15.49,-69.78,-992.23,122.50,-761.25,-297.50,1,94.667,
01/01/2000,01:37:39.12,15.49,-69.66,-992.23,78.75,-638.75,-393.75,1,94.690,
01/01/2000,01:37:39.13,15.37,-69.66,-992.10,105.0,-551.25,-236.25,1,94.714,
01/01/2000,01:37:39.14,15.37,-69.91,-991.98,262.50,-726.25,-420.0,1,94.737,
01/01/2000,01:37:39.15,15.25,-70.27,-992.10,70.0,-708.75,-315.0,1,94.760,
01/01/2000,01:37:39.16,15.49,-70.27,-992.23,122.50,-735.0,-358.75,1,94.783,
01/01/2000,01:37:39.17,15.13,-70.15,-992.35,166.25,-595.0,-350.0,1,94.805,
01/01/2000,01:37:39.18,15.86,-69.78,-992.10,420.0,-595.0,-542.50,1,94.828,
01/01/2000,01:37:39.19,15.49,-70.27,-991.98,516.25,-682.50,-201.25,1,94.850,
01/01/2000,01:37:39.20,15.49,-70.39,-991.98,0.0,-805.0,-297.50,1,94.872,
01/01/2000,01:37:39.21,15.25,-70.27,-992.23,-8.75,-778.75,-665.0,1,94.894,
01/01/2000,01:37:39.22,15.13,-70.39,-992.35,87.50,-673.75,-262.50,1,94.915,
01/01/2000,01:37:39.23,15.37,-69.78,-992.23,122.50,-743.75,-367.50,1,94.937,
01/01/2000,01:37:39.24,15.25,-70.03,-991.98,271.25,-630.0,-175.0,1,94.958,
01/01/2000,01:37:39.25,15.49,-69.91,-991.74,183.75,-682.50,-245.0,1,94.583,
01/01/2000,01:37:39.27,15.25,-70.27,-991.98,96.25,-787.50,-498.75,1,94.606,
01/01/2000,01:37:39.27,15.25,-70.52,-992.10,148.75,-691.25,-358.75,1,94.628,
01/01/2000,01:37:39.29,15.49,-70.03,-992.23,96.25,-717.50,-490.0,1,94.650,
01/01/2000,01:37:39.29,15.62,-70.03,-992.10,192.50,-673.75,-253.75,1,94.672,
01/01/2000,01:37:39.31,15.62,-69.91,-991.98,78.75,-665.0,-350.0,1,94.694,
01/01/2000,01:37:39.32,15.49,-70.27,-992.23,341.25,-665.0,-367.50,1,94.715,
01/01/2000,01:37:39.33,15.37,-70.39,-992.35,227.50,-708.75,-323.75,1,94.737,
01/01/2000,01:37:39.34,15.49,-70.03,-992.59,-26.25,-796.25,-332.50,1,94.758,
01/01/2000,01:37:39.35,15.37,-70.03,-992.35,201.25,-770.0,-262.50,1,94.779,
01/01/2000,01:37:39.36,15.37,-69.78,-992.23,70.0,-621.25,-341.25,1,94.800,
01/01/2000,01:37:39.37,15.37,-70.03,-992.23,166.25,-700.0,-350.0,1,94.821,
01/01/2000,01:37:39.38,15.62,-70.15,-992.23,183.75,-673.75,-376.25,1,94.841,
01/01/2000,01:37:39.39,15.49,-70.27,-992.35,280.0,-665.0,-402.50,1,94.862,
01/01/2000,01:37:39.40,15.37,-70.03,-992.35,183.75,-787.50,-341.25,1,94.510,
01/01/2000,01:37:39.41,15.62,-69.78,-992.23,201.25,-638.75,-271.25,1,94.531,
01/01/2000,01:37:39.43,15.62,-69.91,-992.47,148.75,-752.50,-385.0,1,94.553,
01/01/2000,01:37:39.44,15.62,-70.03,-992.59,157.50,-551.25,-315.0,1,94.574,
01/01/2000,01:37:39.45,15.49,-70.03,-992.59,157.50,-708.75,-455.0,1,94.595,
01/01/2000,01:37:39.46,15.37,-70.15,-992.35,122.50,-778.75,-428.75,1,94.615,
01/01/2000,01:37:39.47,15.49,-69.91,-992.10,105.0,-656.25,-236.25,1,94.636,
01/01/2000,01:37:39.48,15.49,-69.91,-992.35,236.25,-595.0,-367.50,1,94.656,
01/01/2000,01:37:39.49,15.62,-70.03,-992.59,245.0,-717.50,-245.0,1,94.677,
01/01/2000,01:37:39.50,15.62,-70.03,-992.71,175.0,-787.50,-393.75,1,94.697,
01/01/2000,01:37:39.51,15.62,-70.15,-992.35,183.75,-708.75,-148.75,1,94.717,
01/01/2000,01:37:39.52,15.74,-70.03,-992.35,96.25,-673.75,-376.25,1,94.737,
01/01/2000,01:37:39.53,15.74,-70.03,-992.35,122.50,-691.25,-236.25,1,94.757,
01/01/2000,01:37:39.54,15.86,-70.15,-992.35,-17.50,-516.25,-332.50,1,94.776,
01/01/2000,01:37:39.55,15.86,-70.03,-992.47,131.25,-691.25,-315.0,1,94.796,
01/01/2000,01:37:39.56,15.74,-70.03,-992.35,96.25,-682.50,-262.50,1,94.815,
01/01/2000,01:37:39.57,15.62,-70.03,-992.35,201.25,-647.50,-367.50,1,94.485,
01/01/2000,01:37:39.58,15.62,-70.03,-992.23,96.25,-735.0,-323.75,1,94.853,
01/01/2000,01:37:39.59,15.62,-70.27,-992.35,192.50,-726.25,-245.0,1,94.526,
01/01/2000,01:37:39.60,15.37,-70.15,-992.59,61.25,-673.75,-306.25,1,94.545,
01/01/2000,01:37:39.62,15.37,-70.52,-992.84,271.25,-586.25,-323.75,1,94.565,
01/01/2000,01:37:39.63,15.37,-70.27,-992.59,43.75,-700.0,-402.50,1,94.585,
01/01/2000,01:37:39.64,15.37,-70.15,-992.59,157.50,-682.50,-271.25,1,94.604,
01/01/2000,01:37:39.65,15.37,-70.15,-992.59,253.75,-673.75,-262.50,1,94.624,
01/01/2000,01:37:39.66,15.13,-70.39,-992.59,297.50,-665.0,-367.50,1,94.643,
01/01/2000,01:37:39.67,15.25,-70.39,-992.59,131.25,-831.25,-315.0,1,94.662,
01/01/2000,01:37:39.68,15.25,-70.27,-992.84,78.75,-708.75,-297.50,1,94.681,
01/01/2000,01:37:39.69,15.25,-70.15,-992.84,280.0,-673.75,-306.25,1,94.700,
01/01/2000,01:37:39.70,15.25,-70.03,-992.59,175.0,-603.75,-262.50,1,94.718,
01/01/2000,01:37:39.71,15.37,-70.27,-992.47,192.50,-761.25,-332.50,1,94.737,
01/01/2000,01:37:39.72,15.37,-70.27,-992.59,175.0,-840.0,-341.25,1,94.755,
01/01/2000,01:37:39.73,15.25,-70.39,-992.59,61.25,-586.25,-420.0,1,94.774,
01/01/2000,01:37:39.74,15.25,-70.39,-992.59,218.75,-665.0,-315.0,1,94.792,
01/01/2000,01:37:39.75,15.13,-70.03,-992.23,148.75,-665.0,-341.25,1,94.483,
01/01/2000,01:37:39.76,15.37,-70.03,-992.10,227.50,-717.50,-402.50,1,94.502,
01/01/2000,01:37:39.77,15.37,-70.27,-992.35,201.25,-708.75,-358.75,1,94.521,
01/01/2000,01:37:39.78,15.37,-70.52,-992.59,201.25,-726.25,-288.75,1,94.539,
01/01/2000,01:37:39.79,15.37,-70.64,-992.71,183.75,-691.25,-411.25,1,94.558,
01/01/2000,01:37:39.80,15.37,-70.27,-992.71,227.50,-761.25,-245.0,1,94.576,
01/01/2000,01:37:39.82,15.25,-70.27,-992.59,157.50,-752.50,-463.75,1,94.595,
01/01/2000,01:37:39.83,15.25,-70.27,-992.47,245.0,-656.25,-227.50,1,94.613,
01/01/2000,01:37:39.84,15.37,-70.27,-992.59,113.75,-717.50,-315.0,1,94.631,
01/01/2000,01:37:39.85,15.25,-70.64,-992.59,245.0,-726.25,-253.75,1,94.649,
01/01/2000,01:37:39.86,15.37,-70.52,-992.59,183.75,-638.75,-315.0,1,94.667,
01/01/2000,01:37:39.87,15.37,-70.15,-992.47,148.75,-700.0,-376.25,1,94.684,
01/01/2000,01:37:39.88,15.49,-70.03,-992.47,183.75,-770.0,-183.75,1,94.702,
01/01/2000,01:37:39.89,15.49,-70.03,-992.71,96.25,-735.0,-297.50,1,94.408,
01/01/2000,01:37:39.90,15.37,-70.27,-992.96,113.75,-673.75,-323.75,1,94.426,
01/01/2000,01:37:39.91,15.49,-70.27,-993.08,175.0,-586.25,-323.75,1,94.444,
01/01/2000,01:37:39.92,15.37,-70.39,-992.84,262.50,-630.0,-315.0,1,94.463,
01/01/2000,01:37:39.94,15.13,-70.27,-992.71,210.0,-603.75,-271.25,1,94.481,
01/01/2000,01:37:39.95,15.37,-70.27,-992.59,192.50,-735.0,-358.75,1,94.498,
01/01/2000,01:37:39.96,15.49,-70.27,-992.71,175.0,-726.25,-376.25,1,94.516,
01/01/2000,01:37:39.97,15.62,-70.27,-993.08,113.75,-805.0,-367.50,1,94.534,
01/01/2000,01:37:39.98,15.62,-70.76,-992.84,227.50,-726.25,-490.0,1,94.551,
01/01/2000,01:37:39.99,15.62,-70.52,-992.84,96.25,-726.25,-192.50,1,94.569,
01/01/2000,01:37:40.00,15.62,-70.52,-992.47,157.50,-533.75,-420.0,1,94.586,
01/01/2000,01:37:40.01,15.49,-70.27,-992.47,201.25,-656.25,-288.75,1,94.603,
01/01/2000,01:37:40.02,15.25,-70.27,-992.59,70.0,-560.0,-428.75,1,94.620,
01/01/2000,01:37:40.03,15.37,-70.27,-992.71,157.50,-700.0,-350.0,1,94.637,
01/01/2000,01:37:40.04,15.49,-70.39,-992.71,148.75,-691.25,-367.50,1,94.654,
01/01/2000,01:37:40.05,15.62,-70.27,-992.47,175.0,-735.0,-411.25,1,94.671,
01/01/2000,01:37:40.06,15.62,-70.27,-992.35,192.50,-726.25,-420.0,1,94.688,
01/01/2000,01:37:40.07,15.49,-70.15,-992.47,131.25,-595.0,-245.0,1,94.704,
01/01/2000,01:37:40.08,15.37,-70.39,-992.84,175.0,-682.50,-385.0,1,94.720,
01/01/2000,01:37:40.09,15.37,-70.27,-992.84,-35.0,-682.50,-323.75,1,94.737,
01/01/2000,01:37:40.10,15.37,-70.39,-992.84,122.50,-673.75,-350.0,1,94.462,
01/01/2000,01:37:40.11,15.37,-70.27,-992.71,87.50,-586.25,-358.75,1,94.479,
01/01/2000,01:37:40.12,15.62,-70.39,-992.84,105.0,-726.25,-350.0,1,94.495,
01/01/2000,01:37:40.13,15.49,-70.52,-992.71,192.50,-665.0,-297.50,1,94.512,
01/01/2000,01:37:40.14,15.37,-70.52,-992.84,166.25,-603.75,-306.25,1,94.529,
01/01/2000,01:37:40.15,15.37,-70.52,-992.84,245.0,-752.50,-288.75,1,94.545,
01/01/2000,01:37:40.16,15.37,-70.27,-992.59,96.25,-638.75,-358.75,1,94.562,
01/01/2000,01:37:40.18,15.49,-70.27,-992.59,122.50,-700.0,-306.25,1,94.578,
01/01/2000,01:37:40.19,15.62,-70.52,-992.47,157.50,-726.25,-288.75,1,94.595,
01/01/2000,01:37:40.20,15.62,-70.64,-992.47,96.25,-708.75,-385.0,1,94.611,
01/01/2000,01:37:40.21,15.49,-70.76,-992.47,183.75,-708.75,-463.75,1,94.627,
01/01/2000,01:37:40.22,15.49,-70.39,-992.35,183.75,-603.75,-393.75,1,94.643,
01/01/2000,01:37:40.23,15.49,-70.27,-992.35,210.0,-638.75,-332.50,1,94.659,
01/01/2000,01:37:40.24,15.62,-70.27,-992.35,210.0,-778.75,-323.75,1,94.675,
01/01/2000,01:37:40.25,15.62,-70.64,-992.35,122.50,-717.50,-315.0,1,94.690,
01/01/2000,01:37:40.26,15.62,-70.64,-992.47,157.50,-708.75,-402.50,1,94.706,
01/01/2000,01:37:40.27,15.62,-70.64,-992.47,218.75,-743.75,-315.0,1,94.721,
01/01/2000,01:37:40.28,15.62,-70.52,-992.23,201.25,-700.0,-350.0,1,94.737,
01/01/2000,01:37:40.29,15.49,-70.52,-992.23,192.50,-726.25,-227.50,1,94.752,
01/01/2000,01:37:40.30,15.49,-70.64,-992.35,262.50,-603.75,-271.25,1,94.767,
01/01/2000,01:37:40.31,15.49,-70.64,-992.47,253.75,-717.50,-402.50,1,94.509,
01/01/2000,01:37:40.32,15.37,-70.64,-992.59,297.50,-700.0,-367.50,1,94.524,
01/01/2000,01:37:40.33,15.37,-70.52,-992.47,175.0,-621.25,-376.25,1,94.540,
01/01/2000,01:37:40.34,15.37,-70.52,-992.59,122.50,-761.25,-411.25,1,94.556,
01/01/2000,01:37:40.35,15.25,-70.39,-992.47,271.25,-770.0,-271.25,1,94.571,
01/01/2000,01:37:40.36,15.25,-70.27,-992.59,175.0,-647.50,-262.50,1,94.587,
01/01/2000,01:37:40.37,15.37,-70.27,-992.59,166.25,-717.50,-393.75,1,94.602,
01/01/2000,01:37:40.39,15.37,-70.39,-992.47,262.50,-708.75,-385.0,1,94.618,
01/01/2000,01:37:40.40,15.25,-70.27,-992.35,175.0,-735.0,-455.0,1,94.633,
01/01/2000,01:37:40.41,15.37,-70.27,-992.47,183.75,-726.25,-350.0,1,94.648,
01/01/2000,01:37:40.42,15.25,-70.27,-992.47,175.0,-621.25,-297.50,1,94.663,
01/01/2000,01:37:40.43,15.13,-70.52,-992.47,315.0,-673.75,-402.50,1,94.678,
01/01/2000,01:37:40.44,15.37,-70.15,-992.35,218.75,-577.50,-271.25,1,94.429,
01/01/2000,01:37:40.46,15.37,-70.03,-992.23,78.75,-717.50,-236.25,1,94.444,
01/01/2000,01:37:40.47,15.25,-70.03,-992.23,78.75,-726.25,-297.50,1,94.460,
01/01/2000,01:37:40.48,15.37,-70.03,-992.35,157.50,-621.25,-332.50,1,94.475,
01/01/2000,01:37:40.49,15.37,-70.15,-992.59,78.75,-656.25,-367.50,1,94.490,
01/01/2000,01:37:40.50,15.25,-70.03,-992.47,17.50,-691.25,-332.50,1,94.505,
01/01/2000,01:37:40.51,15.37,-70.15,-992.35,253.75,-673.75,-297.50,1,94.521,
01/01/2000,01:37:40.52,15.37,-70.03,-992.35,43.75,-682.50,-341.25,1,94.536,
01/01/2000,01:37:40.53,15.37,-70.03,-992.35,210.0,-717.50,-332.50,1,94.550,
01/01/2000,01:37:40.54,15.49,-70.03,-992.59,140.0,-656.25,-402.50,1,94.565,
01/01/2000,01:37:40.55,15.37,-70.03,-992.59,96.25,-682.50,-332.50,1,94.580,
01/01/2000,01:37:40.56,15.25,-70.03,-992.59,183.75,-752.50,-332.50,1,94.595,
01/01/2000,01:37:40.57,15.25,-70.03,-992.59,192.50,-673.75,-420.0,1,94.609,
01/01/2000,01:37:40.58,15.25,-70.03,-992.59,43.75,-700.0,-315.0,1,94.624,
01/01/2000,01:37:40.59,15.37,-70.27,-992.59,253.75,-708.75,-385.0,1,94.638,
01/01/2000,01:37:40.60,15.49,-70.15,-992.84,105.0,-691.25,-332.50,1,94.652,
01/01/2000,01:37:40.61,15.49,-70.27,-992.71,157.50,-525.0,-350.0,1,94.415,
01/01/2000,01:37:40.62,15.37,-70.15,-992.59,113.75,-752.50,-385.0,1,94.681,
01/01/2000,01:37:40.63,15.49,-70.03,-992.59,210.0,-691.25,-323.75,1,94.444,
01/01/2000,01:37:40.64,15.62,-70.03,-992.59,236.25,-796.25,-306.25,1,94.459,
01/01/2000,01:37:40.65,15.37,-70.15,-992.71,122.50,-691.25,-358.75,1,94.474,
01/01/2000,01:37:40.67,15.49,-70.39,-992.59,288.75,-708.75,-315.0,1,94.488,
01/01/2000,01:37:40.68,15.37,-70.27,-992.71,105.0,-735.0,-350.0,1,94.503,
01/01/2000,01:37:40.69,15.49,-70.27,-992.71,96.25,-568.75,-350.0,1,94.517,
01/01/2000,01:37:40.70,15.49,-70.27,-992.84,306.25,-673.75,-455.0,1,94.531,
01/01/2000,01:37:40.71,15.37,-70.27,-993.08,192.50,-647.50,-376.25,1,94.545,
01/01/2000,01:37:40.72,15.37,-70.39,-993.08,-35.0,-665.0,-315.0,1,94.560,
01/01/2000,01:37:40.73,15.37,-70.27,-992.84,218.75,-735.0,-350.0,1,94.574,
01/01/2000,01:37:40.74,15.37,-70.03,-992.71,87.50,-656.25,-297.50,1,94.588,
01/01/2000,01:37:40.75,15.49,-70.03,-992.71,218.75,-735.0,-315.0,1,94.602,
01/01/2000,01:37:40.76,15.49,-70.03,-992.84,43.75,-717.50,-271.25,1,94.615,
01/01/2000,01:37:40.77,15.49,-70.15,-992.84,236.25,-630.0,-323.75,1,94.629,
01/01/2000,01:37:40.78,15.49,-70.15,-992.84,0.0,-700.0,-358.75,1,94.643,
01/01/2000,01:37:40.79,15.62,-70.27,-992.84,78.75,-691.25,-393.75,1,94.656,
01/01/2000,01:37:40.80,15.62,-70.15,-992.96,253.75,-682.50,-297.50,1,94.670,
01/01/2000,01:37:40.81,15.62,-70.27,-992.96,148.75,-708.75,-306.25,1,94.444,
01/01/2000,01:37:40.82,15.62,-70.27,-992.84,166.25,-691.25,-358.75,1,94.458,
01/01/2000,01:37:40.83,15.62,-70.27,-992.84,105.0,-717.50,-341.25,1,94.472,
01/01/2000,01:37:40.84,15.62,-70.27,-992.71,96.25,-761.25,-358.75,1,94.486,
01/01/2000,01:37:40.85,15.62,-70.27,-992.71,210.0,-621.25,-306.25,1,94.500,
01/01/2000,01:37:40.86,15.74,-70.27,-992.59,105.0,-682.50,-288.75,1,94.514,
01/01/2000,01:37:40.88,15.74,-70.27,-992.59,52.50,-586.25,-306.25,1,94.527,
01/01/2000,01:37:40.89,15.62,-70.39,-992.71,157.50,-708.75,-411.25,1,94.541,
01/01/2000,01:37:40.90,15.62,-70.39,-992.59,280.0,-647.50,-472.50,1,94.554,
01/01/2000,01:37:40.91,15.62,-70.27,-992.59,140.0,-656.25,-297.50,1,94.568,
01/01/2000,01:37:40.92,15.49,-70.27,-992.59,157.50,-700.0,-428.75,1,94.581,
01/01/2000,01:37:40.93,15.37,-70.27,-992.47,105.0,-665.0,-393.75,1,94.595,
01/01/2000,01:37:40.94,15.37,-70.27,-992.47,210.0,-665.0,-385.0,1,94.608,
01/01/2000,01:37:40.96,15.37,-70.27,-992.59,183.75,-665.0,-315.0,1,94.390,
01/01/2000,01:37:40.97,15.25,-70.15,-992.59,87.50,-761.25,-271.25,1,94.404,
01/01/2000,01:37:40.98,15.25,-70.27,-992.47,192.50,-717.50,-332.50,1,94.417,
01/01/2000,01:37:40.99,15.25,-70.27,-992.47,96.25,-717.50,-393.75,1,94.431,
01/01/2000,01:37:41.00,15.49,-70.27,-992.47,262.50,-603.75,-341.25,1,94.444,
01/01/2000,01:37:41.01,15.37,-70.27,-992.35,140.0,-761.25,-297.50,1,94.458,
01/01/2000,01:37:41.02,15.37,-70.27,-992.35,35.0,-743.75,-332.50,1,94.471,
01/01/2000,01:37:41.03,15.25,-70.39,-992.59,122.50,-638.75,-472.50,1,94.484,
01/01/2000,01:37:41.04,15.25,-70.15,-992.59,78.75,-708.75,-323.75,1,94.498,
01/01/2000,01:37:41.05,15.37,-70.03,-992.47,105.0,-708.75,-446.25,1,94.511,
01/01/2000,01:37:41.06,15.25,-70.03,-992.35,148.75,-752.50,-306.25,1,94.524,
01/01/2000,01:37:41.07,15.25,-70.03,-992.35,262.50,-770.0,-280.0,1,94.537,
01/01/2000,01:37:41.08,15.37,-70.39,-992.35,323.75,-665.0,-323.75,1,94.550,
01/01/2000,01:37:41.09,15.37,-70.27,-992.71,131.25,-638.75,-385.0,1,94.563,
01/01/2000,01:37:41.10,15.49,-70.39,-992.71,175.0,-691.25,-428.75,1,94.575,
01/01/2000,01:37:41.11,15.62,-70.03,-992.59,122.50,-682.50,-332.50,1,94.588,
01/01/2000,01:37:41.12,15.62,-70.03,-992.35,148.75,-682.50,-315.0,1,94.601,
01/01/2000,01:37:41.13,15.49,-70.15,-992.35,253.75,-603.75,-253.75,1,94.614,
01/01/2000,01:37:41.14,15.62,-70.27,-992.47,105.0,-700.0,-350.0,1,94.626,
01/01/2000,01:37:41.15,15.86,-70.39,-992.71,78.75,-691.25,-385.0,1,94.639,
01/01/2000,01:37:41.17,15.62,-70.15,-992.47,131.25,-700.0,-306.25,1,94.432,
01/01/2000,01:37:41.18,15.62,-70.15,-992.10,157.50,-708.75,-262.50,1,94.444,
01/01/2000,01:37:41.19,15.62,-70.27,-991.98,332.50,-805.0,-358.75,1,94.457,
01/01/2000,01:37:41.20,15.49,-70.27,-992.10,43.75,-717.50,-323.75,1,94.470,
01/01/2000,01:37:41.21,15.74,-70.27,-992.47,122.50,-805.0,-323.75,1,94.483,
01/01/2000,01:37:41.22,15.74,-70.15,-992.59,201.25,-638.75,-315.0,1,94.495,
01/01/2000,01:37:41.23,15.62,-70.03,-992.35,17.50,-770.0,-393.75,1,94.508,
01/01/2000,01:37:41.24,15.62,-70.03,-992.23,227.50,-700.0,-393.75,1,94.521,
01/01/2000,01:37:41.25,15.62,-69.91,-992.35,35.0,-691.25,-271.25,1,94.533,
01/01/2000,01:37:41.26,15.62,-70.03,-992.59,236.25,-700.0,-315.0,1,94.545,
01/01/2000,01:37:41.27,15.74,-70.03,-992.47,192.50,-822.50,-306.25,1,94.558,
01/01/2000,01:37:41.28,15.74,-70.27,-992.23,201.25,-700.0,-367.50,1,94.570,
01/01/2000,01:37:41.29,15.49,-70.15,-992.10,192.50,-682.50,-411.25,1,94.582,
01/01/2000,01:37:41.30,15.49,-70.03,-992.35,218.75,-638.75,-393.75,1,94.382,
01/01/2000,01:37:41.31,15.62,-70.03,-992.59,236.25,-621.25,-323.75,1,94.395,
01/01/2000,01:37:41.32,15.49,-70.03,-992.59,61.25,-743.75,-402.50,1,94.407,
01/01/2000,01:37:41.33,15.37,-70.03,-992.59,157.50,-603.75,-315.0,1,94.420,
01/01/2000,01:37:41.34,15.37,-70.39,-992.47,288.75,-700.0,-350.0,1,94.432,
01/01/2000,01:37:41.35,15.49,-70.27,-992.59,35.0,-638.75,-350.0,1,94.444,
01/01/2000,01:37:41.36,15.49,-70.27,-992.59,253.75,-595.0,-367.50,1,94.457,
01/01/2000,01:37:41.38,15.62,-70.39,-992.59,253.75,-612.50,-420.0,1,94.469,
01/01/2000,01:37:41.39,15.49,-70.27,-992.35,201.25,-726.25,-262.50,1,94.481,
01/01/2000,01:37:41.40,15.62,-70.39,-992.35,358.75,-778.75,-367.50,1,94.493,
01/01/2000,01:37:41.41,15.62,-70.27,-992.35,122.50,-603.75,-358.75,1,94.505,
01/01/2000,01:37:41.42,15.62,-70.27,-992.35,140.0,-691.25,-350.0,1,94.518,
01/01/2000,01:37:41.43,15.62,-70.27,-992.10,323.75,-726.25,-358.75,1,94.530,
01/01/2000,01:37:41.44,15.49,-70.27,-991.86,122.50,-726.25,-393.75,1,94.541,
01/01/2000,01:37:41.45,15.37,-70.15,-991.86,236.25,-665.0,-490.0,1,94.553,
01/01/2000,01:37:41.47,15.37,-70.15,-992.23,131.25,-700.0,-358.75,1,94.360,
01/01/2000,01:37:41.48,15.49,-70.39,-992.10,105.0,-603.75,-323.75,1,94.372,
01/01/2000,01:37:41.49,15.62,-70.39,-991.98,183.75,-603.75,-437.50,1,94.384,
01/01/2000,01:37:41.50,15.62,-70.39,-991.86,122.50,-743.75,-358.75,1,94.397,
01/01/2000,01:37:41.51,15.74,-70.39,-991.86,26.25,-708.75,-288.75,1,94.409,
01/01/2000,01:37:41.52,15.62,-70.39,-992.10,166.25,-673.75,-350.0,1,94.421,
01/01/2000,01:37:41.53,15.62,-70.39,-992.23,131.25,-726.25,-428.75,1,94.433,
01/01/2000,01:37:41.54,15.37,-70.27,-992.10,166.25,-735.0,-306.25,1,94.444,
01/01/2000,01:37:41.55,15.49,-70.39,-991.86,280.0,-735.0,-341.25,1,94.456,
01/01/2000,01:37:41.56,15.37,-70.39,-991.74,315.0,-743.75,-358.75,1,94.468,
01/01/2000,01:37:41.57,15.37,-70.27,-991.86,105.0,-612.50,-376.25,1,94.480,
01/01/2000,01:37:41.58,15.37,-70.27,-992.10,183.75,-621.25,-288.75,1,94.492,
01/01/2000,01:37:41.59,15.37,-70.39,-992.35,192.50,-717.50,-350.0,1,94.304,
01/01/2000,01:37:41.60,15.37,-70.39,-992.35,210.0,-682.50,-350.0,1,94.316,
01/01/2000,01:37:41.61,15.49,-70.39,-992.23,341.25,-577.50,-315.0,1,94.328,
01/01/2000,01:37:41.62,15.49,-70.27,-992.10,122.50,-805.0,-358.75,1,94.340,
01/01/2000,01:37:41.63,15.37,-70.39,-992.10,245.0,-735.0,-385.0,1,94.351,
01/01/2000,01:37:41.64,15.37,-70.52,-992.10,245.0,-761.25,-402.50,1,94.363,
01/01/2000,01:37:41.66,15.37,-70.27,-992.35,253.75,-735.0,-341.25,1,94.375,
01/01/2000,01:37:41.67,15.37,-70.15,-992.35,87.50,-577.50,-367.50,1,94.387,
01/01/2000,01:37:41.68,15.25,-70.15,-992.35,201.25,-708.75,-341.25,1,94.398,
01/01/2000,01:37:41.69,15.25,-70.15,-992.23,166.25,-743.75,-280.0,1,94.410,
01/01/2000,01:37:41.70,15.49,-70.15,-992.10,236.25,-726.25,-341.25,1,94.421,
01/01/2000,01:37:41.71,15.37,-70.03,-992.23,17.50,-673.75,-376.25,1,94.433,
01/01/2000,01:37:41.72,15.37,-70.03,-992.23,218.75,-787.50,-245.0,1,94.444,
01/01/2000,01:37:41.73,15.37,-70.03,-992.23,148.75,-761.25,-376.25,1,94.456,
01/01/2000,01:37:41.74,15.37,-70.03,-992.10,183.75,-735.0,-323.75,1,94.467,
01/01/2000,01:37:41.75,15.49,-70.03,-992.10,122.50,-796.25,-367.50,1,94.479,
01/01/2000,01:37:41.76,14.88,-69.91,-992.10,-96.25,-603.75,-157.50,1,94.490,
01/01/2000,01:37:41.77,15.62,-70.27,-991.98,542.50,-647.50,-1076.25,1,94.501,
01/01/2000,01:37:41.78,16.10,-69.54,-991.62,332.50,-796.25,-105.0,1,94.512,
01/01/2000,01:37:41.79,15.86,-69.78,-991.49,-148.75,-717.50,-105.0,1,94.523,
01/01/2000,01:37:41.81,14.64,-70.76,-991.74,288.75,-761.25,-183.75,1,94.343,
01/01/2000,01:37:41.82,15.62,-70.15,-991.98,131.25,-743.75,-1190.0,1,94.355,
01/01/2000,01:37:41.83,15.62,-70.15,-991.86,306.25,-743.75,-358.75,1,94.366,
01/01/2000,01:37:41.84,15.62,-69.78,-991.86,78.75,-638.75,271.25,1,94.378,
01/01/2000,01:37:41.85,15.49,-70.15,-991.37,122.50,-778.75,-542.50,1,94.389,
01/01/2000,01:37:41.86,15.37,-70.76,-991.49,236.25,-761.25,-420.0,1,94.400,
01/01/2000,01:37:41.87,15.49,-70.39,-991.86,17.50,-612.50,-428.75,1,94.411,
01/01/2000,01:37:41.88,15.37,-70.27,-992.10,78.75,-717.50,-428.75,1,94.422,
01/01/2000,01:37:41.89,15.49,-69.78,-991.86,-26.25,-700.0,-183.75,1,94.433,
01/01/2000,01:37:41.90,15.37,-69.78,-991.37,78.75,-673.75,-245.0,1,94.444,
01/01/2000,01:37:41.91,15.13,-70.27,-991.49,131.25,-673.75,-253.75,1,94.455,
01/01/2000,01:37:41.92,15.37,-70.39,-991.74,122.50,-743.75,-481.25,1,94.466,
01/01/2000,01:37:41.93,15.25,-70.76,-991.86,262.50,-700.0,-262.50,1,94.477,
01/01/2000,01:37:41.94,15.13,-70.27,-991.86,157.50,-656.25,-376.25,1,94.303,
01/01/2000,01:37:41.95,14.88,-70.39,-991.62,131.25,-691.25,-428.75,1,94.314,
01/01/2000,01:37:41.96,14.76,-70.27,-991.62,192.50,-612.50,-192.50,1,94.325,
01/01/2000,01:37:41.98,15.13,-70.52,-992.23,122.50,-717.50,-402.50,1,94.336,
01/01/2000,01:37:41.99,15.37,-70.52,-992.23,183.75,-752.50,-393.75,1,94.347,
01/01/2000,01:37:42.00,15.37,-70.52,-991.86,78.75,-560.0,-323.75,1,94.358,
01/01/2000,01:37:42.01,15.01,-70.39,-991.25,253.75,-708.75,-455.0,1,94.369,
01/01/2000,01:37:42.02,15.13,-70.27,-991.37,201.25,-638.75,-297.50,1,94.380,
01/01/2000,01:37:42.03,15.49,-70.27,-991.86,105.0,-647.50,-323.75,1,94.391,
01/01/2000,01:37:42.04,15.62,-70.52,-992.23,227.50,-603.75,-288.75,1,94.402,
01/01/2000,01:37:42.05,15.37,-70.76,-991.86,192.50,-700.0,-463.75,1,94.412,
01/01/2000,01:37:42.06,15.37,-70.64,-991.49,175.0,-656.25,-533.75,1,94.423,
01/01/2000,01:37:42.07,15.49,-70.39,-991.62,227.50,-682.50,-385.0,1,94.434,
01/01/2000,01:37:42.08,15.74,-70.15,-992.10,105.0,-691.25,-306.25,1,94.444,
01/01/2000,01:37:42.09,15.62,-70.52,-992.23,201.25,-700.0,-271.25,1,94.455,
01/01/2000,01:37:42.10,15.37,-70.52,-992.10,157.50,-796.25,-385.0,1,94.466,
01/01/2000,01:37:42.11,15.25,-70.76,-991.62,227.50,-770.0,-411.25,1,94.297,
01/01/2000,01:37:42.12,15.37,-70.27,-991.49,113.75,-717.50,-210.0,1,94.487,
01/01/2000,01:37:42.13,15.37,-70.27,-991.62,131.25,-708.75,-376.25,1,94.318,
01/01/2000,01:37:42.14,15.62,-70.27,-991.86,105.0,-726.25,-192.50,1,94.329,
01/01/2000,01:37:42.16,15.49,-70.39,-991.74,166.25,-673.75,-358.75,1,94.340,
01/01/2000,01:37:42.17,15.37,-70.52,-991.62,105.0,-691.25,-437.50,1,94.350,
01/01/2000,01:37:42.18,15.49,-70.27,-991.62,227.50,-787.50,-210.0,1,94.361,
01/01/2000,01:37:42.19,15.74,-70.03,-991.62,218.75,-752.50,-402.50,1,94.371,
01/01/2000,01:37:42.20,15.49,-70.27,-991.74,122.50,-665.0,-218.75,1,94.382,
01/01/2000,01:37:42.21,15.37,-70.39,-991.62,175.0,-656.25,-402.50,1,94.393,
01/01/2000,01:37:42.22,15.37,-70.39,-991.49,236.25,-673.75,-533.75,1,94.403,
01/01/2000,01:37:42.23,15.49,-70.03,-991.62,183.75,-700.0,-315.0,1,94.413,
01/01/2000,01:37:42.24,15.62,-70.03,-991.49,192.50,-691.25,-315.0,1,94.424,
01/01/2000,01:37:42.25,15.49,-70.15,-991.49,210.0,-726.25,-245.0,1,94.434,
01/01/2000,01:37:42.26,15.37,-70.27,-991.62,122.50,-822.50,-341.25,1,94.444,
01/01/2000,01:37:42.27,15.25,-70.52,-991.86,245.0,-665.0,-402.50,1,94.455,
01/01/2000,01:37:42.28,15.25,-70.27,-991.86,157.50,-647.50,-306.25,1,94.465,
01/01/2000,01:37:42.29,15.37,-69.78,-991.74,175.0,-638.75,-350.0,1,94.301,
01/01/2000,01:37:42.30,15.13,-70.03,-991.86,131.25,-682.50,-262.50,1,94.312,
01/01/2000,01:37:42.31,15.13,-70.15,-991.86,140.0,-743.75,-428.75,1,94.322,
01/01/2000,01:37:42.32,15.25,-70.15,-992.10,227.50,-665.0,-428.75,1,94.333,
01/01/2000,01:37:42.33,15.37,-70.03,-992.10,157.50,-586.25,-341.25,1,94.343,
01/01/2000,01:37:42.34,15.37,-69.78,-992.10,0.0,-638.75,-420.0,1,94.353,
01/01/2000,01:37:42.35,15.37,-70.03,-991.86,227.50,-700.0,-376.25,1,94.364,
01/01/2000,01:37:42.37,15.13,-70.03,-991.86,253.75,-665.0,-288.75,1,94.374,
01/01/2000,01:37:42.38,15.13,-70.03,-991.98,183.75,-700.0,-367.50,1,94.384,
01/01/2000,01:37:42.39,15.37,-70.03,-992.23,166.25,-743.75,-297.50,1,94.394,
01/01/2000,01:37:42.40,15.49,-69.78,-992.23,157.50,-735.0,-385.0,1,94.404,
01/01/2000,01:37:42.41,15.37,-69.78,-991.98,105.0,-708.75,-306.25,1,94.414,
01/01/2000,01:37:42.42,15.25,-70.03,-991.86,148.75,-717.50,-463.75,1,94.424,
01/01/2000,01:37:42.43,15.25,-69.91,-992.10,297.50,-691.25,-437.50,1,94.265,
01/01/2000,01:37:42.44,15.37,-69.78,-992.10,122.50,-761.25,-315.0,1,94.275,
01/01/2000,01:37:42.45,15.25,-70.03,-992.10,148.75,-665.0,-446.25,1,94.286,
01/01/2000,01:37:42.46,15.13,-70.03,-991.86,210.0,-700.0,-271.25,1,94.296,
01/01/2000,01:37:42.47,15.13,-70.03,-991.74,96.25,-708.75,-262.50,1,94.306,
01/01/2000,01:37:42.49,15.25,-70.15,-991.86,175.0,-621.25,-350.0,1,94.316,
01/01/2000,01:37:42.50,15.13,-70.15,-991.74,26.25,-673.75,-376.25,1,94.326,
01/01/2000,01:37:42.51,15.13,-70.15,-991.74,96.25,-691.25,-358.75,1,94.336,
01/01/2000,01:37:42.52,15.13,-70.27,-991.74,288.75,-682.50,-315.0,1,94.346,
01/01/2000,01:37:42.53,15.13,-70.15,-991.98,271.25,-656.25,-358.75,1,94.356,
01/01/2000,01:37:42.54,15.13,-70.03,-991.98,166.25,-708.75,-315.0,1,94.366,
01/01/2000,01:37:42.55,15.13,-69.91,-991.86,52.50,-673.75,-350.0,1,94.376,
01/01/2000,01:37:42.56,15.13,-70.15,-991.74,201.25,-656.25,-367.50,1,94.386,
01/01/2000,01:37:42.57,15.13,-70.03,-991.86,157.50,-761.25,-376.25,1,94.396,
01/01/2000,01:37:42.58,15.13,-70.15,-991.86,192.50,-717.50,-341.25,1,94.406,
01/01/2000,01:37:42.59,15.25,-70.15,-991.86,166.25,-700.0,-332.50,1,94.415,
01/01/2000,01:37:42.60,15.25,-70.39,-991.86,157.50,-647.50,-271.25,1,94.425,
01/01/2000,01:37:42.61,15.13,-70.39,-991.74,140.0,-735.0,-341.25,1,94.435,
01/01/2000,01:37:42.62,15.25,-70.27,-991.62,192.50,-708.75,-183.75,1,94.444,
01/01/2000,01:37:42.63,15.37,-70.27,-991.62,157.50,-717.50,-297.50,1,94.454,
01/01/2000,01:37:42.64,15.25,-70.39,-991.98,157.50,-673.75,-411.25,1,94.301,
01/01/2000,01:37:42.65,15.37,-70.39,-991.98,35.0,-682.50,-297.50,1,94.310,
01/01/2000,01:37:42.66,15.37,-70.52,-991.74,166.25,-717.50,-350.0,1,94.320,
01/01/2000,01:37:42.67,15.49,-70.27,-991.62,262.50,-621.25,-376.25,1,94.330,
01/01/2000,01:37:42.68,15.37,-70.15,-991.74,245.0,-700.0,-332.50,1,94.340,
01/01/2000,01:37:42.69,15.37,-70.15,-991.98,131.25,-778.75,-253.75,1,94.349,
01/01/2000,01:37:42.70,15.13,-70.27,-991.98,166.25,-533.75,-350.0,1,94.359,
01/01/2000,01:37:42.72,15.13,-70.39,-991.86,227.50,-743.75,-507.50,1,94.369,
01/01/2000,01:37:42.73,15.25,-70.27,-991.86,262.50,-595.0,-323.75,1,94.378,
01/01/2000,01:37:42.74,15.25,-70.03,-991.86,105.0,-665.0,-288.75,1,94.388,
01/01/2000,01:37:42.75,15.25,-70.03,-991.86,175.0,-621.25,-236.25,1,94.397,
01/01/2000,01:37:42.76,15.13,-70.15,-991.86,253.75,-708.75,-271.25,1,94.407,
01/01/2000,01:37:42.77,15.13,-70.27,-991.86,192.50,-656.25,-446.25,1,94.416,
01/01/2000,01:37:42.78,15.37,-70.03,-991.86,280.0,-708.75,-350.0,1,94.426,
01/01/2000,01:37:42.79,15.37,-70.15,-991.86,183.75,-682.50,-297.50,1,94.435,
01/01/2000,01:37:42.80,15.25,-70.03,-991.86,280.0,-682.50,-350.0,1,94.444,
01/01/2000,01:37:42.81,15.13,-70.27,-991.74,113.75,-726.25,-323.75,1,94.454,
01/01/2000,01:37:42.82,15.13,-70.27,-991.62,140.0,-682.50,-376.25,1,94.463,
01/01/2000,01:37:42.83,15.25,-70.27,-991.74,236.25,-691.25,-306.25,1,94.472,
01/01/2000,01:37:42.84,15.37,-70.27,-991.74,70.0,-638.75,-420.0,1,94.482,
01/01/2000,01:37:42.85,15.13,-70.15,-991.62,148.75,-700.0,-218.75,1,94.333,
01/01/2000,01:37:42.87,15.01,-70.15,-991.62,201.25,-647.50,-358.75,1,94.343,
01/01/2000,01:37:42.88,15.13,-70.27,-991.86,262.50,-752.50,-367.50,1,94.352,
01/01/2000,01:37:42.89,15.13,-70.03,-991.98,280.0,-656.25,-332.50,1,94.362,
01/01/2000,01:37:42.90,15.13,-70.03,-991.98,271.25,-735.0,-271.25,1,94.371,
01/01/2000,01:37:42.91,15.25,-70.03,-991.86,26.25,-708.75,-253.75,1,94.380,
01/01/2000,01:37:42.92,15.13,-70.27,-991.74,280.0,-700.0,-367.50,1,94.389,
01/01/2000,01:37:42.93,15.13,-70.27,-991.86,201.25,-621.25,-350.0,1,94.399,
01/01/2000,01:37:42.94,15.25,-70.15,-991.86,96.25,-743.75,-358.75,1,94.408,
01/01/2000,01:37:42.95,15.25,-70.15,-991.86,61.25,-691.25,-385.0,1,94.417,
01/01/2000,01:37:42.96,15.13,-70.03,-991.74,148.75,-708.75,-332.50,1,94.426,
01/01/2000,01:37:42.97,15.13,-70.15,-991.74,148.75,-560.0,-341.25,1,94.435,
01/01/2000,01:37:42.98,15.13,-69.91,-991.86,0.0,-778.75,-315.0,1,94.444,
01/01/2000,01:37:43.00,15.13,-70.03,-992.10,271.25,-761.25,-280.0,1,94.300,
01/01/2000,01:37:43.01,15.13,-70.15,-991.98,183.75,-630.0,-332.50,1,94.309,
01/01/2000,01:37:43.02,15.13,-70.15,-991.74,192.50,-665.0,-367.50,1,94.318,
01/01/2000,01:37:43.03,15.13,-69.91,-991.62,148.75,-831.25,-341.25,1,94.327,
01/01/2000,01:37:43.04,15.13,-70.03,-991.86,183.75,-691.25,-332.50,1,94.337,
01/01/2000,01:37:43.05,15.25,-70.27,-991.86,183.75,-717.50,-280.0,1,94.346,
01/01/2000,01:37:43.06,15.13,-70.15,-991.74,61.25,-621.25,-315.0,1,94.355,
01/01/2000,01:37:43.07,15.37,-70.15,-991.74,0.0,-778.75,-315.0,1,94.364,
01/01/2000,01:37:43.08,15.37,-70.27,-991.74,175.0,-621.25,-428.75,1,94.373,
01/01/2000,01:37:43.09,15.37,-70.27,-991.86,192.50,-708.75,-271.25,1,94.382,
01/01/2000,01:37:43.10,15.49,-70.27,-991.98,245.0,-621.25,-411.25,1,94.391,
01/01/2000,01:37:43.11,15.37,-70.27,-991.98,96.25,-761.25,-393.75,1,94.400,
01/01/2000,01:37:43.12,15.25,-70.27,-991.86,210.0,-656.25,-306.25,1,94.409,
01/01/2000,01:37:43.13,15.37,-70.27,-991.86,210.0,-726.25,-385.0,1,94.418,
01/01/2000,01:37:43.14,15.37,-70.27,-991.86,52.50,-700.0,-315.0,1,94.277,
01/01/2000,01:37:43.15,15.25,-70.39,-991.86,218.75,-813.75,-358.75,1,94.436,
01/01/2000,01:37:43.16,15.25,-70.52,-991.98,210.0,-630.0,-428.75,1,94.295,
01/01/2000,01:37:43.17,15.25,-70.52,-991.98,306.25,-761.25,-437.50,1,94.304,
01/01/2000,01:37:43.18,15.37,-70.52,-992.10,148.75,-647.50,-367.50,1,94.313,
01/01/2000,01:37:43.19,15.37,-70.39,-991.98,43.75,-700.0,-306.25,1,94.322,
01/01/2000,01:37:43.21,15.13,-70.52,-991.86,175.0,-603.75,-358.75,1,94.331,
01/01/2000,01:37:43.22,15.01,-70.52,-991.98,271.25,-717.50,-341.25,1,94.340,
01/01/2000,01:37:43.23,15.13,-70.27,-991.98,218.75,-630.0,-341.25,1,94.349,
01/01/2000,01:37:43.24,15.37,-70.27,-991.98,157.50,-673.75,-280.0,1,94.357,
01/01/2000,01:37:43.25,15.37,-70.27,-991.98,96.25,-621.25,-350.0,1,94.366,
01/01/2000,01:37:43.26,15.37,-70.64,-991.98,166.25,-726.25,-358.75,1,94.375,
01/01/2000,01:37:43.27,15.37,-70.52,-991.98,166.25,-813.75,-280.0,1,94.384,
01/01/2000,01:37:43.28,15.37,-70.27,-992.10,113.75,-752.50,-271.25,1,94.393,
01/01/2000,01:37:43.29,15.25,-70.15,-991.98,175.0,-743.75,-280.0,1,94.401,
01/01/2000,01:37:43.30,15.13,-70.27,-991.98,227.50,-700.0,-358.75,1,94.410,
01/01/2000,01:37:43.31,15.13,-70.39,-991.86,218.75,-717.50,-341.25,1,94.419,
01/01/2000,01:37:43.32,15.25,-70.39,-991.98,183.75,-708.75,-385.0,1,94.427,
01/01/2000,01:37:43.33,15.37,-70.27,-991.98,105.0,-726.25,-288.75,1,94.436,
01/01/2000,01:37:43.34,15.37,-70.39,-991.86,210.0,-735.0,-341.25,1,94.444,
01/01/2000,01:37:43.35,15.13,-70.52,-991.74,35.0,-778.75,-367.50,1,94.308,
01/01/2000,01:37:43.36,15.13,-70.39,-991.74,245.0,-638.75,-437.50,1,94.316,
01/01/2000,01:37:43.37,15.25,-70.15,-991.86,70.0,-743.75,-411.25,1,94.325,
01/01/2000,01:37:43.38,15.37,-70.15,-991.86,113.75,-761.25,-332.50,1,94.334,
01/01/2000,01:37:43.39,15.37,-70.27,-991.98,61.25,-726.25,-358.75,1,94.343,
01/01/2000,01:37:43.40,15.25,-70.27,-991.86,131.25,-743.75,-323.75,1,94.351,
01/01/2000,01:37:43.42,15.25,-70.27,-992.10,236.25,-761.25,-332.50,1,94.360,
01/01/2000,01:37:43.43,15.25,-70.03,-991.98,52.50,-621.25,-280.0,1,94.368,
01/01/2000,01:37:43.44,15.25,-70.15,-991.98,192.50,-717.50,-245.0,1,94.377,
01/01/2000,01:37:43.45,15.13,-70.15,-991.86,253.75,-708.75,-376.25,1,94.385,
01/01/2000,01:37:43.46,15.13,-70.27,-991.74,78.75,-682.50,-227.50,1,94.394,
01/01/2000,01:37:43.47,15.25,-70.27,-991.74,70.0,-805.0,-332.50,1,94.402,
01/01/2000,01:37:43.48,15.37,-70.39,-991.74,157.50,-621.25,-315.0,1,94.411,
01/01/2000,01:37:43.49,15.13,-70.15,-991.74,175.0,-533.75,-428.75,1,94.277,
01/01/2000,01:37:43.51,15.13,-70.03,-991.86,262.50,-673.75,-280.0,1,94.286,
01/01/2000,01:37:43.52,15.25,-69.91,-992.10,131.25,-656.25,-236.25,1,94.294,
01/01/2000,01:37:43.53,15.37,-70.03,-991.98,262.50,-621.25,-297.50,1,94.303,
01/01/2000,01:37:43.54,15.37,-70.15,-991.86,148.75,-848.75,-367.50,1,94.311,
01/01/2000,01:37:43.55,17.32,-70.03,-989.91,-481.25,-393.75,-568.75,1,94.320,
01/01/2000,01:37:43.56,6.47,-68.93,-960.99,-183.75,-481.25,2817.50,1,94.328,
01/01/2000,01:37:43.57,1.95,-66.98,-948.18,2275.0,-1951.25,411.25,1,94.337,
01/01/2000,01:37:43.58,10.49,-70.03,-978.20,210.0,-1960.0,-5328.75,1,94.345,
01/01/2000,01:37:43.59,22.33,-76.49,-1017.72,1592.50,-568.75,-3062.50,1,94.354,
01/01/2000,01:37:43.60,28.06,-74.05,-1042.73,-1163.75,498.75,3167.50,1,94.362,
01/01/2000,01:37:43.61,24.64,-68.56,-1033.71,-533.75,35.0,2047.50,1,94.370,
01/01/2000,01:37:43.62,19.64,-65.39,-1007.84,-463.75,-402.50,-1487.50,1,94.379,
01/01/2000,01:37:43.63,13.91,-65.15,-982.95,218.75,-953.75,647.50,1,94.387,
01/01/2000,01:37:43.64,11.10,-71.86,-969.78,927.50,-1207.50,1846.25,1,94.395,
01/01/2000,01:37:43.65,13.79,-75.76,-980.39,787.50,-1181.25,-1146.25,1,94.404,
01/01/2000,01:37:43.66,17.45,-76.49,-996.86,87.50,-778.75,-3150.0,1,94.412,
01/01/2000,01:37:43.67,19.28,-73.20,-1006.74,-96.25,-472.50,-367.50,1,94.420,
01/01/2000,01:37:43.68,17.81,-67.34,-1002.35,-192.50,-376.25,1636.25,1,94.290,
01/01/2000,01:37:43.69,13.91,-63.20,-993.08,-183.75,-577.50,857.50,1,94.436,
01/01/2000,01:37:43.70,12.81,-65.88,-984.91,306.25,-682.50,122.50,1,94.307,
01/01/2000,01:37:43.71,13.42,-71.00,-982.10,446.25,-910.0,-516.25,1,94.315,
01/01/2000,01:37:43.72,16.59,-76.37,-988.57,131.25,-901.25,-1347.50,1,94.323,
01/01/2000,01:37:43.73,18.06,-75.64,-994.06,140.0,-787.50,-1960.0,1,94.331,
01/01/2000,01:37:43.74,17.20,-71.49,-995.64,-26.25,-673.75,-918.75,1,94.340,
01/01/2000,01:37:43.75,15.01,-66.73,-993.32,43.75,-516.25,752.50,1,94.348,
01/01/2000,01:37:43.77,12.57,-64.78,-989.05,271.25,-551.25,1067.50,1,94.356,
01/01/2000,01:37:43.78,12.93,-69.78,-989.18,183.75,-743.75,306.25,1,94.364,
01/01/2000,01:37:43.79,15.62,-73.69,-991.37,376.25,-647.50,-1023.75,1,94.372,
01/01/2000,01:37:43.80,16.96,-75.15,-992.96,175.0,-735.0,-1907.50,1,94.380,
01/01/2000,01:37:43.81,16.96,-73.57,-992.59,166.25,-857.50,-1251.25,1,94.388,
01/01/2000,01:37:43.82,15.74,-70.27,-991.13,288.75,-813.75,70.0,1,94.397,
01/01/2000,01:37:43.83,14.03,-66.49,-990.40,297.50,-822.50,411.25,1,94.405,
01/01/2000,01:37:43.84,14.03,-67.83,-992.47,297.50,-568.75,183.75,1,94.413,
01/01/2000,01:37:43.85,14.88,-70.64,-993.57,183.75,-595.0,-262.50,1,94.421,
01/01/2000,01:37:43.86,15.62,-72.47,-993.20,140.0,-665.0,-735.0,1,94.429,
01/01/2000,01:37:43.87,16.23,-72.96,-991.62,148.75,-857.50,-621.25,1,94.437,
01/01/2000,01:37:43.88,16.23,-70.88,-990.15,52.50,-770.0,-367.50,1,94.444,
01/01/2000,01:37:43.89,15.49,-69.30,-990.76,78.75,-700.0,52.50,1,94.318,
01/01/2000,01:37:43.91,14.52,-68.81,-992.96,201.25,-603.75,70.0,1,94.326,
01/01/2000,01:37:43.92,14.40,-69.54,-993.57,148.75,-691.25,-577.50,1,94.334,
01/01/2000,01:37:43.93,14.88,-70.39,-992.96,105.0,-621.25,-700.0,1,94.342,
01/01/2000,01:37:43.94,15.62,-71.25,-991.62,140.0,-708.75,-183.75,1,94.350,
01/01/2000,01:37:43.95,16.10,-71.74,-990.27,288.75,-813.75,-245.0,1,94.358,
01/01/2000,01:37:43.96,16.10,-71.13,-990.88,113.75,-805.0,-350.0,1,94.366,
01/01/2000,01:37:43.97,15.62,-70.64,-992.35,183.75,-673.75,-341.25,1,94.374,
01/01/2000,01:37:43.98,14.76,-69.78,-993.57,122.50,-560.0,-271.25,1,94.382,
01/01/2000,01:37:43.99,14.64,-69.66,-992.84,140.0,-577.50,-175.0,1,94.390,
01/01/2000,01:37:44.00,15.01,-70.15,-991.37,131.25,-700.0,-166.25,1,94.398,
01/01/2000,01:37:44.01,15.86,-71.49,-991.37,166.25,-805.0,-420.0,1,94.274,
01/01/2000,01:37:44.02,15.86,-71.74,-992.23,-52.50,-840.0,-525.0,1,94.282,
01/01/2000,01:37:44.03,15.62,-71.37,-992.84,131.25,-708.75,-376.25,1,94.290,
01/01/2000,01:37:44.04,14.88,-70.27,-992.96,96.25,-708.75,-306.25,1,94.298,
01/01/2000,01:37:44.06,14.27,-69.78,-992.35,218.75,-638.75,-113.75,1,94.306,
01/01/2000,01:37:44.07,14.76,-69.91,-991.98,113.75,-708.75,-78.75,1,94.313,
01/01/2000,01:37:44.08,15.37,-70.52,-992.10,271.25,-612.50,-192.50,1,94.321,
01/01/2000,01:37:44.09,15.86,-71.74,-992.35,253.75,-778.75,-332.50,1,94.329,
01/01/2000,01:37:44.10,15.62,-72.10,-992.47,420.0,-647.50,-376.25,1,94.337,
01/01/2000,01:37:44.11,15.01,-71.37,-992.35,87.50,-726.25,-367.50,1,94.345,
01/01/2000,01:37:44.12,14.64,-69.91,-992.10,183.75,-778.75,-306.25,1,94.353,
01/01/2000,01:37:44.13,14.64,-69.78,-992.35,105.0,-673.75,-262.50,1,94.360,
01/01/2000,01:37:44.14,15.01,-70.27,-992.71,122.50,-743.75,-271.25,1,94.368,
01/01/2000,01:37:44.15,15.13,-71.00,-992.84,105.0,-577.50,-288.75,1,94.376,
01/01/2000,01:37:44.16,15.37,-71.61,-992.35,113.75,-647.50,-420.0,1,94.384,
01/01/2000,01:37:44.17,15.25,-71.49,-991.98,78.75,-831.25,-481.25,1,94.391,
01/01/2000,01:37:44.18,15.25,-70.64,-992.10,43.75,-743.75,-411.25,1,94.399,
01/01/2000,01:37:44.19,15.25,-69.91,-992.59,183.75,-743.75,-131.25,1,94.407,
01/01/2000,01:37:44.20,15.13,-69.91,-992.84,201.25,-673.75,-70.0,1,94.414,
01/01/2000,01:37:44.21,15.01,-70.03,-992.59,148.75,-586.25,-201.25,1,94.422,
01/01/2000,01:37:44.22,15.13,-70.76,-992.47,122.50,-735.0,-420.0,1,94.429,
01/01/2000,01:37:44.23,15.37,-71.00,-992.10,245.0,-770.0,-411.25,1,94.437,
01/01/2000,01:37:44.24,15.62,-70.76,-992.10,183.75,-726.25,-472.50,1,94.444,
01/01/2000,01:37:44.25,15.49,-70.52,-992.59,253.75,-691.25,-411.25,1,94.452,
01/01/2000,01:37:44.26,15.13,-70.27,-992.96,52.50,-665.0,-288.75,1,94.332,
01/01/2000,01:37:44.27,15.01,-70.27,-992.84,157.50,-656.25,-271.25,1,94.340,
01/01/2000,01:37:44.28,15.13,-70.52,-992.35,280.0,-787.50,-402.50,1,94.347,
01/01/2000,01:37:44.29,15.49,-70.64,-992.10,166.25,-761.25,-341.25,1,94.355,
01/01/2000,01:37:44.30,15.74,-70.88,-992.10,122.50,-621.25,-393.75,1,94.362,
01/01/2000,01:37:44.31,15.62,-70.76,-992.10,323.75,-700.0,-271.25,1,94.370,
01/01/2000,01:37:44.33,15.37,-70.52,-992.35,201.25,-708.75,-306.25,1,94.378,
01/01/2000,01:37:44.34,15.13,-70.39,-992.35,166.25,-647.50,-385.0,1,94.385,
01/01/2000,01:37:44.35,15.13,-70.27,-992.47,201.25,-691.25,-271.25,1,94.393,
01/01/2000,01:37:44.36,15.49,-70.39,-992.35,297.50,-577.50,-428.75,1,94.400,
01/01/2000,01:37:44.37,15.62,-70.76,-992.35,70.0,-735.0,-262.50,1,94.407,
01/01/2000,01:37:44.38,15.37,-71.00,-992.35,236.25,-752.50,-341.25,1,94.415,
01/01/2000,01:37:44.39,15.37,-71.00,-992.47,113.75,-708.75,-393.75,1,94.422,
01/01/2000,01:37:44.40,15.13,-70.52,-992.71,26.25,-735.0,-420.0,1,94.305,
01/01/2000,01:37:44.41,15.13,-70.03,-992.59,148.75,-638.75,-166.25,1,94.312,
01/01/2000,01:37:44.42,15.13,-70.27,-992.59,8.75,-621.25,-315.0,1,94.320,
01/01/2000,01:37:44.43,15.13,-70.52,-992.47,210.0,-840.0,-376.25,1,94.327,
01/01/2000,01:37:44.44,15.13,-70.76,-992.47,350.0,-717.50,-393.75,1,94.335,
01/01/2000,01:37:44.45,15.13,-70.76,-992.47,341.25,-726.25,-472.50,1,94.342,
01/01/2000,01:37:44.46,15.25,-70.39,-992.71,192.50,-673.75,-262.50,1,94.350,
01/01/2000,01:37:44.48,15.13,-70.03,-992.96,175.0,-673.75,-332.50,1,94.357,
01/01/2000,01:37:44.49,15.13,-70.27,-992.84,227.50,-586.25,-358.75,1,94.364,
01/01/2000,01:37:44.50,15.25,-70.39,-992.84,52.50,-831.25,-175.0,1,94.372,
01/01/2000,01:37:44.51,15.37,-70.76,-992.59,105.0,-726.25,-385.0,1,94.379,
01/01/2000,01:37:44.52,15.37,-70.88,-992.59,253.75,-752.50,-525.0,1,94.386,
01/01/2000,01:37:44.53,15.37,-70.52,-992.84,288.75,-717.50,-262.50,1,94.394,
01/01/2000,01:37:44.54,15.37,-70.27,-992.84,87.50,-673.75,-306.25,1,94.278,
01/01/2000,01:37:44.55,15.13,-70.52,-992.59,280.0,-647.50,-262.50,1,94.286,
01/01/2000,01:37:44.56,15.13,-70.39,-992.71,0.0,-708.75,-472.50,1,94.293,
01/01/2000,01:37:44.57,15.37,-70.76,-992.59,175.0,-813.75,-411.25,1,94.301,
01/01/2000,01:37:44.58,15.62,-70.76,-992.59,148.75,-743.75,-323.75,1,94.308,
01/01/2000,01:37:44.59,15.49,-70.52,-992.59,131.25,-796.25,-350.0,1,94.315,
01/01/2000,01:37:44.60,15.37,-70.52,-992.59,113.75,-708.75,-323.75,1,94.323,
01/01/2000,01:37:44.62,15.13,-70.27,-992.59,140.0,-691.25,-297.50,1,94.330,
01/01/2000,01:37:44.62,15.13,-70.39,-992.71,70.0,-630.0,-323.75,1,94.337,
01/01/2000,01:37:44.64,15.25,-70.64,-992.59,253.75,-656.25,-350.0,1,94.344,
01/01/2000,01:37:44.65,15.49,-70.52,-992.47,122.50,-708.75,-560.0,1,94.352,
01/01/2000,01:37:44.66,15.62,-70.76,-992.23,122.50,-840.0,-393.75,1,94.359,
01/01/2000,01:37:44.67,15.37,-70.76,-992.47,105.0,-647.50,-376.25,1,94.366,
01/01/2000,01:37:44.68,15.13,-70.76,-992.59,131.25,-603.75,-297.50,1,94.373,
01/01/2000,01:37:44.69,15.25,-70.52,-992.59,113.75,-796.25,-411.25,1,94.381,
01/01/2000,01:37:44.70,15.37,-70.52,-992.59,78.75,-700.0,-297.50,1,94.388,
01/01/2000,01:37:44.71,15.25,-70.52,-992.47,131.25,-621.25,-183.75,1,94.395,
01/01/2000,01:37:44.72,15.37,-70.64,-992.47,140.0,-656.25,-402.50,1,94.402,
01/01/2000,01:37:44.73,15.49,-70.76,-992.47,210.0,-735.0,-481.25,1,94.409,
01/01/2000,01:37:44.74,15.49,-70.39,-992.59,192.50,-761.25,-350.0,1,94.416,
01/01/2000,01:37:44.75,15.37,-70.27,-992.71,236.25,-630.0,-402.50,1,94.304,
01/01/2000,01:37:44.76,15.37,-70.03,-992.71,96.25,-761.25,-358.75,1,94.311,
01/01/2000,01:37:44.77,15.49,-70.27,-992.71,332.50,-708.75,-210.0,1,94.318,
01/01/2000,01:37:44.78,15.49,-70.52,-992.59,210.0,-735.0,-437.50,1,94.325,
01/01/2000,01:37:44.79,15.62,-70.52,-992.84,-43.75,-778.75,-306.25,1,94.332,
01/01/2000,01:37:44.80,15.62,-70.52,-992.71,192.50,-630.0,-350.0,1,94.340,
01/01/2000,01:37:44.81,15.49,-70.39,-992.47,148.75,-717.50,-393.75,1,94.347,
01/01/2000,01:37:44.83,15.49,-70.27,-992.35,157.50,-673.75,-236.25,1,94.354,
01/01/2000,01:37:44.84,15.37,-70.27,-992.59,175.0,-656.25,-341.25,1,94.361,
01/01/2000,01:37:44.85,15.62,-70.52,-992.59,201.25,-665.0,-341.25,1,94.368,
01/01/2000,01:37:44.86,15.62,-70.76,-992.71,140.0,-805.0,-481.25,1,94.375,
01/01/2000,01:37:44.87,15.62,-70.64,-992.71,148.75,-656.25,-411.25,1,94.382,
01/01/2000,01:37:44.88,15.62,-70.52,-992.59,148.75,-726.25,-385.0,1,94.389,
01/01/2000,01:37:44.89,15.37,-70.27,-992.47,140.0,-691.25,-271.25,1,94.396,
01/01/2000,01:37:44.90,15.37,-70.27,-992.59,166.25,-630.0,-358.75,1,94.403,
01/01/2000,01:37:44.91,15.37,-70.27,-992.59,157.50,-682.50,-297.50,1,94.293,
01/01/2000,01:37:44.92,15.37,-70.27,-992.59,157.50,-665.0,-437.50,1,94.417,
01/01/2000,01:37:44.93,15.37,-70.52,-992.47,192.50,-743.75,-306.25,1,94.307,
01/01/2000,01:37:44.94,15.49,-70.39,-992.47,131.25,-647.50,-262.50,1,94.314,
01/01/2000,01:37:44.95,15.62,-70.52,-992.35,61.25,-717.50,-166.25,1,94.321,
01/01/2000,01:37:44.97,15.37,-70.39,-992.47,140.0,-717.50,-358.75,1,94.328,
01/01/2000,01:37:44.98,15.25,-70.64,-992.59,341.25,-691.25,-402.50,1,94.335,
01/01/2000,01:37:44.99,15.37,-70.52,-992.59,306.25,-708.75,-402.50,1,94.342,
01/01/2000,01:37:45.00,15.37,-70.39,-992.47,105.0,-612.50,-376.25,1,94.349,
01/01/2000,01:37:45.01,15.62,-70.39,-992.35,-70.0,-708.75,-271.25,1,94.356,
01/01/2000,01:37:45.02,15.62,-70.52,-992.35,166.25,-726.25,-393.75,1,94.363,
01/01/2000,01:37:45.03,15.62,-70.39,-992.47,218.75,-743.75,-332.50,1,94.254,
01/01/2000,01:37:45.05,15.37,-70.27,-992.59,183.75,-673.75,-376.25,1,94.261,
01/01/2000,01:37:45.06,15.49,-70.27,-992.47,166.25,-647.50,-271.25,1,94.268,
01/01/2000,01:37:45.07,15.49,-70.03,-992.35,210.0,-700.0,-227.50,1,94.275,
01/01/2000,01:37:45.08,15.49,-70.27,-992.35,8.75,-603.75,-306.25,1,94.282,
01/01/2000,01:37:45.09,15.62,-70.64,-992.23,297.50,-682.50,-385.0,1,94.289,
01/01/2000,01:37:45.10,15.62,-70.52,-992.23,105.0,-770.0,-376.25,1,94.296,
01/01/2000,01:37:45.11,15.49,-70.52,-992.10,157.50,-700.0,-271.25,1,94.303,
01/01/2000,01:37:45.12,15.37,-70.52,-992.10,122.50,-665.0,-323.75,1,94.310,
01/01/2000,01:37:45.13,15.25,-70.52,-991.98,87.50,-612.50,-332.50,1,94.317,
01/01/2000,01:37:45.14,15.62,-70.39,-992.10,175.0,-691.25,-253.75,1,94.324,
01/01/2000,01:37:45.15,15.25,-70.39,-992.23,113.75,-595.0,-402.50,1,94.331,
01/01/2000,01:37:45.16,15.25,-70.52,-992.47,166.25,-708.75,-341.25,1,94.337,
01/01/2000,01:37:45.17,15.37,-70.52,-992.35,183.75,-700.0,-385.0,1,94.344,
01/01/2000,01:37:45.18,15.37,-70.03,-991.86,61.25,-778.75,-280.0,1,94.351,
01/01/2000,01:37:45.19,15.62,-70.15,-991.86,61.25,-735.0,-358.75,1,94.358,
01/01/2000,01:37:45.20,15.49,-70.39,-992.23,122.50,-726.25,-148.75,1,94.365,
01/01/2000,01:37:45.21,15.37,-70.52,-992.35,210.0,-691.25,-245.0,1,94.371,
01/01/2000,01:37:45.22,15.62,-70.64,-992.35,175.0,-630.0,-358.75,1,94.378,
01/01/2000,01:37:45.23,15.49,-70.27,-992.35,96.25,-682.50,-446.25,1,94.385,
01/01/2000,01:37:45.24,15.37,-70.39,-992.35,105.0,-621.25,-280.0,1,94.391,
01/01/2000,01:37:45.25,15.37,-70.39,-992.47,227.50,-665.0,-341.25,1,94.286,
01/01/2000,01:37:45.26,15.37,-70.52,-992.59,131.25,-743.75,-350.0,1,94.293,
01/01/2000,01:37:45.27,15.49,-70.64,-992.47,166.25,-717.50,-350.0,1,94.299,
01/01/2000,01:37:45.28,15.49,-70.52,-992.35,201.25,-761.25,-411.25,1,94.306,
01/01/2000,01:37:45.29,15.37,-70.27,-992.10,157.50,-647.50,-218.75,1,94.313,
01/01/2000,01:37:45.30,15.49,-70.15,-992.10,131.25,-673.75,-358.75,1,94.320,
01/01/2000,01:37:45.32,15.25,-70.15,-992.23,122.50,-665.0,-297.50,1,94.326,
01/01/2000,01:37:45.33,15.13,-70.27,-992.35,122.50,-638.75,-341.25,1,94.333,
01/01/2000,01:37:45.34,15.13,-70.52,-992.35,166.25,-708.75,-402.50,1,94.340,
01/01/2000,01:37:45.35,15.37,-70.15,-992.23,52.50,-533.75,-402.50,1,94.346,
01/01/2000,01:37:45.36,15.37,-70.15,-992.23,218.75,-857.50,-227.50,1,94.353,
01/01/2000,01:37:45.37,15.37,-70.39,-992.23,315.0,-752.50,-297.50,1,94.360,
01/01/2000,01:37:45.38,15.37,-70.27,-992.23,157.50,-647.50,-271.25,1,94.366,
01/01/2000,01:37:45.39,15.37,-70.39,-992.23,140.0,-673.75,-350.0,1,94.373,
01/01/2000,01:37:45.40,15.25,-70.27,-992.47,52.50,-752.50,-288.75,1,94.379,
01/01/2000,01:37:45.41,15.49,-70.27,-992.47,192.50,-621.25,-367.50,1,94.386,
01/01/2000,01:37:45.42,15.49,-70.15,-992.35,122.50,-673.75,-358.75,1,94.393,
01/01/2000,01:37:45.43,15.62,-70.27,-992.35,43.75,-612.50,-358.75,1,94.399,
01/01/2000,01:37:45.44,15.49,-70.52,-992.59,175.0,-673.75,-472.50,1,94.406,
01/01/2000,01:37:45.45,15.37,-70.15,-992.59,201.25,-647.50,-376.25,1,94.302,
01/01/2000,01:37:45.47,15.37,-70.27,-992.59,323.75,-673.75,-297.50,1,94.309,
01/01/2000,01:37:45.48,15.37,-70.03,-992.47,78.75,-673.75,-341.25,1,94.316,
01/01/2000,01:37:45.49,15.37,-70.15,-992.35,218.75,-735.0,-428.75,1,94.322,
01/01/2000,01:37:45.50,15.37,-70.27,-992.35,35.0,-612.50,-315.0,1,94.329,
01/01/2000,01:37:45.51,15.37,-70.27,-992.23,157.50,-656.25,-280.0,1,94.335,
01/01/2000,01:37:45.52,15.49,-70.27,-992.35,236.25,-735.0,-411.25,1,94.342,
01/01/2000,01:37:45.53,15.37,-70.27,-992.23,78.75,-665.0,-446.25,1,94.348,
01/01/2000,01:37:45.54,15.37,-70.27,-992.23,175.0,-752.50,-271.25,1,94.246,
01/01/2000,01:37:45.56,15.49,-70.39,-992.23,105.0,-726.25,-315.0,1,94.253,
01/01/2000,01:37:45.56,15.37,-70.52,-992.10,201.25,-638.75,-455.0,1,94.259,
01/01/2000,01:37:45.58,15.37,-70.27,-991.98,140.0,-735.0,-463.75,1,94.266,
01/01/2000,01:37:45.59,15.37,-70.15,-991.86,96.25,-787.50,-323.75,1,94.273,
01/01/2000,01:37:45.60,15.37,-70.03,-991.86,148.75,-726.25,-201.25,1,94.279,
01/01/2000,01:37:45.61,15.25,-70.27,-991.86,227.50,-612.50,-428.75,1,94.286,
01/01/2000,01:37:45.62,15.37,-70.15,-992.23,166.25,-813.75,-402.50,1,94.292,
01/01/2000,01:37:45.63,15.49,-70.27,-992.23,218.75,-682.50,-323.75,1,94.299,
01/01/2000,01:37:45.64,15.62,-70.03,-992.10,157.50,-647.50,-350.0,1,94.305,
01/01/2000,01:37:45.65,15.37,-70.03,-992.10,315.0,-717.50,-411.25,1,94.312,
01/01/2000,01:37:45.66,15.25,-70.03,-992.10,245.0,-612.50,-245.0,1,94.318,
01/01/2000,01:37:45.67,15.13,-70.03,-992.23,192.50,-682.50,-437.50,1,94.325,
01/01/2000,01:37:45.68,15.25,-70.03,-992.35,148.75,-621.25,-323.75,1,94.331,
01/01/2000,01:37:45.69,15.25,-70.27,-992.35,210.0,-717.50,-245.0,1,94.337,
01/01/2000,01:37:45.70,15.13,-70.03,-992.10,78.75,-700.0,-297.50,1,94.344,
01/01/2000,01:37:45.71,15.25,-70.27,-991.86,201.25,-726.25,-288.75,1,94.350,
01/01/2000,01:37:45.72,15.37,-70.03,-992.10,105.0,-673.75,-306.25,1,94.357,
01/01/2000,01:37:45.73,15.25,-70.15,-992.35,122.50,-735.0,-367.50,1,94.363,
01/01/2000,01:37:45.74,15.37,-70.03,-992.23,-43.75,-717.50,-350.0,1,94.369,
01/01/2000,01:37:45.75,15.37,-70.27,-992.10,253.75,-700.0,-385.0,1,94.376,
01/01/2000,01:37:45.76,15.37,-70.27,-992.10,192.50,-726.25,-376.25,1,94.382,
01/01/2000,01:37:45.77,15.37,-70.52,-992.10,113.75,-761.25,-323.75,1,94.388,
01/01/2000,01:37:45.78,15.37,-70.52,-991.98,227.50,-647.50,-385.0,1,94.395,
01/01/2000,01:37:45.79,15.37,-70.52,-992.10,288.75,-638.75,-323.75,1,94.401,
01/01/2000,01:37:45.80,15.37,-70.39,-992.10,43.75,-621.25,-315.0,1,94.407,
01/01/2000,01:37:45.81,15.37,-70.27,-992.10,183.75,-735.0,-271.25,1,94.308,
01/01/2000,01:37:45.82,15.25,-70.39,-991.98,122.50,-603.75,-402.50,1,94.314,
01/01/2000,01:37:45.83,15.37,-70.27,-992.10,140.0,-647.50,-280.0,1,94.321,
01/01/2000,01:37:45.84,15.37,-70.27,-992.10,35.0,-752.50,-376.25,1,94.327,
01/01/2000,01:37:45.85,15.25,-70.27,-991.98,43.75,-691.25,-428.75,1,94.333,
01/01/2000,01:37:45.86,15.13,-70.15,-991.86,192.50,-647.50,-376.25,1,94.340,
01/01/2000,01:37:45.88,15.25,-70.03,-991.62,17.50,-726.25,-341.25,1,94.346,
01/01/2000,01:37:45.89,15.25,-70.03,-991.74,148.75,-691.25,-236.25,1,94.352,
01/01/2000,01:37:45.90,15.37,-70.15,-991.86,70.0,-682.50,-358.75,1,94.358,
01/01/2000,01:37:45.91,15.37,-70.27,-991.86,78.75,-682.50,-332.50,1,94.365,
01/01/2000,01:37:45.92,15.37,-70.15,-991.62,122.50,-735.0,-323.75,1,94.371,
01/01/2000,01:37:45.93,15.49,-70.15,-991.74,218.75,-673.75,-332.50,1,94.377,
01/01/2000,01:37:45.94,15.62,-69.91,-991.86,52.50,-673.75,-288.75,1,94.383,
01/01/2000,01:37:45.95,15.37,-70.03,-991.86,157.50,-743.75,-428.75,1,94.286,
01/01/2000,01:37:45.96,15.37,-70.03,-991.98,-113.75,-813.75,-210.0,1,94.292,
01/01/2000,01:37:45.97,15.49,-70.03,-991.86,245.0,-682.50,-490.0,1,94.298,
01/01/2000,01:37:45.98,15.62,-70.03,-991.74,192.50,-647.50,-323.75,1,94.304,
01/01/2000,01:37:45.99,15.62,-70.03,-991.62,183.75,-691.25,-385.0,1,94.311,
01/01/2000,01:37:46.00,15.37,-70.03,-991.74,183.75,-630.0,-297.50,1,94.317,
01/01/2000,01:37:46.01,15.13,-70.27,-991.86,175.0,-691.25,-297.50,1,94.323,
01/01/2000,01:37:46.03,15.25,-70.27,-991.98,157.50,-752.50,-306.25,1,94.329,
01/01/2000,01:37:46.04,15.25,-70.03,-991.86,148.75,-656.25,-332.50,1,94.336,
01/01/2000,01:37:46.05,15.13,-70.39,-991.74,271.25,-700.0,-402.50,1,94.239,
01/01/2000,01:37:46.06,14.88,-70.39,-991.86,122.50,-726.25,-280.0,1,94.245,
01/01/2000,01:37:46.08,15.01,-70.64,-991.98,288.75,-691.25,-463.75,1,94.252,
01/01/2000,01:37:46.09,15.13,-70.52,-992.10,70.0,-586.25,-323.75,1,94.258,
01/01/2000,01:37:46.10,15.13,-70.27,-992.10,52.50,-673.75,-306.25,1,94.264,
01/01/2000,01:37:46.11,15.25,-70.39,-991.86,157.50,-682.50,-455.0,1,94.270,
01/01/2000,01:37:46.12,15.13,-70.27,-991.98,201.25,-638.75,-376.25,1,94.276,
01/01/2000,01:37:46.13,15.37,-70.52,-991.98,26.25,-630.0,-420.0,1,94.283,
01/01/2000,01:37:46.14,15.37,-70.64,-992.10,315.0,-717.50,-393.75,1,94.289,
01/01/2000,01:37:46.15,15.37,-70.27,-992.10,157.50,-717.50,-210.0,1,94.295,
01/01/2000,01:37:46.16,15.25,-70.39,-992.10,253.75,-770.0,-323.75,1,94.301,
01/01/2000,01:37:46.17,15.37,-70.39,-992.35,131.25,-638.75,-367.50,1,94.307,
01/01/2000,01:37:46.18,15.25,-70.15,-992.35,166.25,-638.75,-341.25,1,94.313,
01/01/2000,01:37:46.19,15.25,-70.27,-992.35,201.25,-708.75,-201.25,1,94.319,
01/01/2000,01:37:46.20,15.37,-70.27,-992.35,341.25,-612.50,350.0,1,94.325,
01/01/2000,01:37:46.21,15.13,-70.15,-992.10,-8.75,-656.25,848.75,1,94.332,
01/01/2000,01:37:46.22,15.13,-70.27,-991.98,323.75,-603.75,1513.75,1,94.338,
01/01/2000,01:37:46.23,15.13,-69.91,-991.98,201.25,-603.75,1898.75,1,94.344,
01/01/2000,01:37:46.24,15.13,-70.03,-991.98,105.0,-577.50,2283.75,1,94.249,
01/01/2000,01:37:46.25,15.13,-69.91,-991.86,52.50,-481.25,3972.50,1,94.255,
01/01/2000,01:37:46.26,15.13,-69.91,-991.62,280.0,-516.25,5670.0,1,94.261,
01/01/2000,01:37:46.27,15.13,-69.91,-991.86,183.75,-341.25,6877.50,1,94.268,
01/01/2000,01:37:46.28,15.37,-70.03,-991.86,218.75,-332.50,7647.50,1,94.274,
01/01/2000,01:37:46.29,15.25,-70.03,-992.10,-87.50,-341.25,8330.0,1,94.280,
01/01/2000,01:37:46.31,15.01,-69.78,-992.10,78.75,-236.25,10325.0,1,94.286,
01/01/2000,01:37:46.32,15.13,-69.78,-991.98,358.75,-52.50,11856.25,1,94.292,
01/01/2000,01:37:46.33,15.13,-69.17,-992.23,0.0,-175.0,12897.50,1,94.298,
01/01/2000,01:37:46.34,15.13,-69.42,-992.35,96.25,-148.75,13378.75,1,94.304,
01/01/2000,01:37:46.35,15.25,-69.78,-992.10,131.25,-105.0,13816.25,1,94.310,
01/01/2000,01:37:46.36,15.25,-70.03,-992.10,87.50,-192.50,13090.0,1,94.316,
01/01/2000,01:37:46.37,15.37,-70.27,-992.10,105.0,-131.25,12118.75,1,94.322,
01/01/2000,01:37:46.38,15.25,-70.27,-992.10,201.25,-367.50,11156.25,1,94.328,
01/01/2000,01:37:46.39,15.25,-70.15,-992.23,166.25,-236.25,10963.75,1,94.334,
01/01/2000,01:37:46.40,15.25,-69.91,-992.35,157.50,-113.75,11278.75,1,94.340,
01/01/2000,01:37:46.41,15.13,-69.91,-992.35,210.0,-113.75,12652.50,1,94.346,
01/01/2000,01:37:46.42,15.01,-69.78,-992.23,201.25,-113.75,14253.75,1,94.351,
01/01/2000,01:37:46.43,15.13,-69.78,-992.35,52.50,-17.50,15408.75,1,94.357,
01/01/2000,01:37:46.44,15.37,-70.15,-992.35,192.50,166.25,16563.75,1,94.265,
01/01/2000,01:37:46.46,15.25,-69.91,-992.23,43.75,-17.50,16843.75,1,94.271,
01/01/2000,01:37:46.46,15.25,-70.03,-992.10,131.25,70.0,16940.0,1,94.277,
01/01/2000,01:37:46.48,15.13,-70.15,-992.23,148.75,52.50,16091.25,1,94.283,
01/01/2000,01:37:46.49,15.13,-69.78,-992.23,-17.50,-43.75,14918.75,1,94.289,
01/01/2000,01:37:46.50,15.13,-70.15,-992.23,113.75,-113.75,12792.50,1,94.295,
01/01/2000,01:37:46.51,15.13,-70.52,-992.10,183.75,-262.50,9800.0,1,94.301,
01/01/2000,01:37:46.52,15.13,-71.13,-992.23,262.50,-446.25,6711.25,1,94.306,
01/01/2000,01:37:46.53,15.01,-71.37,-992.23,113.75,-437.50,7035.0,1,94.312,
01/01/2000,01:37:46.54,14.88,-71.00,-992.10,157.50,-297.50,8163.75,1,94.318,
01/01/2000,01:37:46.55,15.01,-70.52,-992.10,61.25,-253.75,9108.75,1,94.324,
01/01/2000,01:37:46.56,15.13,-70.03,-992.23,78.75,-175.0,10570.0,1,94.233,
01/01/2000,01:37:46.57,15.01,-70.39,-992.23,148.75,-201.25,10876.25,1,94.239,
01/01/2000,01:37:46.58,15.13,-70.52,-992.47,78.75,-253.75,9143.75,1,94.245,
01/01/2000,01:37:46.60,15.37,-71.00,-992.10,113.75,-367.50,6877.50,1,94.251,
01/01/2000,01:37:46.61,15.37,-71.13,-991.86,-43.75,-525.0,5153.75,1,94.256,
01/01/2000,01:37:46.62,15.25,-71.49,-991.74,113.75,-472.50,3473.75,1,94.262,
01/01/2000,01:37:46.63,15.25,-71.49,-992.10,253.75,-542.50,2721.25,1,94.268,
01/01/2000,01:37:46.64,15.13,-71.25,-992.23,87.50,-533.75,2415.0,1,94.274,
01/01/2000,01:37:46.65,15.25,-71.00,-992.10,227.50,-533.75,2292.50,1,94.280,
01/01/2000,01:37:46.66,15.37,-70.76,-992.10,122.50,-533.75,2546.25,1,94.286,
01/01/2000,01:37:46.67,15.37,-70.52,-992.10,96.25,-586.25,2852.50,1,94.292,
01/01/2000,01:37:46.68,15.37,-70.76,-992.10,192.50,-621.25,3036.25,1,94.297,
01/01/2000,01:37:46.69,15.25,-70.52,-992.10,17.50,-577.50,2870.0,1,94.303,
01/01/2000,01:37:46.70,15.25,-70.64,-992.35,35.0,-665.0,2546.25,1,94.309,
01/01/2000,01:37:46.71,15.25,-70.52,-992.35,210.0,-612.50,1811.25,1,94.315,
01/01/2000,01:37:46.72,15.13,-70.15,-992.35,43.75,-595.0,1076.25,1,94.320,
01/01/2000,01:37:46.73,15.13,-70.52,-992.10,157.50,-656.25,253.75,1,94.326,
01/01/2000,01:37:46.74,14.88,-70.76,-992.10,323.75,-743.75,105.0,1,94.332,
01/01/2000,01:37:46.75,15.01,-70.52,-992.10,96.25,-726.25,-105.0,1,94.338,
01/01/2000,01:37:46.76,15.01,-70.64,-992.10,87.50,-726.25,-105.0,1,94.343,
01/01/2000,01:37:46.77,15.01,-70.39,-991.98,26.25,-673.75,-166.25,1,94.349,
01/01/2000,01:37:46.78,15.01,-70.27,-991.86,122.50,-717.50,-218.75,1,94.355,
01/01/2000,01:37:46.79,15.13,-70.39,-991.86,148.75,-700.0,-201.25,1,94.361,
01/01/2000,01:37:46.80,15.01,-70.64,-991.86,175.0,-612.50,-323.75,1,94.271,
01/01/2000,01:37:46.81,15.01,-70.39,-991.86,192.50,-700.0,-306.25,1,94.277,
01/01/2000,01:37:46.82,15.01,-70.52,-991.74,253.75,-656.25,-113.75,1,94.283,
01/01/2000,01:37:46.83,15.13,-70.27,-991.74,8.75,-717.50,-236.25,1,94.289,
01/01/2000,01:37:46.84,15.13,-70.27,-991.74,227.50,-717.50,-350.0,1,94.294,
01/01/2000,01:37:46.85,15.13,-70.39,-991.74,245.0,-673.75,-411.25,1,94.300,
01/01/2000,01:37:46.87,15.13,-70.27,-991.86,131.25,-726.25,-297.50,1,94.306,
01/01/2000,01:37:46.88,15.25,-70.27,-991.86,140.0,-691.25,-358.75,1,94.311,
01/01/2000,01:37:46.89,15.13,-70.52,-991.86,210.0,-638.75,-472.50,1,94.317,
01/01/2000,01:37:46.90,15.13,-70.27,-991.86,17.50,-665.0,-306.25,1,94.323,
01/01/2000,01:37:46.91,14.88,-70.03,-991.98,306.25,-726.25,-428.75,1,94.328,
01/01/2000,01:37:46.92,15.01,-70.15,-992.10,113.75,-743.75,-245.0,1,94.334,
01/01/2000,01:37:46.93,15.13,-70.15,-991.98,175.0,-630.0,-332.50,1,94.340,
01/01/2000,01:37:46.94,15.01,-70.15,-991.86,218.75,-630.0,-262.50,1,94.345,
01/01/2000,01:37:46.95,15.01,-70.39,-991.74,157.50,-708.75,-533.75,1,94.351,
01/01/2000,01:37:46.96,14.88,-70.15,-991.86,131.25,-770.0,-437.50,1,94.356,
01/01/2000,01:37:46.97,15.01,-70.39,-991.86,280.0,-647.50,-376.25,1,94.362,
01/01/2000,01:37:46.98,15.01,-70.03,-991.86,78.75,-752.50,-358.75,1,94.368,
01/01/2000,01:37:46.99,15.01,-70.39,-991.74,350.0,-726.25,-315.0,1,94.373,
01/01/2000,01:37:47.01,14.88,-70.39,-991.62,385.0,-717.50,-393.75,1,94.286,
01/01/2000,01:37:47.02,14.88,-70.27,-991.62,122.50,-743.75,-420.0,1,94.291,
01/01/2000,01:37:47.03,15.13,-70.27,-991.74,43.75,-700.0,-446.25,1,94.297,
01/01/2000,01:37:47.04,15.13,-69.91,-991.62,131.25,-708.75,-253.75,1,94.303,
01/01/2000,01:37:47.05,15.01,-70.03,-991.62,131.25,-586.25,-253.75,1,94.308,
01/01/2000,01:37:47.06,15.01,-69.78,-991.62,96.25,-691.25,-358.75,1,94.314,
01/01/2000,01:37:47.07,15.37,-70.03,-991.74,271.25,-647.50,-490.0,1,94.227,
01/01/2000,01:37:47.08,15.37,-69.91,-991.74,122.50,-770.0,-323.75,1,94.233,
01/01/2000,01:37:47.09,15.37,-69.78,-991.37,227.50,-813.75,-323.75,1,94.238,
01/01/2000,01:37:47.10,15.37,-69.91,-991.25,175.0,-682.50,-393.75,1,94.244,
01/01/2000,01:37:47.12,15.37,-70.03,-991.37,70.0,-656.25,-332.50,1,94.250,
01/01/2000,01:37:47.12,15.13,-70.03,-991.62,122.50,-656.25,-306.25,1,94.255,
01/01/2000,01:37:47.14,15.37,-70.03,-991.62,17.50,-630.0,-341.25,1,94.261,
01/01/2000,01:37:47.15,15.37,-70.03,-991.49,280.0,-665.0,-332.50,1,94.266,
01/01/2000,01:37:47.16,15.37,-70.03,-991.37,105.0,-743.75,-271.25,1,94.272,
01/01/2000,01:37:47.17,15.49,-70.27,-991.49,218.75,-761.25,-288.75,1,94.277,
01/01/2000,01:37:47.18,15.37,-70.27,-991.62,280.0,-717.50,-367.50,1,94.283,
01/01/2000,01:37:47.19,15.25,-70.27,-991.62,271.25,-586.25,-385.0,1,94.288,
01/01/2000,01:37:47.20,15.37,-70.03,-991.62,113.75,-682.50,-271.25,1,94.294,
01/01/2000,01:37:47.21,15.37,-70.03,-991.37,236.25,-717.50,-332.50,1,94.300,
01/01/2000,01:37:47.22,15.25,-70.03,-991.37,227.50,-700.0,-358.75,1,94.305,
01/01/2000,01:37:47.23,15.25,-70.03,-991.37,61.25,-551.25,-428.75,1,94.311,
01/01/2000,01:37:47.24,15.25,-70.27,-991.49,131.25,-630.0,-402.50,1,94.316,
01/01/2000,01:37:47.25,15.13,-70.27,-991.62,210.0,-708.75,-385.0,1,94.321,
01/01/2000,01:37:47.26,15.13,-69.91,-991.62,105.0,-577.50,-420.0,1,94.327,
01/01/2000,01:37:47.27,15.25,-69.78,-991.49,131.25,-743.75,-227.50,1,94.332,
01/01/2000,01:37:47.28,15.13,-70.03,-991.37,253.75,-595.0,-288.75,1,94.338,
01/01/2000,01:37:47.29,15.01,-70.39,-991.62,166.25,-726.25,-306.25,1,94.253,
01/01/2000,01:37:47.30,14.88,-70.27,-991.49,175.0,-726.25,-420.0,1,94.258,
01/01/2000,01:37:47.31,14.76,-69.91,-991.37,183.75,-743.75,-367.50,1,94.264,
01/01/2000,01:37:47.33,14.88,-69.78,-991.37,105.0,-700.0,-306.25,1,94.269,
01/01/2000,01:37:47.33,15.01,-69.91,-991.37,350.0,-665.0,-262.50,1,94.275,
01/01/2000,01:37:47.35,15.01,-69.91,-991.49,157.50,-726.25,-262.50,1,94.280,
01/01/2000,01:37:47.36,15.13,-70.15,-991.49,87.50,-717.50,-332.50,1,94.286,
01/01/2000,01:37:47.37,15.25,-70.27,-991.49,43.75,-647.50,-420.0,1,94.291,
01/01/2000,01:37:47.38,15.13,-70.27,-991.25,341.25,-595.0,-262.50,1,94.297,
01/01/2000,01:37:47.39,15.13,-70.03,-991.37,43.75,-630.0,-341.25,1,94.302,
01/01/2000,01:37:47.40,15.25,-70.03,-991.49,271.25,-603.75,-306.25,1,94.307,
01/01/2000,01:37:47.41,15.25,-70.27,-991.62,358.75,-638.75,-385.0,1,94.313,
01/01/2000,01:37:47.42,15.37,-70.27,-991.49,61.25,-761.25,-297.50,1,94.318,
01/01/2000,01:37:47.43,15.37,-70.39,-991.37,78.75,-840.0,-297.50,1,94.234,
01/01/2000,01:37:47.44,15.37,-70.27,-991.37,201.25,-691.25,-306.25,1,94.240,
01/01/2000,01:37:47.45,15.25,-70.15,-991.37,297.50,-726.25,-358.75,1,94.245,
01/01/2000,01:37:47.46,15.25,-70.15,-991.37,201.25,-726.25,-393.75,1,94.251,
01/01/2000,01:37:47.47,15.13,-70.15,-991.49,157.50,-551.25,-358.75,1,94.256,
01/01/2000,01:37:47.48,15.13,-70.39,-991.37,227.50,-656.25,-341.25,1,94.262,
01/01/2000,01:37:47.49,15.25,-70.52,-991.37,140.0,-673.75,-428.75,1,94.267,
01/01/2000,01:37:47.51,15.25,-70.27,-991.13,288.75,-682.50,-367.50,1,94.272,
01/01/2000,01:37:47.52,15.37,-70.03,-991.25,113.75,-656.25,-455.0,1,94.278,
01/01/2000,01:37:47.53,15.13,-70.15,-991.37,122.50,-647.50,-402.50,1,94.283,
01/01/2000,01:37:47.54,15.13,-70.03,-991.37,280.0,-708.75,-367.50,1,94.288,
01/01/2000,01:37:47.55,15.25,-70.15,-991.49,280.0,-726.25,-376.25,1,94.294,
01/01/2000,01:37:47.56,15.13,-70.03,-991.49,175.0,-717.50,-393.75,1,94.299,
01/01/2000,01:37:47.57,15.25,-70.15,-991.37,87.50,-743.75,-463.75,1,94.304,
01/01/2000,01:37:47.59,15.37,-69.91,-991.37,131.25,-857.50,-358.75,1,94.222,
01/01/2000,01:37:47.60,15.13,-70.27,-991.62,288.75,-700.0,-428.75,1,94.227,
01/01/2000,01:37:47.61,14.88,-70.15,-991.74,105.0,-656.25,-402.50,1,94.233,
01/01/2000,01:37:47.62,15.25,-70.03,-991.74,157.50,-595.0,-253.75,1,94.238,
01/01/2000,01:37:47.63,15.62,-70.03,-991.62,166.25,-770.0,-332.50,1,94.243,
01/01/2000,01:37:47.64,15.49,-70.03,-991.49,0.0,-726.25,-192.50,1,94.249,
01/01/2000,01:37:47.65,15.37,-70.52,-991.37,218.75,-770.0,-227.50,1,94.254,
01/01/2000,01:37:47.66,15.49,-70.39,-991.37,105.0,-700.0,-498.75,1,94.259,
01/01/2000,01:37:47.67,15.37,-70.27,-991.62,157.50,-630.0,-315.0,1,94.265,
01/01/2000,01:37:47.68,15.49,-70.27,-991.86,210.0,-682.50,-297.50,1,94.270,
01/01/2000,01:37:47.69,15.37,-70.03,-991.74,131.25,-726.25,-350.0,1,94.275,
01/01/2000,01:37:47.70,15.37,-70.15,-991.49,96.25,-612.50,-210.0,1,94.280,
01/01/2000,01:37:47.71,15.49,-70.39,-991.25,306.25,-665.0,-428.75,1,94.286,
01/01/2000,01:37:47.72,15.49,-70.27,-991.62,227.50,-665.0,-323.75,1,94.291,
01/01/2000,01:37:47.73,15.62,-70.52,-991.62,166.25,-708.75,-472.50,1,94.296,
01/01/2000,01:37:47.74,15.49,-70.27,-991.37,148.75,-665.0,-315.0,1,94.301,
01/01/2000,01:37:47.75,15.25,-70.15,-991.25,157.50,-717.50,-297.50,1,94.307,
01/01/2000,01:37:47.76,15.37,-70.27,-991.25,288.75,-656.25,-428.75,1,94.312,
01/01/2000,01:37:47.77,15.25,-70.27,-991.49,140.0,-752.50,-288.75,1,94.317,
01/01/2000,01:37:47.78,15.37,-70.39,-991.49,280.0,-647.50,-227.50,1,94.322,
01/01/2000,01:37:47.79,15.25,-70.64,-991.37,201.25,-691.25,-385.0,1,94.241,
01/01/2000,01:37:47.80,15.13,-70.27,-991.37,131.25,-700.0,-402.50,1,94.247,
01/01/2000,01:37:47.81,15.01,-70.39,-991.13,271.25,-638.75,-315.0,1,94.252,
01/01/2000,01:37:47.82,14.88,-70.27,-991.25,157.50,-603.75,-367.50,1,94.257,
01/01/2000,01:37:47.83,14.88,-70.27,-991.37,227.50,-717.50,-315.0,1,94.262,
01/01/2000,01:37:47.84,15.01,-70.27,-991.25,78.75,-743.75,-297.50,1,94.268,
01/01/2000,01:37:47.86,14.88,-70.27,-991.25,26.25,-647.50,-455.0,1,94.273,
01/01/2000,01:37:47.87,15.01,-70.52,-991.25,210.0,-700.0,-201.25,1,94.278,
01/01/2000,01:37:47.88,15.01,-70.27,-991.49,210.0,-638.75,-376.25,1,94.283,
01/01/2000,01:37:47.89,15.13,-70.27,-991.74,140.0,-542.50,-288.75,1,94.288,
01/01/2000,01:37:47.90,15.13,-70.64,-991.74,166.25,-787.50,-341.25,1,94.293,
01/01/2000,01:37:47.91,14.88,-70.27,-991.62,78.75,-612.50,-236.25,1,94.299,
01/01/2000,01:37:47.92,15.01,-70.27,-991.25,105.0,-603.75,-323.75,1,94.304,
01/01/2000,01:37:47.93,14.88,-70.39,-991.37,210.0,-682.50,-218.75,1,94.224,
01/01/2000,01:37:47.94,15.01,-70.39,-991.37,-8.75,-717.50,-332.50,1,94.229,
01/01/2000,01:37:47.95,15.13,-70.39,-991.37,227.50,-752.50,-411.25,1,94.234,
01/01/2000,01:37:47.96,14.88,-70.52,-991.49,428.75,-577.50,-367.50,1,94.239,
01/01/2000,01:37:47.97,15.13,-70.27,-991.37,52.50,-603.75,-306.25,1,94.245,
01/01/2000,01:37:47.98,15.37,-70.52,-991.37,455.0,-682.50,-376.25,1,94.250,
01/01/2000,01:37:48.00,15.37,-70.15,-991.49,166.25,-726.25,-192.50,1,94.255,
01/01/2000,01:37:48.01,15.49,-70.52,-991.62,183.75,-656.25,-376.25,1,94.260,
01/01/2000,01:37:48.02,15.25,-70.03,-991.62,157.50,-656.25,-376.25,1,94.265,
01/01/2000,01:37:48.03,15.13,-70.03,-991.49,323.75,-682.50,-306.25,1,94.270,
01/01/2000,01:37:48.04,15.13,-70.03,-991.49,306.25,-665.0,-463.75,1,94.275,
01/01/2000,01:37:48.05,14.88,-69.91,-991.62,52.50,-700.0,-306.25,1,94.281,
01/01/2000,01:37:48.06,15.13,-70.27,-991.74,105.0,-778.75,-306.25,1,94.286,
01/01/2000,01:37:48.07,15.13,-70.15,-991.49,96.25,-752.50,-332.50,1,94.291,
01/01/2000,01:37:48.08,15.13,-70.03,-991.37,105.0,-752.50,-428.75,1,94.296,
01/01/2000,01:37:48.09,15.13,-70.27,-991.13,105.0,-717.50,-376.25,1,94.217,
01/01/2000,01:37:48.11,15.13,-70.27,-991.37,201.25,-682.50,-341.25,1,94.222,
01/01/2000,01:37:48.12,15.13,-70.15,-991.49,96.25,-778.75,-245.0,1,94.227,
01/01/2000,01:37:48.13,15.13,-70.27,-991.49,96.25,-656.25,-245.0,1,94.232,
01/01/2000,01:37:48.14,15.37,-70.39,-991.25,175.0,-700.0,-516.25,1,94.238,
01/01/2000,01:37:48.15,15.13,-70.52,-991.37,201.25,-805.0,-437.50,1,94.243,
01/01/2000,01:37:48.16,15.13,-70.52,-991.37,70.0,-656.25,-367.50,1,94.248,
01/01/2000,01:37:48.17,15.13,-70.52,-991.62,218.75,-726.25,-332.50,1,94.253,
01/01/2000,01:37:48.18,15.25,-70.27,-991.62,43.75,-752.50,-498.75,1,94.258,
01/01/2000,01:37:48.19,15.37,-70.27,-991.62,166.25,-726.25,-288.75,1,94.263,
01/01/2000,01:37:48.20,15.37,-70.39,-991.49,218.75,-752.50,-385.0,1,94.268,
01/01/2000,01:37:48.21,15.37,-70.52,-991.49,201.25,-752.50,-358.75,1,94.273,
01/01/2000,01:37:48.22,15.37,-70.76,-991.49,140.0,-708.75,-218.75,1,94.278,
01/01/2000,01:37:48.23,15.37,-70.76,-991.37,350.0,-647.50,-420.0,1,94.283,
01/01/2000,01:37:48.24,15.13,-70.39,-991.37,113.75,-700.0,-385.0,1,94.288,
01/01/2000,01:37:48.25,15.13,-70.39,-991.37,210.0,-735.0,-437.50,1,94.293,
01/01/2000,01:37:48.26,15.13,-70.39,-991.37,227.50,-796.25,-332.50,1,94.298,
01/01/2000,01:37:48.27,15.13,-70.52,-991.37,140.0,-682.50,-271.25,1,94.303,
01/01/2000,01:37:48.28,15.13,-70.64,-991.49,288.75,-638.75,-376.25,1,94.308,
01/01/2000,01:37:48.29,15.13,-70.52,-991.37,131.25,-595.0,-350.0,1,94.313,
01/01/2000,01:37:48.30,15.13,-70.64,-991.25,157.50,-761.25,-437.50,1,94.318,
01/01/2000,01:37:48.31,15.13,-70.52,-991.37,131.25,-682.50,-236.25,1,94.323,
01/01/2000,01:37:48.32,15.13,-70.52,-991.49,52.50,-673.75,-350.0,1,94.328,
01/01/2000,01:37:48.33,15.37,-70.76,-991.62,315.0,-726.25,-306.25,1,94.333,
01/01/2000,01:37:48.34,15.25,-70.64,-991.49,253.75,-577.50,-358.75,1,94.338,
01/01/2000,01:37:48.35,15.37,-70.52,-991.37,148.75,-726.25,-420.0,1,94.261,
01/01/2000,01:37:48.36,15.13,-70.52,-991.37,227.50,-682.50,-428.75,1,94.266,
01/01/2000,01:37:48.37,15.13,-70.15,-991.62,70.0,-778.75,-341.25,1,94.271,
01/01/2000,01:37:48.39,15.01,-70.27,-991.74,157.50,-656.25,-367.50,1,94.276,
01/01/2000,01:37:48.40,14.88,-70.39,-991.62,175.0,-621.25,-393.75,1,94.281,
01/01/2000,01:37:48.41,15.01,-70.39,-991.62,8.75,-603.75,-271.25,1,94.286,
01/01/2000,01:37:48.42,15.01,-70.52,-991.49,43.75,-726.25,-341.25,1,94.291,
01/01/2000,01:37:48.43,15.13,-70.39,-991.62,192.50,-603.75,-280.0,1,94.296,
01/01/2000,01:37:48.44,15.13,-70.52,-991.62,236.25,-665.0,-420.0,1,94.301,
01/01/2000,01:37:48.45,15.01,-70.52,-991.74,70.0,-691.25,-341.25,1,94.305,
01/01/2000,01:37:48.46,15.01,-70.52,-991.74,157.50,-595.0,-315.0,1,94.310,
01/01/2000,01:37:48.47,15.25,-70.76,-991.74,236.25,-691.25,-332.50,1,94.315,
01/01/2000,01:37:48.48,15.37,-70.39,-991.86,96.25,-708.75,-420.0,1,94.320,
01/01/2000,01:37:48.49,15.25,-70.27,-991.86,175.0,-691.25,-402.50,1,94.244,
01/01/2000,01:37:48.50,15.25,-70.27,-991.86,26.25,-630.0,-315.0,1,94.249,
01/01/2000,01:37:48.51,15.13,-70.27,-991.98,140.0,-630.0,-323.75,1,94.254,
01/01/2000,01:37:48.52,15.25,-70.52,-991.98,78.75,-673.75,-385.0,1,94.259,
01/01/2000,01:37:48.53,15.25,-70.52,-992.10,288.75,-621.25,-297.50,1,94.264,
01/01/2000,01:37:48.54,15.13,-70.52,-992.10,26.25,-586.25,-367.50,1,94.269,
01/01/2000,01:37:48.55,15.13,-70.52,-991.86,175.0,-568.75,-525.0,1,94.274,
01/01/2000,01:37:48.57,15.13,-70.64,-991.86,271.25,-761.25,-341.25,1,94.278,
01/01/2000,01:37:48.58,15.13,-70.64,-991.98,192.50,-726.25,-332.50,1,94.283,
01/01/2000,01:37:48.59,15.01,-70.64,-992.10,148.75,-682.50,-350.0,1,94.288,
01/01/2000,01:37:48.60,15.25,-70.76,-992.23,253.75,-717.50,-376.25,1,94.293,
01/01/2000,01:37:48.61,15.13,-70.39,-991.86,78.75,-700.0,-280.0,1,94.218,
01/01/2000,01:37:48.62,14.88,-70.39,-991.86,96.25,-805.0,-376.25,1,94.223,
01/01/2000,01:37:48.63,15.01,-70.27,-991.86,166.25,-656.25,-323.75,1,94.228,
01/01/2000,01:37:48.64,15.13,-70.52,-991.86,280.0,-700.0,-420.0,1,94.232,
01/01/2000,01:37:48.65,15.01,-70.52,-991.86,105.0,-726.25,-297.50,1,94.237,
01/01/2000,01:37:48.66,15.01,-70.39,-991.74,113.75,-726.25,-393.75,1,94.242,
01/01/2000,01:37:48.67,15.13,-70.64,-991.49,96.25,-560.0,-516.25,1,94.247,
01/01/2000,01:37:48.68,15.13,-70.64,-991.49,148.75,-691.25,-288.75,1,94.252,
01/01/2000,01:37:48.69,15.13,-70.64,-991.62,166.25,-743.75,-358.75,1,94.257,
01/01/2000,01:37:48.71,15.13,-70.52,-991.74,-26.25,-735.0,-332.50,1,94.262,
01/01/2000,01:37:48.72,15.01,-70.64,-991.86,253.75,-665.0,-332.50,1,94.266,
01/01/2000,01:37:48.73,15.01,-70.64,-991.62,131.25,-691.25,-306.25,1,94.271,
01/01/2000,01:37:48.74,15.01,-70.64,-991.49,122.50,-717.50,-358.75,1,94.276,
01/01/2000,01:37:48.75,15.25,-70.76,-991.49,166.25,-726.25,-350.0,1,94.281,
01/01/2000,01:37:48.76,15.37,-70.76,-991.49,131.25,-700.0,-323.75,1,94.286,
01/01/2000,01:37:48.77,15.25,-70.52,-991.62,271.25,-708.75,-393.75,1,94.291,
01/01/2000,01:37:48.78,15.37,-70.39,-991.74,192.50,-656.25,-367.50,1,94.295,
01/01/2000,01:37:48.79,15.25,-70.39,-991.74,297.50,-682.50,-358.75,1,94.300,
01/01/2000,01:37:48.80,15.25,-70.39,-991.74,175.0,-796.25,-271.25,1,94.305,
01/01/2000,01:37:48.81,15.37,-70.39,-991.62,323.75,-822.50,-341.25,1,94.310,
01/01/2000,01:37:48.82,15.25,-70.52,-991.74,157.50,-848.75,-297.50,1,94.314,
01/01/2000,01:37:48.83,15.13,-70.52,-991.49,210.0,-630.0,-358.75,1,94.319,
01/01/2000,01:37:48.84,15.01,-70.52,-991.37,227.50,-726.25,-306.25,1,94.245,
01/01/2000,01:37:48.85,15.01,-70.27,-991.62,-26.25,-752.50,-280.0,1,94.250,
01/01/2000,01:37:48.86,15.13,-70.27,-991.62,87.50,-717.50,-341.25,1,94.255,
01/01/2000,01:37:48.87,15.13,-70.15,-991.62,218.75,-700.0,-350.0,1,94.260,
01/01/2000,01:37:48.88,15.13,-70.27,-991.49,-52.50,-700.0,-192.50,1,94.264,
01/01/2000,01:37:48.89,15.13,-70.64,-991.49,350.0,-621.25,-376.25,1,94.269,
01/01/2000,01:37:48.90,15.13,-70.64,-991.62,122.50,-586.25,-420.0,1,94.274,
01/01/2000,01:37:48.92,15.13,-70.39,-991.74,96.25,-752.50,-297.50,1,94.279,
01/01/2000,01:37:48.93,15.01,-70.39,-991.74,262.50,-682.50,-306.25,1,94.283,
01/01/2000,01:37:48.94,14.88,-70.39,-991.74,113.75,-647.50,-297.50,1,94.288,
01/01/2000,01:37:48.95,14.88,-70.52,-991.74,192.50,-735.0,-288.75,1,94.293,
01/01/2000,01:37:48.96,15.01,-70.52,-991.74,306.25,-761.25,-376.25,1,94.298,
01/01/2000,01:37:48.97,15.13,-70.39,-991.62,166.25,-743.75,-376.25,1,94.302,
01/01/2000,01:37:48.98,15.01,-70.27,-991.62,218.75,-665.0,-393.75,1,94.229,
01/01/2000,01:37:48.99,14.88,-70.27,-991.49,323.75,-603.75,-420.0,1,94.234,
01/01/2000,01:37:49.00,15.01,-70.03,-991.37,26.25,-735.0,-262.50,1,94.239,
01/01/2000,01:37:49.01,15.13,-70.27,-991.62,192.50,-691.25,-350.0,1,94.243,
01/01/2000,01:37:49.02,15.13,-70.27,-991.62,210.0,-673.75,-385.0,1,94.248,
01/01/2000,01:37:49.03,15.25,-70.27,-991.62,148.75,-603.75,-315.0,1,94.253,
01/01/2000,01:37:49.04,15.25,-70.15,-991.62,140.0,-621.25,-385.0,1,94.258,
01/01/2000,01:37:49.06,15.13,-70.27,-991.62,280.0,-691.25,-393.75,1,94.262,
01/01/2000,01:37:49.07,15.25,-70.03,-991.86,78.75,-612.50,-358.75,1,94.267,
01/01/2000,01:37:49.08,15.37,-70.15,-991.86,131.25,-630.0,-271.25,1,94.272,
01/01/2000,01:37:49.09,15.25,-70.03,-991.98,148.75,-665.0,-367.50,1,94.276,
01/01/2000,01:37:49.10,15.37,-70.27,-991.74,183.75,-673.75,-323.75,1,94.281,
01/01/2000,01:37:49.11,15.13,-70.27,-991.37,227.50,-813.75,-297.50,1,94.286,
01/01/2000,01:37:49.12,15.25,-70.27,-991.37,175.0,-691.25,-481.25,1,94.290,
01/01/2000,01:37:49.13,15.13,-70.27,-991.62,131.25,-717.50,-358.75,1,94.218,
01/01/2000,01:37:49.14,15.13,-70.39,-991.62,35.0,-735.0,-350.0,1,94.223,
01/01/2000,01:37:49.15,15.13,-70.39,-991.49,148.75,-638.75,-262.50,1,94.228,
01/01/2000,01:37:49.16,15.01,-70.52,-991.37,236.25,-691.25,-323.75,1,94.232,
01/01/2000,01:37:49.17,15.13,-70.27,-991.49,157.50,-682.50,-446.25,1,94.237,
01/01/2000,01:37:49.18,15.25,-70.39,-991.62,323.75,-656.25,-332.50,1,94.242,
01/01/2000,01:37:49.20,15.37,-70.39,-991.86,87.50,-638.75,-358.75,1,94.246,
01/01/2000,01:37:49.21,15.13,-70.52,-991.74,157.50,-682.50,-437.50,1,94.251,
01/01/2000,01:37:49.22,15.25,-70.64,-991.49,87.50,-673.75,-306.25,1,94.256,
01/01/2000,01:37:49.23,15.37,-70.52,-991.49,201.25,-621.25,-332.50,1,94.260,
01/01/2000,01:37:49.24,15.37,-70.64,-991.62,140.0,-700.0,-350.0,1,94.265,
01/01/2000,01:37:49.25,15.37,-70.52,-991.62,218.75,-735.0,-323.75,1,94.270,
01/01/2000,01:37:49.26,15.49,-70.52,-991.62,201.25,-717.50,-271.25,1,94.274,
01/01/2000,01:37:49.27,15.37,-70.64,-991.62,183.75,-673.75,-358.75,1,94.279,
01/01/2000,01:37:49.28,15.25,-70.52,-991.62,166.25,-612.50,-437.50,1,94.283,
01/01/2000,01:37:49.29,15.37,-70.64,-991.62,236.25,-700.0,-420.0,1,94.288,
01/01/2000,01:37:49.30,15.37,-70.52,-991.86,201.25,-761.25,-428.75,1,94.293,
01/01/2000,01:37:49.31,15.37,-70.64,-991.86,201.25,-682.50,-315.0,1,94.297,
01/01/2000,01:37:49.32,15.25,-70.52,-991.74,17.50,-700.0,-376.25,1,94.302,
01/01/2000,01:37:49.33,15.13,-70.64,-991.74,227.50,-778.75,-341.25,1,94.306,
01/01/2000,01:37:49.34,15.13,-70.64,-991.62,87.50,-752.50,-393.75,1,94.311,
01/01/2000,01:37:49.35,15.25,-70.52,-991.62,201.25,-691.25,-385.0,1,94.315,
01/01/2000,01:37:49.36,15.13,-70.64,-991.86,201.25,-726.25,-323.75,1,94.320,
01/01/2000,01:37:49.37,15.13,-70.52,-991.74,-26.25,-656.25,-341.25,1,94.325,
01/01/2000,01:37:49.38,15.13,-70.64,-991.74,227.50,-743.75,-306.25,1,94.329,
01/01/2000,01:37:49.39,15.13,-70.52,-991.74,175.0,-665.0,-341.25,1,94.334,
01/01/2000,01:37:49.41,15.25,-70.52,-991.86,157.50,-735.0,-358.75,1,94.263,
01/01/2000,01:37:49.42,15.13,-70.52,-992.10,227.50,-708.75,-297.50,1,94.268,
01/01/2000,01:37:49.43,15.01,-70.39,-991.98,148.75,-752.50,-411.25,1,94.272,
01/01/2000,01:37:49.44,15.13,-70.64,-991.98,227.50,-840.0,-385.0,1,94.277,
01/01/2000,01:37:49.45,15.13,-70.52,-991.98,288.75,-708.75,-402.50,1,94.281,
01/01/2000,01:37:49.46,15.25,-70.64,-991.86,96.25,-805.0,-358.75,1,94.286,
01/01/2000,01:37:49.47,15.37,-70.52,-991.86,183.75,-708.75,-332.50,1,94.290,
01/01/2000,01:37:49.48,15.25,-70.39,-991.74,262.50,-673.75,-393.75,1,94.295,
01/01/2000,01:37:49.49,15.37,-70.27,-991.74,87.50,-778.75,-323.75,1,94.299,
01/01/2000,01:37:49.50,15.25,-70.27,-991.74,70.0,-813.75,-297.50,1,94.304,
01/01/2000,01:37:49.51,15.25,-70.52,-991.62,148.75,-735.0,-428.75,1,94.308,
01/01/2000,01:37:49.52,15.13,-70.52,-991.62,183.75,-726.25,-280.0,1,94.313,
01/01/2000,01:37:49.53,15.01,-70.27,-991.62,227.50,-621.25,-402.50,1,94.317,
01/01/2000,01:37:49.54,15.13,-70.39,-991.62,166.25,-743.75,-411.25,1,94.322,
01/01/2000,01:37:49.55,15.01,-70.15,-991.62,131.25,-542.50,-376.25,1,94.252,
01/01/2000,01:37:49.56,15.13,-70.39,-991.49,148.75,-595.0,-350.0,1,94.256,
01/01/2000,01:37:49.57,15.13,-70.15,-991.62,175.0,-665.0,-350.0,1,94.261,
01/01/2000,01:37:49.58,15.13,-70.39,-991.62,70.0,-761.25,-288.75,1,94.266,
01/01/2000,01:37:49.59,15.25,-70.27,-991.62,271.25,-595.0,-428.75,1,94.270,
01/01/2000,01:37:49.60,15.25,-70.27,-991.62,61.25,-665.0,-367.50,1,94.275,
01/01/2000,01:37:49.62,15.25,-70.39,-991.74,227.50,-665.0,-236.25,1,94.279,
01/01/2000,01:37:49.63,15.13,-70.15,-991.74,201.25,-647.50,-385.0,1,94.210,
01/01/2000,01:37:49.64,15.13,-70.27,-991.62,192.50,-726.25,-393.75,1,94.214,
01/01/2000,01:37:49.65,15.13,-70.27,-991.49,113.75,-682.50,-376.25,1,94.219,
01/01/2000,01:37:49.66,15.13,-70.27,-991.49,122.50,-682.50,-350.0,1,94.223,
01/01/2000,01:37:49.67,15.13,-70.39,-991.62,183.75,-743.75,-271.25,1,94.228,
01/01/2000,01:37:49.68,15.01,-70.27,-991.74,52.50,-682.50,-358.75,1,94.232,
01/01/2000,01:37:49.69,15.13,-70.39,-991.74,210.0,-752.50,-262.50,1,94.237,
01/01/2000,01:37:49.71,15.13,-70.27,-991.62,323.75,-577.50,-367.50,1,94.241,
01/01/2000,01:37:49.72,15.13,-70.27,-991.62,131.25,-778.75,-227.50,1,94.246,
01/01/2000,01:37:49.73,15.13,-70.15,-991.62,96.25,-770.0,-358.75,1,94.250,
01/01/2000,01:37:49.74,15.25,-70.27,-991.62,393.75,-752.50,-420.0,1,94.255,
01/01/2000,01:37:49.75,15.13,-70.27,-991.86,157.50,-568.75,-280.0,1,94.259,
01/01/2000,01:37:49.76,15.25,-70.27,-991.74,245.0,-796.25,-481.25,1,94.264,
01/01/2000,01:37:49.77,15.13,-70.03,-991.74,227.50,-700.0,-271.25,1,94.268,
01/01/2000,01:37:49.78,15.37,-70.27,-991.62,183.75,-647.50,-341.25,1,94.272,
01/01/2000,01:37:49.79,15.37,-70.39,-991.62,227.50,-656.25,-350.0,1,94.277,
01/01/2000,01:37:49.80,15.25,-70.03,-991.62,78.75,-682.50,-323.75,1,94.281,
01/01/2000,01:37:49.81,15.13,-70.27,-991.62,245.0,-682.50,-297.50,1,94.286,
01/01/2000,01:37:49.82,15.37,-70.03,-991.62,288.75,-647.50,-350.0,1,94.290,
01/01/2000,01:37:49.83,15.49,-70.03,-991.62,148.75,-586.25,-481.25,1,94.295,
01/01/2000,01:37:49.84,15.37,-69.78,-991.62,131.25,-700.0,-280.0,1,94.299,
01/01/2000,01:37:49.85,15.37,-70.15,-991.62,253.75,-630.0,-393.75,1,94.303,
01/01/2000,01:37:49.86,15.37,-70.15,-991.49,17.50,-726.25,-315.0,1,94.308,
01/01/2000,01:37:49.87,15.37,-70.27,-991.49,26.25,-656.25,-306.25,1,94.312,
01/01/2000,01:37:49.88,15.37,-70.15,-991.62,113.75,-700.0,-323.75,1,94.316,
01/01/2000,01:37:49.89,15.62,-70.15,-991.62,183.75,-726.25,-332.50,1,94.321,
01/01/2000,01:37:49.91,15.37,-69.78,-991.62,-43.75,-700.0,-166.25,1,94.253,
01/01/2000,01:37:49.92,15.37,-70.15,-991.62,113.75,-612.50,-481.25,1,94.257,
01/01/2000,01:37:49.93,15.49,-70.52,-991.74,253.75,-568.75,-297.50,1,94.262,
01/01/2000,01:37:49.94,15.49,-70.52,-991.62,96.25,-752.50,-437.50,1,94.266,
01/01/2000,01:37:49.95,15.62,-70.39,-991.62,113.75,-603.75,-280.0,1,94.270,
01/01/2000,01:37:49.96,15.49,-70.52,-991.49,236.25,-691.25,-446.25,1,94.275,
01/01/2000,01:37:49.97,15.25,-70.27,-991.49,297.50,-673.75,-367.50,1,94.207,
01/01/2000,01:37:49.98,15.25,-70.15,-991.62,8.75,-700.0,-323.75,1,94.212,
01/01/2000,01:37:49.99,15.13,-70.27,-991.62,175.0,-682.50,-332.50,1,94.216,
01/01/2000,01:37:50.00,15.13,-70.15,-991.62,166.25,-586.25,-323.75,1,94.221,
01/01/2000,01:37:50.01,15.25,-70.52,-991.49,201.25,-630.0,-358.75,1,94.225,
01/01/2000,01:37:50.02,15.01,-70.27,-991.49,227.50,-708.75,-253.75,1,94.229,
01/01/2000,01:37:50.03,15.13,-70.03,-991.62,131.25,-656.25,-358.75,1,94.234,
01/01/2000,01:37:50.05,15.01,-70.03,-991.74,87.50,-673.75,-157.50,1,94.238,
01/01/2000,01:37:50.06,15.13,-70.15,-991.62,87.50,-603.75,-367.50,1,94.242,
01/01/2000,01:37:50.07,15.13,-70.39,-991.49,253.75,-726.25,-446.25,1,94.247,
01/01/2000,01:37:50.08,15.01,-70.27,-991.37,175.0,-700.0,-402.50,1,94.251,
01/01/2000,01:37:50.09,15.25,-70.52,-991.25,227.50,-691.25,-376.25,1,94.255,
01/01/2000,01:37:50.10,15.13,-70.39,-991.62,245.0,-551.25,-367.50,1,94.260,
01/01/2000,01:37:50.11,15.13,-70.27,-991.86,87.50,-700.0,-385.0,1,94.264,
01/01/2000,01:37:50.12,15.13,-70.39,-991.74,253.75,-656.25,-455.0,1,94.268,
01/01/2000,01:37:50.13,15.13,-70.27,-991.49,52.50,-796.25,-280.0,1,94.202,
01/01/2000,01:37:50.15,15.25,-70.39,-991.37,271.25,-612.50,-341.25,1,94.206,
01/01/2000,01:37:50.16,15.13,-70.27,-991.62,26.25,-761.25,-245.0,1,94.211,
01/01/2000,01:37:50.17,15.13,-70.15,-991.86,201.25,-787.50,-420.0,1,94.215,
01/01/2000,01:37:50.18,14.88,-70.39,-991.86,175.0,-700.0,-306.25,1,94.219,
01/01/2000,01:37:50.19,14.88,-70.15,-991.62,61.25,-735.0,-393.75,1,94.224,
01/01/2000,01:37:50.20,15.01,-70.27,-991.37,218.75,-638.75,-280.0,1,94.228,
01/01/2000,01:37:50.21,15.13,-70.15,-991.37,218.75,-647.50,-332.50,1,94.232,
01/01/2000,01:37:50.22,15.13,-70.27,-991.49,61.25,-691.25,-332.50,1,94.237,
01/01/2000,01:37:50.23,15.13,-70.39,-991.37,131.25,-717.50,-341.25,1,94.241,
01/01/2000,01:37:50.24,15.13,-70.39,-991.49,227.50,-700.0,-367.50,1,94.245,
01/01/2000,01:37:50.25,15.13,-70.15,-991.49,17.50,-560.0,-385.0,1,94.249,
01/01/2000,01:37:50.26,15.37,-70.15,-991.49,140.0,-708.75,-236.25,1,94.254,
01/01/2000,01:37:50.27,15.37,-70.03,-991.37,166.25,-717.50,-262.50,1,94.258,
01/01/2000,01:37:50.28,15.37,-70.39,-991.37,192.50,-656.25,-288.75,1,94.262,
01/01/2000,01:37:50.29,15.37,-70.52,-991.25,218.75,-717.50,-376.25,1,94.267,
01/01/2000,01:37:50.30,15.37,-70.39,-991.37,166.25,-735.0,-490.0,1,94.271,
01/01/2000,01:37:50.31,15.37,-70.27,-991.37,78.75,-595.0,-315.0,1,94.275,
01/01/2000,01:37:50.32,15.25,-70.27,-991.37,157.50,-647.50,-332.50,1,94.279,
01/01/2000,01:37:50.33,15.25,-70.27,-991.37,315.0,-630.0,-393.75,1,94.214,
01/01/2000,01:37:50.34,15.25,-70.39,-991.37,262.50,-621.25,-411.25,1,94.218,
01/01/2000,01:37:50.35,15.25,-70.39,-991.49,96.25,-770.0,-315.0,1,94.222,
01/01/2000,01:37:50.36,15.13,-70.39,-991.49,210.0,-761.25,-420.0,1,94.227,
01/01/2000,01:37:50.37,15.13,-70.03,-991.37,122.50,-682.50,-332.50,1,94.231,
01/01/2000,01:37:50.38,15.13,-70.27,-991.13,385.0,-735.0,-332.50,1,94.235,
01/01/2000,01:37:50.40,15.01,-70.39,-991.25,323.75,-735.0,-236.25,1,94.239,
01/01/2000,01:37:50.41,14.88,-70.27,-991.37,280.0,-700.0,-315.0,1,94.244,
01/01/2000,01:37:50.42,15.13,-70.39,-991.25,297.50,-682.50,-525.0,1,94.248,
01/01/2000,01:37:50.43,15.01,-70.27,-991.25,70.0,-691.25,-393.75,1,94.252,
01/01/2000,01:37:50.44,15.01,-70.27,-991.13,105.0,-708.75,-446.25,1,94.256,
01/01/2000,01:37:50.45,15.25,-70.39,-991.13,245.0,-691.25,-323.75,1,94.260,
01/01/2000,01:37:50.46,15.13,-70.27,-991.37,192.50,-752.50,-253.75,1,94.265,
01/01/2000,01:37:50.47,14.88,-70.15,-991.62,131.25,-673.75,-437.50,1,94.269,
01/01/2000,01:37:50.48,15.01,-70.27,-991.49,201.25,-717.50,-367.50,1,94.273,
01/01/2000,01:37:50.49,15.01,-70.15,-991.37,70.0,-735.0,-218.75,1,94.277,
01/01/2000,01:37:50.50,15.01,-70.27,-991.37,148.75,-665.0,-358.75,1,94.282,
01/01/2000,01:37:50.51,15.13,-70.27,-991.37,218.75,-595.0,-358.75,1,94.286,
01/01/2000,01:37:50.52,15.25,-70.27,-991.62,262.50,-708.75,-367.50,1,94.290,
01/01/2000,01:37:50.53,15.25,-70.15,-991.62,-70.0,-708.75,-350.0,1,94.294,
01/01/2000,01:37:50.55,15.13,-70.15,-991.62,70.0,-717.50,-332.50,1,94.229,
01/01/2000,01:37:50.56,15.13,-70.27,-991.62,166.25,-726.25,-280.0,1,94.234,
01/01/2000,01:37:50.57,15.13,-70.39,-991.49,175.0,-656.25,-297.50,1,94.238,
01/01/2000,01:37:50.58,15.13,-70.52,-991.49,201.25,-735.0,-420.0,1,94.242,
01/01/2000,01:37:50.59,15.13,-70.52,-991.37,157.50,-673.75,-358.75,1,94.246,
01/01/2000,01:37:50.60,15.13,-70.39,-991.37,157.50,-708.75,-271.25,1,94.250,
01/01/2000,01:37:50.61,15.13,-70.15,-991.49,218.75,-621.25,-341.25,1,94.255,
01/01/2000,01:37:50.62,15.13,-70.15,-991.49,166.25,-656.25,-271.25,1,94.259,
01/01/2000,01:37:50.63,15.25,-70.39,-991.37,166.25,-682.50,-367.50,1,94.263,
01/01/2000,01:37:50.65,15.01,-70.27,-991.37,175.0,-638.75,-385.0,1,94.199,
01/01/2000,01:37:50.66,14.76,-70.15,-991.25,157.50,-700.0,-411.25,1,94.203,
01/01/2000,01:37:50.67,15.01,-70.03,-991.37,227.50,-717.50,-385.0,1,94.207,
01/01/2000,01:37:50.68,15.13,-70.03,-991.37,201.25,-743.75,-428.75,1,94.211,
01/01/2000,01:37:50.69,15.01,-70.27,-991.37,262.50,-761.25,-393.75,1,94.215,
01/01/2000,01:37:50.70,15.01,-70.52,-991.49,87.50,-621.25,-367.50,1,94.220,
01/01/2000,01:37:50.71,15.01,-70.52,-991.49,288.75,-673.75,-280.0,1,94.224,
01/01/2000,01:37:50.72,15.01,-70.39,-991.62,253.75,-682.50,-385.0,1,94.228,
01/01/2000,01:37:50.73,15.01,-70.15,-991.37,271.25,-761.25,-262.50,1,94.232,
01/01/2000,01:37:50.74,15.01,-70.27,-991.37,113.75,-743.75,-323.75,1,94.236,
01/01/2000,01:37:50.75,14.88,-70.27,-991.37,183.75,-665.0,-157.50,1,94.240,
01/01/2000,01:37:50.76,14.88,-70.39,-991.37,262.50,-700.0,-323.75,1,94.245,
01/01/2000,01:37:50.77,14.88,-70.27,-991.37,210.0,-848.75,-306.25,1,94.249,
01/01/2000,01:37:50.78,15.01,-70.15,-991.37,192.50,-682.50,-367.50,1,94.253,
01/01/2000,01:37:50.79,15.13,-70.03,-991.37,96.25,-673.75,-236.25,1,94.257,
01/01/2000,01:37:50.80,15.01,-70.03,-991.13,122.50,-673.75,-227.50,1,94.261,
01/01/2000,01:37:50.81,14.88,-70.15,-991.13,271.25,-656.25,-411.25,1,94.265,
01/01/2000,01:37:50.83,14.88,-70.15,-991.25,245.0,-700.0,-455.0,1,94.202,
01/01/2000,01:37:50.84,15.01,-70.15,-991.25,70.0,-682.50,-411.25,1,94.206,
01/01/2000,01:37:50.85,15.01,-70.27,-991.25,96.25,-673.75,-306.25,1,94.210,
01/01/2000,01:37:50.86,15.01,-70.15,-991.13,113.75,-752.50,-341.25,1,94.214,
01/01/2000,01:37:50.87,15.01,-70.15,-991.25,96.25,-778.75,-332.50,1,94.218,
01/01/2000,01:37:50.88,15.01,-70.27,-991.49,70.0,-665.0,-271.25,1,94.223,
01/01/2000,01:37:50.89,15.01,-70.52,-991.49,245.0,-682.50,-297.50,1,94.227,
01/01/2000,01:37:50.90,15.01,-70.39,-991.49,192.50,-577.50,-428.75,1,94.231,
01/01/2000,01:37:50.91,15.13,-70.27,-991.37,323.75,-682.50,-393.75,1,94.235,
01/01/2000,01:37:50.92,15.13,-70.15,-991.37,157.50,-752.50,-350.0,1,94.239,
01/01/2000,01:37:50.93,15.13,-70.03,-991.49,166.25,-743.75,-376.25,1,94.243,
01/01/2000,01:37:50.94,15.13,-70.15,-991.37,175.0,-822.50,-323.75,1,94.247,
01/01/2000,01:37:50.95,15.01,-70.27,-991.37,175.0,-770.0,-288.75,1,94.251,
01/01/2000,01:37:50.96,15.01,-70.27,-991.37,166.25,-708.75,-218.75,1,94.189,
01/01/2000,01:37:50.97,15.13,-70.52,-991.37,175.0,-717.50,-271.25,1,94.193,
01/01/2000,01:37:50.98,15.13,-70.27,-991.62,175.0,-770.0,-332.50,1,94.197,
01/01/2000,01:37:50.99,15.13,-70.15,-991.62,166.25,-603.75,-262.50,1,94.201,
01/01/2000,01:37:51.00,15.13,-70.27,-991.62,183.75,-612.50,-245.0,1,94.205,
01/01/2000,01:37:51.01,15.13,-70.27,-991.49,175.0,-700.0,-393.75,1,94.209,
01/01/2000,01:37:51.02,14.88,-70.27,-991.49,166.25,-726.25,-385.0,1,94.213,
01/01/2000,01:37:51.04,15.13,-70.27,-991.37,87.50,-691.25,-428.75,1,94.217,
01/01/2000,01:37:51.05,15.01,-70.27,-991.37,192.50,-813.75,-315.0,1,94.221,
01/01/2000,01:37:51.06,15.01,-70.27,-991.49,87.50,-761.25,-393.75,1,94.225,
01/01/2000,01:37:51.07,15.13,-70.39,-991.37,201.25,-726.25,-288.75,1,94.229,
01/01/2000,01:37:51.08,15.01,-70.27,-991.37,35.0,-761.25,-437.50,1,94.233,
01/01/2000,01:37:51.09,15.13,-70.27,-991.37,201.25,-761.25,-332.50,1,94.238,
01/01/2000,01:37:51.10,15.13,-70.27,-991.37,201.25,-717.50,-463.75,1,94.242,
01/01/2000,01:37:51.11,15.37,-70.27,-991.37,297.50,-761.25,-376.25,1,94.180,
01/01/2000,01:37:51.12,15.25,-70.03,-991.37,131.25,-621.25,-376.25,1,94.250,
01/01/2000,01:37:51.13,15.25,-70.27,-991.49,175.0,-717.50,-437.50,1,94.188,
01/01/2000,01:37:51.14,15.25,-70.15,-991.62,148.75,-665.0,-306.25,1,94.192,
01/01/2000,01:37:51.16,15.25,-70.27,-991.49,43.75,-717.50,-323.75,1,94.196,
01/01/2000,01:37:51.17,15.37,-70.27,-991.49,131.25,-673.75,-332.50,1,94.200,
01/01/2000,01:37:51.18,15.13,-70.03,-991.25,297.50,-883.75,-315.0,1,94.204,
01/01/2000,01:37:51.19,15.25,-70.27,-991.37,183.75,-752.50,-437.50,1,94.208,
01/01/2000,01:37:51.20,15.25,-70.27,-991.37,122.50,-726.25,-315.0,1,94.212,
01/01/2000,01:37:51.21,15.13,-70.27,-991.62,43.75,-560.0,-358.75,1,94.216,
01/01/2000,01:37:51.22,15.13,-70.27,-991.37,17.50,-682.50,-332.50,1,94.220,
01/01/2000,01:37:51.23,15.13,-70.27,-991.13,245.0,-682.50,-315.0,1,94.224,
01/01/2000,01:37:51.24,15.25,-70.27,-991.13,148.75,-700.0,-323.75,1,94.228,
01/01/2000,01:37:51.25,15.37,-70.27,-991.37,52.50,-656.25,-306.25,1,94.232,
01/01/2000,01:37:51.26,15.37,-70.27,-991.37,113.75,-577.50,-262.50,1,94.236,
01/01/2000,01:37:51.27,15.25,-70.27,-991.25,166.25,-761.25,-420.0,1,94.240,
01/01/2000,01:37:51.28,15.13,-70.27,-991.01,131.25,-708.75,-323.75,1,94.244,
01/01/2000,01:37:51.29,15.13,-70.15,-991.01,96.25,-813.75,-262.50,1,94.248,
01/01/2000,01:37:51.30,15.25,-70.15,-990.88,70.0,-796.25,-446.25,1,94.252,
01/01/2000,01:37:51.31,15.37,-70.52,-990.88,148.75,-603.75,-306.25,1,94.256,
01/01/2000,01:37:51.33,14.88,-70.39,-990.88,-52.50,-691.25,-218.75,1,94.195,
01/01/2000,01:37:51.34,14.88,-70.27,-990.88,157.50,-630.0,-428.75,1,94.199,
01/01/2000,01:37:51.35,14.88,-70.27,-991.01,218.75,-761.25,-420.0,1,94.203,
01/01/2000,01:37:51.36,14.88,-70.03,-991.37,131.25,-691.25,-280.0,1,94.207,
01/01/2000,01:37:51.37,14.88,-70.39,-991.37,210.0,-752.50,-393.75,1,94.211,
01/01/2000,01:37:51.38,14.88,-70.27,-991.25,113.75,-735.0,-350.0,1,94.215,
01/01/2000,01:37:51.39,14.88,-70.52,-991.01,218.75,-735.0,-385.0,1,94.219,
01/01/2000,01:37:51.40,15.01,-70.27,-991.13,122.50,-542.50,-411.25,1,94.223,
01/01/2000,01:37:51.41,15.01,-70.15,-991.25,236.25,-638.75,-393.75,1,94.227,
01/01/2000,01:37:51.42,15.25,-70.15,-991.49,26.25,-682.50,-323.75,1,94.231,
01/01/2000,01:37:51.43,15.13,-70.39,-991.37,262.50,-726.25,-210.0,1,94.235,
01/01/2000,01:37:51.44,15.13,-70.52,-991.13,140.0,-700.0,-490.0,1,94.239,
01/01/2000,01:37:51.45,15.13,-70.76,-991.01,280.0,-673.75,-411.25,1,94.243,
01/01/2000,01:37:51.46,15.37,-70.52,-991.13,61.25,-673.75,-446.25,1,94.182,
01/01/2000,01:37:51.47,15.25,-70.52,-991.25,341.25,-761.25,-236.25,1,94.186,
01/01/2000,01:37:51.48,15.01,-70.52,-991.13,218.75,-717.50,-288.75,1,94.190,
01/01/2000,01:37:51.49,14.76,-70.52,-991.13,157.50,-717.50,-332.50,1,94.194,
01/01/2000,01:37:51.50,14.76,-70.39,-991.13,-52.50,-612.50,-341.25,1,94.198,
01/01/2000,01:37:51.51,14.88,-70.52,-991.13,271.25,-630.0,-376.25,1,94.202,
01/01/2000,01:37:51.52,15.13,-70.39,-991.13,52.50,-761.25,-271.25,1,94.206,
01/01/2000,01:37:51.54,15.01,-70.15,-991.13,8.75,-717.50,-323.75,1,94.210,
01/01/2000,01:37:51.55,15.01,-70.52,-991.13,61.25,-603.75,-227.50,1,94.214,
01/01/2000,01:37:51.56,15.01,-70.52,-991.13,253.75,-691.25,-437.50,1,94.218,
01/01/2000,01:37:51.57,15.13,-70.52,-991.13,166.25,-691.25,-376.25,1,94.222,
01/01/2000,01:37:51.58,15.25,-70.52,-991.37,288.75,-691.25,-376.25,1,94.226,
01/01/2000,01:37:51.59,15.25,-70.52,-991.37,183.75,-630.0,-332.50,1,94.229,
01/01/2000,01:37:51.60,15.37,-70.52,-991.62,236.25,-761.25,-393.75,1,94.233,
01/01/2000,01:37:51.61,15.37,-70.52,-991.62,183.75,-761.25,-271.25,1,94.237,
01/01/2000,01:37:51.62,15.13,-70.27,-991.62,201.25,-682.50,-420.0,1,94.241,
01/01/2000,01:37:51.63,15.25,-70.52,-991.62,192.50,-656.25,-271.25,1,94.245,
01/01/2000,01:37:51.64,15.25,-70.39,-991.49,140.0,-673.75,-428.75,1,94.185,
01/01/2000,01:37:51.65,15.13,-70.52,-991.49,218.75,-647.50,-323.75,1,94.189,
01/01/2000,01:37:51.67,15.25,-70.52,-991.37,210.0,-691.25,-288.75,1,94.193,
01/01/2000,01:37:51.68,15.13,-70.39,-991.37,70.0,-708.75,-358.75,1,94.197,
01/01/2000,01:37:51.69,15.13,-70.64,-991.25,341.25,-822.50,-455.0,1,94.201,
01/01/2000,01:37:51.70,15.25,-70.39,-991.25,-61.25,-673.75,-350.0,1,94.205,
01/01/2000,01:37:51.71,15.13,-70.52,-991.13,148.75,-796.25,-288.75,1,94.209,
01/01/2000,01:37:51.72,15.25,-70.52,-991.13,183.75,-700.0,-236.25,1,94.149,
01/01/2000,01:37:51.73,15.13,-70.64,-991.25,192.50,-691.25,-358.75,1,94.217,
01/01/2000,01:37:51.74,15.25,-70.76,-991.37,402.50,-691.25,-428.75,1,94.157,
01/01/2000,01:37:51.75,15.37,-70.64,-991.25,271.25,-778.75,-236.25,1,94.161,
01/01/2000,01:37:51.76,15.37,-70.39,-991.25,96.25,-761.25,-402.50,1,94.165,
01/01/2000,01:37:51.77,15.37,-70.64,-991.25,262.50,-691.25,-411.25,1,94.169,
01/01/2000,01:37:51.78,15.37,-70.39,-991.25,70.0,-682.50,-306.25,1,94.173,
01/01/2000,01:37:51.79,15.25,-70.52,-991.37,52.50,-708.75,-271.25,1,94.177,
01/01/2000,01:37:51.80,15.37,-70.64,-991.37,166.25,-743.75,-420.0,1,94.181,
01/01/2000,01:37:51.81,15.13,-70.27,-991.37,201.25,-700.0,-262.50,1,94.184,
01/01/2000,01:37:51.83,15.13,-70.39,-991.13,157.50,-665.0,-428.75,1,94.188,
01/01/2000,01:37:51.83,15.25,-70.52,-991.13,236.25,-700.0,-323.75,1,94.192,
01/01/2000,01:37:51.85,15.25,-70.52,-991.37,210.0,-717.50,-402.50,1,94.196,
01/01/2000,01:37:51.86,15.37,-70.76,-991.37,236.25,-630.0,-332.50,1,94.200,
01/01/2000,01:37:51.87,15.13,-70.39,-991.49,96.25,-726.25,-376.25,1,94.204,
01/01/2000,01:37:51.88,15.13,-70.52,-991.37,52.50,-673.75,-315.0,1,94.208,
01/01/2000,01:37:51.89,15.13,-70.27,-991.37,140.0,-700.0,-323.75,1,94.212,
01/01/2000,01:37:51.90,15.25,-70.27,-991.37,306.25,-752.50,-367.50,1,94.215,
01/01/2000,01:37:51.91,15.13,-70.39,-991.25,201.25,-700.0,-332.50,1,94.219,
01/01/2000,01:37:51.92,15.13,-70.52,-991.25,183.75,-682.50,-428.75,1,94.223,
01/01/2000,01:37:51.93,15.01,-70.52,-991.37,131.25,-770.0,-507.50,1,94.227,
01/01/2000,01:37:51.94,15.01,-70.27,-991.49,183.75,-726.25,-393.75,1,94.231,
01/01/2000,01:37:51.95,15.13,-70.27,-991.49,227.50,-735.0,-350.0,1,94.172,
01/01/2000,01:37:51.96,15.13,-70.39,-991.74,183.75,-735.0,-183.75,1,94.176,
01/01/2000,01:37:51.97,14.88,-70.52,-991.74,122.50,-743.75,-358.75,1,94.180,
01/01/2000,01:37:51.98,15.01,-70.88,-991.49,140.0,-717.50,-498.75,1,94.184,
01/01/2000,01:37:51.99,15.13,-70.64,-991.37,166.25,-708.75,-288.75,1,94.188,
01/01/2000,01:37:52.00,15.13,-70.64,-991.37,306.25,-761.25,-350.0,1,94.191,
01/01/2000,01:37:52.01,15.01,-70.52,-991.62,26.25,-647.50,-271.25,1,94.195,
01/01/2000,01:37:52.03,15.01,-70.27,-991.62,175.0,-612.50,-306.25,1,94.199,
01/01/2000,01:37:52.04,15.13,-70.39,-991.62,105.0,-700.0,-385.0,1,94.203,
01/01/2000,01:37:52.05,15.13,-70.52,-991.74,175.0,-603.75,-288.75,1,94.207,
01/01/2000,01:37:52.06,15.37,-70.39,-991.62,78.75,-717.50,-315.0,1,94.211,
01/01/2000,01:37:52.07,15.25,-70.52,-991.74,323.75,-673.75,-358.75,1,94.214,
01/01/2000,01:37:52.08,15.13,-70.27,-991.86,52.50,-665.0,-297.50,1,94.218,
01/01/2000,01:37:52.09,15.13,-70.39,-991.86,288.75,-673.75,-280.0,1,94.222,
01/01/2000,01:37:52.10,15.25,-70.03,-991.86,105.0,-726.25,-402.50,1,94.226,
01/01/2000,01:37:52.11,15.25,-70.27,-991.62,183.75,-708.75,-393.75,1,94.230,
01/01/2000,01:37:52.12,15.25,-70.39,-991.49,315.0,-673.75,-463.75,1,94.233,
01/01/2000,01:37:52.13,15.13,-70.27,-991.37,26.25,-665.0,-323.75,1,94.237,
01/01/2000,01:37:52.14,15.37,-70.52,-991.25,332.50,-656.25,-385.0,1,94.179,
01/01/2000,01:37:52.15,15.25,-70.27,-991.25,105.0,-595.0,-280.0,1,94.245,
01/01/2000,01:37:52.17,15.37,-70.39,-991.37,192.50,-603.75,-437.50,1,94.187,
01/01/2000,01:37:52.18,15.25,-70.27,-991.37,175.0,-796.25,-306.25,1,94.191,
01/01/2000,01:37:52.19,15.25,-70.52,-991.49,175.0,-700.0,-358.75,1,94.194,
01/01/2000,01:37:52.20,15.25,-70.27,-991.49,201.25,-603.75,-420.0,1,94.198,
01/01/2000,01:37:52.21,15.01,-70.27,-991.62,122.50,-665.0,-402.50,1,94.202,
01/01/2000,01:37:52.22,15.01,-70.27,-991.62,245.0,-717.50,-393.75,1,94.206,
01/01/2000,01:37:52.23,14.88,-70.15,-991.37,113.75,-717.50,-358.75,1,94.209,
01/01/2000,01:37:52.24,15.13,-70.27,-991.25,175.0,-673.75,-323.75,1,94.152,
01/01/2000,01:37:52.25,15.37,-70.52,-991.01,70.0,-726.25,-376.25,1,94.156,
01/01/2000,01:37:52.26,15.37,-70.39,-991.13,78.75,-761.25,-376.25,1,94.160,
01/01/2000,01:37:52.27,15.37,-70.76,-991.13,245.0,-551.25,-376.25,1,94.163,
01/01/2000,01:37:52.28,15.13,-70.39,-991.37,105.0,-700.0,-306.25,1,94.167,
01/01/2000,01:37:52.29,15.13,-70.52,-991.37,148.75,-682.50,-358.75,1,94.171,
01/01/2000,01:37:52.30,15.13,-70.27,-991.25,350.0,-682.50,-385.0,1,94.175,
01/01/2000,01:37:52.31,15.13,-70.39,-991.13,140.0,-743.75,-253.75,1,94.179,
01/01/2000,01:37:52.32,15.13,-70.52,-991.01,113.75,-691.25,-227.50,1,94.182,
01/01/2000,01:37:52.33,15.25,-70.76,-991.01,271.25,-647.50,-297.50,1,94.186,
01/01/2000,01:37:52.34,15.13,-70.52,-991.25,227.50,-682.50,-420.0,1,94.190,
01/01/2000,01:37:52.35,14.88,-70.64,-991.37,96.25,-813.75,-446.25,1,94.194,
01/01/2000,01:37:52.36,14.88,-70.27,-991.25,227.50,-708.75,-428.75,1,94.197,
01/01/2000,01:37:52.38,15.01,-70.39,-991.13,192.50,-761.25,-332.50,1,94.201,
01/01/2000,01:37:52.39,15.13,-70.27,-991.01,201.25,-822.50,-315.0,1,94.205,
01/01/2000,01:37:52.40,15.25,-70.64,-991.01,87.50,-726.25,-411.25,1,94.208,
01/01/2000,01:37:52.41,15.01,-70.76,-991.01,315.0,-586.25,-332.50,1,94.212,
01/01/2000,01:37:52.42,14.88,-70.76,-991.25,131.25,-735.0,-420.0,1,94.216,
01/01/2000,01:37:52.43,14.88,-70.27,-991.49,113.75,-630.0,-323.75,1,94.220,
01/01/2000,01:37:52.44,14.88,-70.39,-991.62,236.25,-638.75,-227.50,1,94.223,
01/01/2000,01:37:52.45,14.88,-70.27,-991.49,166.25,-726.25,-297.50,1,94.167,
01/01/2000,01:37:52.46,15.01,-70.52,-991.13,87.50,-708.75,-227.50,1,94.170,
01/01/2000,01:37:52.47,15.01,-70.76,-991.13,288.75,-717.50,-498.75,1,94.174,
01/01/2000,01:37:52.48,15.01,-70.64,-991.37,297.50,-761.25,-358.75,1,94.178,
01/01/2000,01:37:52.49,15.13,-70.39,-991.37,218.75,-665.0,-262.50,1,94.182,
01/01/2000,01:37:52.50,15.13,-70.27,-991.37,192.50,-612.50,-280.0,1,94.185,
01/01/2000,01:37:52.52,14.88,-70.39,-991.37,183.75,-735.0,-262.50,1,94.189,
01/01/2000,01:37:52.53,15.01,-70.76,-991.37,78.75,-586.25,-411.25,1,94.193,
01/01/2000,01:37:52.54,15.13,-70.76,-991.25,210.0,-735.0,-463.75,1,94.196,
01/01/2000,01:37:52.55,15.01,-70.64,-991.25,148.75,-726.25,-358.75,1,94.200,
01/01/2000,01:37:52.56,15.01,-70.64,-991.13,210.0,-761.25,-437.50,1,94.204,
01/01/2000,01:37:52.57,15.01,-70.27,-991.13,201.25,-568.75,-446.25,1,94.208,
01/01/2000,01:37:52.58,15.13,-70.39,-991.13,131.25,-586.25,-271.25,1,94.211,
01/01/2000,01:37:52.59,15.25,-70.52,-991.13,157.50,-656.25,-332.50,1,94.215,
01/01/2000,01:37:52.60,15.37,-70.64,-991.25,157.50,-647.50,-393.75,1,94.219,
01/01/2000,01:37:52.61,15.37,-70.76,-991.25,218.75,-813.75,-350.0,1,94.222,
01/01/2000,01:37:52.62,15.13,-70.39,-991.37,148.75,-621.25,-350.0,1,94.226,
01/01/2000,01:37:52.63,15.13,-70.27,-991.25,148.75,-603.75,-262.50,1,94.230,
01/01/2000,01:37:52.64,15.13,-70.27,-991.37,280.0,-726.25,-297.50,1,94.233,
01/01/2000,01:37:52.65,15.13,-70.15,-991.37,236.25,-621.25,-297.50,1,94.237,
01/01/2000,01:37:52.67,15.13,-70.27,-991.25,271.25,-735.0,-507.50,1,94.181,
01/01/2000,01:37:52.68,15.13,-70.64,-991.25,262.50,-761.25,-481.25,1,94.185,
01/01/2000,01:37:52.69,15.37,-70.52,-991.25,201.25,-656.25,-332.50,1,94.188,
01/01/2000,01:37:52.70,15.13,-70.39,-991.25,218.75,-647.50,-411.25,1,94.192,
01/01/2000,01:37:52.71,15.25,-70.27,-991.25,148.75,-612.50,-341.25,1,94.196,
01/01/2000,01:37:52.72,15.13,-70.27,-991.37,166.25,-752.50,-411.25,1,94.199,
01/01/2000,01:37:52.73,15.13,-70.39,-991.37,210.0,-752.50,-323.75,1,94.144,
01/01/2000,01:37:52.74,15.25,-70.39,-991.37,105.0,-621.25,-358.75,1,94.147,
01/01/2000,01:37:52.75,15.25,-70.52,-991.25,140.0,-743.75,-367.50,1,94.151,
01/01/2000,01:37:52.76,15.13,-70.27,-991.37,157.50,-735.0,-297.50,1,94.155,
01/01/2000,01:37:52.77,15.13,-70.39,-991.49,157.50,-691.25,-367.50,1,94.158,
01/01/2000,01:37:52.78,15.01,-70.27,-991.62,288.75,-700.0,-402.50,1,94.162,
01/01/2000,01:37:52.79,14.88,-70.27,-991.62,122.50,-691.25,-420.0,1,94.166,
01/01/2000,01:37:52.80,15.13,-70.39,-991.37,113.75,-717.50,-218.75,1,94.169,
01/01/2000,01:37:52.81,15.13,-70.52,-991.37,245.0,-752.50,-350.0,1,94.173,
01/01/2000,01:37:52.82,14.88,-70.76,-991.37,175.0,-761.25,-341.25,1,94.177,
01/01/2000,01:37:52.83,14.88,-70.52,-991.25,105.0,-612.50,-402.50,1,94.180,
01/01/2000,01:37:52.84,15.13,-70.52,-991.37,175.0,-621.25,-376.25,1,94.184,
01/01/2000,01:37:52.85,15.13,-70.39,-991.25,8.75,-700.0,-245.0,1,94.188,
01/01/2000,01:37:52.86,15.13,-70.39,-991.25,218.75,-708.75,-367.50,1,94.191,
01/01/2000,01:37:52.88,15.13,-70.39,-991.49,105.0,-726.25,-358.75,1,94.195,
01/01/2000,01:37:52.89,15.25,-70.52,-991.37,157.50,-700.0,-271.25,1,94.198,
01/01/2000,01:37:52.90,15.25,-70.39,-991.25,262.50,-717.50,-306.25,1,94.202,
01/01/2000,01:37:52.91,15.25,-70.27,-991.01,140.0,-621.25,-323.75,1,94.206,
01/01/2000,01:37:52.92,15.25,-70.52,-991.01,192.50,-621.25,-288.75,1,94.209,
01/01/2000,01:37:52.93,15.37,-70.27,-991.01,192.50,-682.50,-218.75,1,94.213,
01/01/2000,01:37:52.94,15.25,-70.27,-991.13,87.50,-612.50,-358.75,1,94.158,
01/01/2000,01:37:52.95,15.25,-70.39,-991.25,192.50,-673.75,-358.75,1,94.161,
01/01/2000,01:37:52.96,15.13,-70.52,-991.13,113.75,-735.0,-297.50,1,94.165,
01/01/2000,01:37:52.97,15.13,-70.52,-991.01,262.50,-673.75,-280.0,1,94.169,
01/01/2000,01:37:52.98,15.13,-70.39,-991.13,157.50,-595.0,-280.0,1,94.172,
01/01/2000,01:37:52.99,15.13,-70.64,-991.25,105.0,-796.25,-350.0,1,94.176,
01/01/2000,01:37:53.00,15.13,-70.39,-991.37,183.75,-568.75,-428.75,1,94.180,
01/01/2000,01:37:53.02,15.13,-70.27,-991.25,192.50,-621.25,-568.75,1,94.183,
01/01/2000,01:37:53.03,15.01,-70.15,-991.13,8.75,-682.50,-236.25,1,94.187,
01/01/2000,01:37:53.04,15.01,-70.27,-991.13,61.25,-621.25,-350.0,1,94.190,
01/01/2000,01:37:53.05,14.88,-70.15,-991.25,210.0,-691.25,-507.50,1,94.194,
01/01/2000,01:37:53.06,14.88,-70.27,-991.37,148.75,-787.50,-735.0,1,94.198,
01/01/2000,01:37:53.07,14.88,-70.64,-991.37,262.50,-673.75,-962.50,1,94.201,
01/01/2000,01:37:53.08,14.76,-70.27,-991.25,43.75,-726.25,-1295.0,1,94.205,
01/01/2000,01:37:53.09,14.88,-70.52,-991.25,183.75,-822.50,-1522.50,1,94.208,
01/01/2000,01:37:53.10,14.88,-70.52,-991.37,157.50,-735.0,-1688.75,1,94.212,
01/01/2000,01:37:53.11,15.01,-70.52,-991.49,183.75,-892.50,-2240.0,1,94.215,
01/01/2000,01:37:53.12,14.76,-70.64,-991.49,297.50,-682.50,-2327.50,1,94.219,
01/01/2000,01:37:53.13,14.76,-70.52,-991.49,43.75,-743.75,-2581.25,1,94.222,
01/01/2000,01:37:53.14,14.88,-70.76,-991.37,341.25,-778.75,-2773.75,1,94.226,
01/01/2000,01:37:53.15,15.01,-70.52,-991.49,210.0,-726.25,-3858.75,1,94.172,
01/01/2000,01:37:53.17,14.88,-70.52,-991.62,192.50,-892.50,-5232.50,1,94.175,
01/01/2000,01:37:53.18,15.01,-70.64,-991.49,271.25,-1006.25,-6658.75,1,94.179,
01/01/2000,01:37:53.19,15.13,-70.64,-991.49,96.25,-1076.25,-8163.75,1,94.182,
01/01/2000,01:37:53.20,15.01,-70.76,-991.49,26.25,-1058.75,-9537.50,1,94.186,
01/01/2000,01:37:53.21,15.13,-70.76,-991.49,122.50,-1190.0,-10613.75,1,94.190,
01/01/2000,01:37:53.22,15.13,-70.76,-991.62,288.75,-1198.75,-11602.50,1,94.193,
01/01/2000,01:37:53.23,15.25,-70.64,-991.62,113.75,-1286.25,-15023.75,1,94.139,
01/01/2000,01:37:53.24,15.13,-70.76,-991.49,358.75,-1496.25,-18873.75,1,94.143,
01/01/2000,01:37:53.25,15.13,-70.76,-991.37,341.25,-1636.25,-23625.0,1,94.146,
01/01/2000,01:37:53.26,15.13,-71.00,-991.49,297.50,-1741.25,-28280.0,1,94.150,
01/01/2000,01:37:53.27,15.25,-71.25,-991.62,323.75,-1986.25,-31841.25,1,94.153,
01/01/2000,01:37:53.28,15.01,-71.00,-991.62,218.75,-1907.50,-28428.75,1,94.157,
01/01/2000,01:37:53.30,14.76,-70.52,-991.62,358.75,-1557.50,-20055.0,1,94.161,
01/01/2000,01:37:53.31,14.76,-70.03,-991.62,341.25,-875.0,-5390.0,1,94.164,
01/01/2000,01:37:53.32,15.13,-69.17,-991.62,227.50,-752.50,-1820.0,1,94.168,
01/01/2000,01:37:53.33,15.25,-69.30,-991.62,140.0,-822.50,-2966.25,1,94.171,
01/01/2000,01:37:53.34,15.01,-70.03,-991.62,131.25,-962.50,-6816.25,1,94.175,
01/01/2000,01:37:53.35,14.88,-70.76,-991.37,271.25,-1268.75,-13475.0,1,94.178,
01/01/2000,01:37:53.36,15.13,-71.13,-991.62,253.75,-1478.75,-17456.25,1,94.182,
01/01/2000,01:37:53.37,15.13,-70.76,-991.62,227.50,-1435.0,-19801.25,1,94.185,
01/01/2000,01:37:53.38,15.13,-70.52,-991.62,78.75,-1540.0,-20247.50,1,94.189,
01/01/2000,01:37:53.39,15.13,-70.39,-991.37,385.0,-1548.75,-19232.50,1,94.192,
01/01/2000,01:37:53.40,15.01,-70.39,-991.37,227.50,-1470.0,-17990.0,1,94.196,
01/01/2000,01:37:53.41,14.88,-70.52,-991.37,122.50,-1338.75,-16843.75,1,94.199,
01/01/2000,01:37:53.42,15.13,-70.52,-991.62,280.0,-1286.25,-16012.50,1,94.203,
01/01/2000,01:37:53.43,15.37,-70.39,-991.62,192.50,-1417.50,-15233.75,1,94.206,
01/01/2000,01:37:53.44,15.37,-70.39,-991.49,323.75,-1321.25,-15076.25,1,94.210,
01/01/2000,01:37:53.45,15.25,-70.27,-991.62,210.0,-1382.50,-15128.75,1,94.213,
01/01/2000,01:37:53.46,15.13,-70.52,-991.49,315.0,-1338.75,-15268.75,1,94.217,
01/01/2000,01:37:53.47,15.13,-70.52,-991.49,262.50,-1330.0,-15295.0,1,94.220,
01/01/2000,01:37:53.48,15.25,-70.39,-991.49,262.50,-1277.50,-15163.75,1,94.224,
01/01/2000,01:37:53.49,15.37,-70.52,-991.13,393.75,-1312.50,-15408.75,1,94.171,
01/01/2000,01:37:53.50,15.37,-70.27,-991.01,140.0,-1347.50,-15557.50,1,94.174,
01/01/2000,01:37:53.51,15.37,-70.64,-991.13,420.0,-1303.75,-15723.75,1,94.178,
01/01/2000,01:37:53.52,15.13,-70.52,-991.37,245.0,-1382.50,-15723.75,1,94.181,
01/01/2000,01:37:53.53,15.37,-70.52,-991.37,148.75,-1321.25,-15916.25,1,94.185,
01/01/2000,01:37:53.54,15.37,-70.52,-991.37,297.50,-1408.75,-15890.0,1,94.188,
01/01/2000,01:37:53.55,15.37,-70.27,-991.25,218.75,-1356.25,-16038.75,1,94.192,
01/01/2000,01:37:53.57,15.37,-70.52,-991.13,253.75,-1391.25,-15986.25,1,94.195,
