rtcDate,rtcTime,aX,aY,aZ,gX,gY,gZ,dataRdy,output_Hz,
01/01/2000,01:19:31.62,17.45,-51.48,-854.98,140.0,-656.25,-148.75,1,0.0,
01/01/2000,01:19:31.63,18.06,-53.68,-886.57,148.75,-735.0,-245.0,1,100.0,
01/01/2000,01:19:31.64,18.30,-54.53,-905.48,280.0,-752.50,-271.25,1,100.0,
01/01/2000,01:19:31.65,18.67,-55.63,-915.98,61.25,-638.75,-166.25,1,100.0,
01/01/2000,01:19:31.66,18.91,-56.12,-925.49,323.75,-656.25,-218.75,1,100.0,
01/01/2000,01:19:31.67,19.15,-56.36,-933.91,105.0,-700.0,-350.0,1,100.0,
01/01/2000,01:19:31.68,19.40,-56.85,-941.35,297.50,-691.25,-236.25,1,100.0,
01/01/2000,01:19:31.70,19.52,-57.22,-950.87,61.25,-630.0,-166.25,1,100.0,
01/01/2000,01:19:31.71,19.52,-57.71,-955.87,175.0,-595.0,-105.0,1,100.0,
01/01/2000,01:19:31.72,19.64,-58.07,-960.14,183.75,-673.75,-227.50,1,100.0,
01/01/2000,01:19:31.73,19.89,-58.32,-966.00,131.25,-752.50,-341.25,1,100.0,
01/01/2000,01:19:31.74,20.13,-58.56,-969.41,148.75,-691.25,-341.25,1,100.0,
01/01/2000,01:19:31.75,20.01,-58.56,-972.71,8.75,-656.25,-236.25,1,100.0,
01/01/2000,01:19:31.76,20.25,-58.56,-975.27,26.25,-665.0,-332.50,1,100.0,
01/01/2000,01:19:31.77,20.37,-58.93,-978.32,245.0,-700.0,-280.0,1,100.0,
01/01/2000,01:19:31.78,20.25,-59.05,-980.03,236.25,-752.50,-297.50,1,100.0,
01/01/2000,01:19:31.79,20.25,-59.29,-981.73,218.75,-682.50,-236.25,1,100.0,
01/01/2000,01:19:31.80,20.25,-59.17,-983.20,96.25,-787.50,-236.25,1,100.0,
01/01/2000,01:19:31.81,20.25,-59.29,-985.27,218.75,-595.0,-280.0,1,100.0,
01/01/2000,01:19:31.82,20.25,-59.41,-986.49,227.50,-665.0,-166.25,1,100.0,
01/01/2000,01:19:31.83,20.25,-59.41,-987.22,245.0,-656.25,-227.50,1,100.0,
01/01/2000,01:19:31.84,20.50,-59.54,-987.71,140.0,-691.25,-315.0,1,100.0,
01/01/2000,01:19:31.85,20.50,-59.66,-988.69,192.50,-700.0,-271.25,1,100.0,
01/01/2000,01:19:31.86,20.62,-59.66,-989.42,122.50,-708.75,-271.25,1,100.0,
01/01/2000,01:19:31.87,20.74,-59.78,-990.15,157.50,-612.50,-192.50,1,100.0,
01/01/2000,01:19:31.88,20.74,-59.54,-990.52,87.50,-665.0,-332.50,1,100.0,
01/01/2000,01:19:31.89,20.62,-59.54,-991.01,192.50,-770.0,-288.75,1,100.0,
01/01/2000,01:19:31.90,20.74,-59.66,-991.49,96.25,-708.75,-148.75,1,96.552,
01/01/2000,01:19:31.91,20.74,-59.78,-991.86,140.0,-682.50,-280.0,1,96.667,
01/01/2000,01:19:31.92,20.74,-60.02,-991.98,157.50,-665.0,-350.0,1,96.774,
01/01/2000,01:19:31.93,20.74,-60.02,-992.23,87.50,-770.0,-262.50,1,96.875,
01/01/2000,01:19:31.94,20.74,-59.90,-992.35,131.25,-735.0,-192.50,1,96.970,
01/01/2000,01:19:31.95,20.74,-59.90,-992.35,166.25,-665.0,-166.25,1,97.059,
01/01/2000,01:19:31.96,20.62,-60.02,-992.59,227.50,-770.0,-210.0,1,97.143,
01/01/2000,01:19:31.98,20.50,-60.15,-992.84,157.50,-691.25,-183.75,1,97.222,
01/01/2000,01:19:31.99,20.50,-60.02,-993.08,183.75,-700.0,-262.50,1,97.297,
01/01/2000,01:19:32.00,20.50,-60.02,-993.08,175.0,-682.50,-297.50,1,97.368,
01/01/2000,01:19:32.01,20.62,-60.02,-993.08,201.25,-735.0,-236.25,1,97.436,
01/01/2000,01:19:32.02,20.62,-59.78,-993.08,61.25,-630.0,-245.0,1,97.500,
01/01/2000,01:19:32.03,20.50,-59.90,-993.08,122.50,-752.50,-131.25,1,97.561,
01/01/2000,01:19:32.04,20.50,-59.90,-993.20,52.50,-682.50,-297.50,1,97.619,
01/01/2000,01:19:32.05,20.50,-59.90,-993.20,210.0,-735.0,-253.75,1,97.674,
01/01/2000,01:19:32.06,20.62,-59.78,-993.08,148.75,-595.0,-271.25,1,97.727,
01/01/2000,01:19:32.07,20.62,-59.90,-992.84,148.75,-603.75,-332.50,1,97.778,
01/01/2000,01:19:32.08,20.62,-59.90,-992.96,148.75,-612.50,-236.25,1,97.826,
01/01/2000,01:19:32.09,20.62,-60.02,-993.08,122.50,-700.0,-288.75,1,97.872,
01/01/2000,01:19:32.10,20.50,-59.78,-992.96,157.50,-708.75,-288.75,1,97.917,
01/01/2000,01:19:32.11,20.62,-60.02,-992.84,201.25,-665.0,-210.0,1,96.0,
01/01/2000,01:19:32.12,20.50,-59.78,-992.84,236.25,-595.0,-280.0,1,96.078,
01/01/2000,01:19:32.13,20.62,-59.78,-993.08,61.25,-665.0,-367.50,1,96.154,
01/01/2000,01:19:32.15,20.50,-59.78,-993.45,105.0,-787.50,-201.25,1,96.226,
01/01/2000,01:19:32.16,20.50,-60.02,-993.45,0.0,-630.0,-253.75,1,96.296,
01/01/2000,01:19:32.17,20.50,-59.78,-993.20,113.75,-717.50,-297.50,1,96.364,
01/01/2000,01:19:32.18,20.74,-59.66,-993.20,122.50,-665.0,-236.25,1,96.429,
01/01/2000,01:19:32.19,20.74,-59.78,-993.08,140.0,-612.50,-245.0,1,96.491,
01/01/2000,01:19:32.20,20.50,-60.02,-993.32,35.0,-647.50,-175.0,1,96.552,
01/01/2000,01:19:32.21,20.50,-60.02,-993.20,148.75,-752.50,-315.0,1,96.610,
01/01/2000,01:19:32.22,20.74,-59.54,-993.08,218.75,-770.0,-393.75,1,96.667,
01/01/2000,01:19:32.23,20.74,-59.54,-992.84,227.50,-752.50,-271.25,1,96.721,
01/01/2000,01:19:32.24,20.74,-59.78,-992.84,105.0,-656.25,-122.50,1,96.774,
01/01/2000,01:19:32.25,20.62,-60.02,-992.84,78.75,-595.0,-253.75,1,95.313,
01/01/2000,01:19:32.26,20.62,-60.02,-992.96,140.0,-568.75,-288.75,1,95.385,
01/01/2000,01:19:32.27,20.74,-60.02,-992.96,192.50,-665.0,-341.25,1,95.455,
01/01/2000,01:19:32.28,20.74,-59.78,-992.84,201.25,-700.0,-271.25,1,95.522,
01/01/2000,01:19:32.29,20.86,-59.78,-992.59,166.25,-717.50,-192.50,1,95.588,
01/01/2000,01:19:32.30,20.86,-59.90,-992.84,105.0,-761.25,-87.50,1,95.652,
01/01/2000,01:19:32.31,20.86,-60.02,-992.96,245.0,-708.75,-192.50,1,95.714,
01/01/2000,01:19:32.32,20.98,-59.78,-993.08,113.75,-752.50,-288.75,1,95.775,
01/01/2000,01:19:32.33,21.11,-59.78,-992.84,227.50,-708.75,-315.0,1,95.833,
01/01/2000,01:19:32.34,20.98,-59.66,-992.71,253.75,-595.0,-253.75,1,95.890,
01/01/2000,01:19:32.35,20.74,-59.90,-992.59,227.50,-682.50,-122.50,1,95.946,
01/01/2000,01:19:32.36,20.74,-60.15,-992.59,131.25,-726.25,-201.25,1,96.0,
01/01/2000,01:19:32.37,20.86,-60.27,-992.84,166.25,-665.0,-350.0,1,96.053,
01/01/2000,01:19:32.38,20.98,-60.02,-992.71,122.50,-735.0,-280.0,1,96.104,
01/01/2000,01:19:32.40,20.98,-60.02,-992.35,87.50,-673.75,-148.75,1,96.154,
01/01/2000,01:19:32.41,20.74,-60.02,-992.35,183.75,-647.50,-262.50,1,96.203,
01/01/2000,01:19:32.42,20.74,-60.15,-992.59,323.75,-656.25,-428.75,1,96.250,
01/01/2000,01:19:32.43,20.74,-60.02,-992.84,87.50,-735.0,-297.50,1,96.296,
01/01/2000,01:19:32.44,20.74,-59.90,-992.71,175.0,-656.25,-271.25,1,96.341,
01/01/2000,01:19:32.45,20.74,-59.90,-992.35,105.0,-787.50,-157.50,1,96.386,
01/01/2000,01:19:32.46,20.62,-59.78,-992.23,148.75,-621.25,-297.50,1,95.294,
01/01/2000,01:19:32.47,20.62,-59.78,-992.35,61.25,-682.50,-271.25,1,95.349,
01/01/2000,01:19:32.48,20.74,-59.66,-992.59,175.0,-638.75,-253.75,1,95.402,
01/01/2000,01:19:32.49,20.74,-59.78,-992.47,210.0,-665.0,-236.25,1,95.455,
01/01/2000,01:19:32.50,20.74,-59.78,-992.35,140.0,-682.50,-201.25,1,95.506,
01/01/2000,01:19:32.51,20.74,-59.78,-992.23,192.50,-735.0,-367.50,1,95.556,
01/01/2000,01:19:32.52,20.74,-59.54,-992.47,210.0,-752.50,-315.0,1,95.604,
01/01/2000,01:19:32.54,20.62,-59.78,-992.59,148.75,-682.50,-210.0,1,95.652,
01/01/2000,01:19:32.55,20.50,-59.90,-992.35,52.50,-603.75,-227.50,1,95.699,
01/01/2000,01:19:32.56,20.37,-59.78,-992.23,87.50,-691.25,-350.0,1,95.745,
01/01/2000,01:19:32.57,20.50,-59.54,-992.35,236.25,-787.50,-411.25,1,95.789,
01/01/2000,01:19:32.58,20.86,-59.54,-992.59,192.50,-735.0,-218.75,1,95.833,
01/01/2000,01:19:32.59,20.74,-59.78,-992.84,315.0,-673.75,-148.75,1,95.876,
01/01/2000,01:19:32.60,20.25,-60.27,-992.35,218.75,-612.50,-183.75,1,95.918,
01/01/2000,01:19:32.61,20.25,-59.90,-992.10,157.50,-682.50,-490.0,1,95.960,
01/01/2000,01:19:32.62,20.62,-59.66,-992.59,96.25,-778.75,-341.25,1,96.0,
01/01/2000,01:19:32.63,20.74,-59.54,-992.96,0.0,-656.25,-113.75,1,96.040,
01/01/2000,01:19:32.64,20.50,-59.90,-992.84,70.0,-761.25,-105.0,1,96.078,
01/01/2000,01:19:32.65,20.25,-60.02,-992.47,210.0,-682.50,-271.25,1,95.192,
01/01/2000,01:19:32.67,20.62,-59.90,-992.47,192.50,-726.25,-446.25,1,95.238,
01/01/2000,01:19:32.68,20.98,-59.66,-992.59,87.50,-647.50,-131.25,1,95.283,
01/01/2000,01:19:32.69,20.98,-59.78,-992.47,140.0,-673.75,-26.25,1,95.327,
01/01/2000,01:19:32.70,20.37,-60.02,-992.35,227.50,-673.75,-131.25,1,95.370,
01/01/2000,01:19:32.71,20.37,-60.02,-992.47,192.50,-700.0,-297.50,1,95.413,
01/01/2000,01:19:32.72,20.62,-59.78,-992.59,262.50,-665.0,-516.25,1,95.455,
01/01/2000,01:19:32.73,20.74,-59.54,-992.59,35.0,-726.25,-236.25,1,95.495,
01/01/2000,01:19:32.74,20.50,-59.66,-992.35,105.0,-708.75,-113.75,1,95.536,
01/01/2000,01:19:32.75,20.50,-59.78,-992.35,166.25,-726.25,-131.25,1,95.575,
01/01/2000,01:19:32.76,20.50,-60.02,-992.47,253.75,-638.75,-376.25,1,95.614,
01/01/2000,01:19:32.77,20.74,-59.66,-992.84,166.25,-560.0,-288.75,1,95.652,
01/01/2000,01:19:32.78,20.74,-59.54,-992.84,96.25,-778.75,-306.25,1,95.690,
01/01/2000,01:19:32.79,20.62,-59.54,-992.71,192.50,-691.25,-271.25,1,95.726,
01/01/2000,01:19:32.80,20.50,-59.54,-992.47,253.75,-603.75,-148.75,1,95.763,
01/01/2000,01:19:32.81,20.74,-59.78,-992.59,140.0,-673.75,-280.0,1,95.0,
01/01/2000,01:19:32.82,20.74,-59.78,-992.96,122.50,-638.75,-393.75,1,95.041,
01/01/2000,01:19:32.83,20.62,-59.66,-992.84,210.0,-708.75,-218.75,1,95.082,
01/01/2000,01:19:32.84,20.37,-59.54,-992.59,245.0,-621.25,-131.25,1,95.122,
01/01/2000,01:19:32.85,20.25,-59.54,-992.35,131.25,-761.25,-175.0,1,95.161,
01/01/2000,01:19:32.86,20.25,-59.54,-992.35,166.25,-743.75,-271.25,1,95.200,
01/01/2000,01:19:32.87,20.37,-59.66,-992.59,183.75,-743.75,-332.50,1,95.238,
01/01/2000,01:19:32.89,20.62,-59.78,-992.71,166.25,-630.0,-122.50,1,95.276,
01/01/2000,01:19:32.90,20.50,-59.78,-992.47,210.0,-577.50,-201.25,1,95.313,
01/01/2000,01:19:32.91,20.37,-59.66,-992.23,131.25,-630.0,-262.50,1,95.349,
01/01/2000,01:19:32.92,20.50,-59.78,-992.35,105.0,-735.0,-288.75,1,95.385,
01/01/2000,01:19:32.93,20.74,-59.78,-992.59,236.25,-638.75,-358.75,1,95.420,
01/01/2000,01:19:32.94,20.74,-59.90,-992.59,131.25,-621.25,-262.50,1,95.455,
01/01/2000,01:19:32.95,20.50,-60.02,-992.35,210.0,-673.75,-192.50,1,95.489,
01/01/2000,01:19:32.96,20.37,-60.15,-992.10,175.0,-752.50,-201.25,1,95.522,
01/01/2000,01:19:32.97,20.25,-60.02,-991.86,140.0,-647.50,-323.75,1,95.556,
01/01/2000,01:19:32.98,20.50,-59.90,-991.98,183.75,-542.50,-280.0,1,95.588,
01/01/2000,01:19:32.99,20.50,-59.54,-992.10,183.75,-621.25,-148.75,1,95.620,
01/01/2000,01:19:33.00,20.62,-59.78,-991.98,210.0,-656.25,-201.25,1,95.652,
01/01/2000,01:19:33.01,20.62,-59.78,-991.98,201.25,-682.50,-262.50,1,95.683,
01/01/2000,01:19:33.02,20.62,-59.90,-992.10,297.50,-708.75,-437.50,1,95.035,
01/01/2000,01:19:33.03,20.74,-59.78,-992.35,253.75,-778.75,-358.75,1,95.070,
01/01/2000,01:19:33.04,20.74,-59.66,-992.35,245.0,-638.75,-210.0,1,95.105,
01/01/2000,01:19:33.05,20.50,-59.54,-992.35,131.25,-708.75,-96.25,1,95.139,
01/01/2000,01:19:33.06,20.25,-59.66,-992.35,227.50,-595.0,-148.75,1,95.172,
01/01/2000,01:19:33.07,20.50,-59.54,-992.47,140.0,-665.0,-306.25,1,95.205,
01/01/2000,01:19:33.08,20.74,-59.54,-992.47,175.0,-638.75,-236.25,1,95.238,
01/01/2000,01:19:33.10,20.50,-59.90,-992.47,105.0,-761.25,-113.75,1,95.270,
01/01/2000,01:19:33.11,20.25,-60.02,-992.35,105.0,-621.25,-297.50,1,95.302,
01/01/2000,01:19:33.12,20.25,-59.78,-992.23,148.75,-708.75,-341.25,1,95.333,
01/01/2000,01:19:33.13,20.50,-59.78,-992.35,262.50,-621.25,-306.25,1,95.364,
01/01/2000,01:19:33.14,20.62,-59.78,-992.47,148.75,-682.50,-210.0,1,95.395,
01/01/2000,01:19:33.15,20.62,-60.02,-992.47,105.0,-603.75,-271.25,1,95.425,
01/01/2000,01:19:33.17,20.50,-60.02,-992.35,26.25,-673.75,-210.0,1,94.839,
01/01/2000,01:19:33.18,20.74,-59.54,-992.59,157.50,-717.50,-323.75,1,94.872,
01/01/2000,01:19:33.19,20.62,-59.54,-992.71,201.25,-656.25,-280.0,1,94.904,
01/01/2000,01:19:33.20,20.74,-59.78,-992.59,175.0,-656.25,-192.50,1,94.937,
01/01/2000,01:19:33.21,20.50,-60.02,-992.59,218.75,-647.50,-183.75,1,94.969,
01/01/2000,01:19:33.22,20.50,-60.02,-992.71,192.50,-682.50,-210.0,1,95.0,
01/01/2000,01:19:33.23,20.74,-59.90,-992.84,105.0,-612.50,-428.75,1,95.031,
01/01/2000,01:19:33.24,20.86,-59.78,-992.84,140.0,-568.75,-140.0,1,95.062,
01/01/2000,01:19:33.25,20.74,-59.78,-992.71,218.75,-656.25,-131.25,1,95.092,
01/01/2000,01:19:33.26,20.37,-59.90,-992.71,253.75,-717.50,-157.50,1,95.122,
01/01/2000,01:19:33.27,20.62,-59.78,-992.84,131.25,-700.0,-350.0,1,95.152,
01/01/2000,01:19:33.28,20.86,-59.78,-992.84,87.50,-708.75,-367.50,1,95.181,
01/01/2000,01:19:33.29,20.86,-59.90,-992.84,218.75,-630.0,-148.75,1,95.210,
01/01/2000,01:19:33.30,20.50,-59.90,-992.71,131.25,-656.25,-140.0,1,95.238,
01/01/2000,01:19:33.31,20.62,-60.02,-992.59,175.0,-682.50,-192.50,1,95.266,
01/01/2000,01:19:33.32,20.62,-59.78,-992.84,26.25,-638.75,-210.0,1,95.294,
01/01/2000,01:19:33.33,20.50,-59.90,-992.71,175.0,-735.0,-245.0,1,95.322,
01/01/2000,01:19:33.34,20.50,-60.02,-992.59,201.25,-682.50,-227.50,1,95.349,
01/01/2000,01:19:33.35,20.50,-60.15,-992.47,175.0,-708.75,-140.0,1,95.376,
01/01/2000,01:19:33.36,20.50,-60.15,-992.47,113.75,-752.50,-201.25,1,95.402,
01/01/2000,01:19:33.37,20.37,-60.02,-992.71,78.75,-603.75,-358.75,1,95.429,
01/01/2000,01:19:33.39,20.50,-59.90,-992.71,236.25,-621.25,-315.0,1,94.915,
01/01/2000,01:19:33.40,20.50,-59.90,-992.59,26.25,-568.75,-192.50,1,94.944,
01/01/2000,01:19:33.41,20.25,-59.90,-992.59,218.75,-691.25,-122.50,1,94.972,
01/01/2000,01:19:33.42,20.25,-60.02,-992.47,113.75,-621.25,-227.50,1,95.0,
01/01/2000,01:19:33.43,20.50,-60.02,-992.35,280.0,-682.50,-271.25,1,95.028,
01/01/2000,01:19:33.44,20.50,-59.90,-992.47,148.75,-568.75,-140.0,1,95.055,
01/01/2000,01:19:33.45,20.50,-60.02,-992.35,157.50,-603.75,-227.50,1,95.082,
01/01/2000,01:19:33.46,20.37,-60.02,-992.23,218.75,-673.75,-245.0,1,95.109,
01/01/2000,01:19:33.47,20.37,-60.15,-992.23,201.25,-665.0,-218.75,1,95.135,
01/01/2000,01:19:33.48,20.50,-60.02,-992.35,105.0,-673.75,-253.75,1,95.161,
01/01/2000,01:19:33.49,20.50,-60.02,-992.59,131.25,-770.0,-210.0,1,95.187,
01/01/2000,01:19:33.50,20.50,-59.78,-992.59,87.50,-630.0,-210.0,1,95.213,
01/01/2000,01:19:33.51,20.50,-59.90,-992.47,280.0,-700.0,-96.25,1,95.238,
01/01/2000,01:19:33.52,20.37,-59.90,-992.47,175.0,-647.50,-140.0,1,94.764,
01/01/2000,01:19:33.53,20.74,-59.78,-992.59,306.25,-647.50,-306.25,1,94.792,
01/01/2000,01:19:33.54,20.62,-59.90,-992.59,280.0,-665.0,-306.25,1,94.819,
01/01/2000,01:19:33.55,20.74,-59.66,-992.71,113.75,-726.25,-192.50,1,94.845,
01/01/2000,01:19:33.56,20.50,-59.66,-992.71,271.25,-700.0,-245.0,1,94.872,
01/01/2000,01:19:33.57,20.50,-59.54,-992.59,-35.0,-673.75,-166.25,1,94.898,
01/01/2000,01:19:33.58,20.50,-59.54,-992.59,140.0,-700.0,-262.50,1,94.924,
01/01/2000,01:19:33.60,20.62,-59.54,-992.59,262.50,-700.0,-157.50,1,94.949,
01/01/2000,01:19:33.61,20.62,-59.54,-992.59,253.75,-708.75,-131.25,1,94.975,
01/01/2000,01:19:33.62,20.50,-59.66,-992.35,96.25,-638.75,-140.0,1,95.0,
01/01/2000,01:19:33.63,20.74,-59.66,-992.35,113.75,-691.25,-218.75,1,95.025,
01/01/2000,01:19:33.64,20.62,-59.66,-992.47,96.25,-673.75,-262.50,1,95.050,
01/01/2000,01:19:33.65,20.50,-59.66,-992.59,96.25,-673.75,-236.25,1,95.074,
01/01/2000,01:19:33.66,20.25,-59.78,-992.59,157.50,-761.25,-87.50,1,95.098,
01/01/2000,01:19:33.67,20.62,-59.66,-992.71,26.25,-752.50,-280.0,1,94.660,
01/01/2000,01:19:33.69,20.50,-59.66,-992.71,70.0,-691.25,-157.50,1,94.686,
01/01/2000,01:19:33.70,20.25,-59.90,-992.59,140.0,-630.0,-70.0,1,94.712,
01/01/2000,01:19:33.71,20.50,-59.66,-992.59,210.0,-673.75,-201.25,1,94.737,
01/01/2000,01:19:33.72,20.50,-59.54,-992.71,183.75,-717.50,-245.0,1,94.762,
01/01/2000,01:19:33.73,20.74,-59.54,-992.84,210.0,-735.0,-113.75,1,94.787,
01/01/2000,01:19:33.74,20.37,-59.90,-992.59,113.75,-647.50,52.50,1,94.811,
01/01/2000,01:19:33.75,20.25,-59.90,-992.35,61.25,-560.0,-210.0,1,94.836,
01/01/2000,01:19:33.76,20.50,-59.78,-992.35,131.25,-647.50,-350.0,1,94.860,
01/01/2000,01:19:33.77,20.74,-59.66,-992.59,96.25,-682.50,-148.75,1,94.884,
01/01/2000,01:19:33.78,20.62,-59.66,-992.59,140.0,-787.50,-105.0,1,94.907,
01/01/2000,01:19:33.79,20.37,-59.78,-992.35,210.0,-638.75,17.50,1,94.931,
01/01/2000,01:19:33.80,20.50,-59.90,-992.10,105.0,-560.0,-288.75,1,94.954,
01/01/2000,01:19:33.81,20.74,-59.78,-992.35,210.0,-717.50,-385.0,1,94.977,
01/01/2000,01:19:33.82,20.86,-59.66,-992.47,113.75,-673.75,-288.75,1,95.0,
01/01/2000,01:19:33.83,20.74,-59.54,-992.23,175.0,-463.75,52.50,1,95.023,
01/01/2000,01:19:33.84,20.37,-59.66,-991.86,236.25,-778.75,-61.25,1,95.045,
01/01/2000,01:19:33.85,20.62,-59.66,-992.10,166.25,-778.75,-253.75,1,95.067,
01/01/2000,01:19:33.86,20.86,-59.54,-992.59,218.75,-717.50,-315.0,1,95.089,
01/01/2000,01:19:33.87,20.98,-59.54,-992.59,61.25,-656.25,-157.50,1,94.690,
01/01/2000,01:19:33.88,20.74,-59.66,-992.35,262.50,-778.75,43.75,1,94.714,
01/01/2000,01:19:33.89,20.50,-59.66,-992.10,236.25,-638.75,-105.0,1,94.737,
01/01/2000,01:19:33.90,20.74,-59.54,-992.35,140.0,-700.0,-297.50,1,94.760,
01/01/2000,01:19:33.91,20.98,-59.54,-992.71,192.50,-691.25,-271.25,1,94.783,
01/01/2000,01:19:33.92,20.74,-59.54,-992.59,140.0,-673.75,-175.0,1,94.805,
01/01/2000,01:19:33.93,20.50,-59.78,-992.10,43.75,-717.50,61.25,1,94.828,
01/01/2000,01:19:33.95,20.50,-59.54,-991.98,192.50,-752.50,-113.75,1,94.850,
01/01/2000,01:19:33.96,20.74,-59.41,-992.59,227.50,-603.75,-350.0,1,94.872,
01/01/2000,01:19:33.97,20.86,-59.41,-992.59,227.50,-726.25,-43.75,1,94.894,
01/01/2000,01:19:33.98,20.74,-59.54,-992.47,157.50,-647.50,-43.75,1,94.915,
01/01/2000,01:19:33.99,20.50,-59.66,-992.10,175.0,-691.25,218.75,1,94.937,
01/01/2000,01:19:34.00,20.62,-59.54,-992.10,183.75,-656.25,-245.0,1,94.958,
01/01/2000,01:19:34.01,20.98,-59.41,-992.59,175.0,-673.75,-288.75,1,94.979,
01/01/2000,01:19:34.02,21.11,-59.66,-992.71,218.75,-647.50,-8.75,1,95.0,
01/01/2000,01:19:34.03,20.74,-59.78,-992.35,280.0,-665.0,183.75,1,95.021,
01/01/2000,01:19:34.04,20.50,-60.02,-992.23,105.0,-717.50,157.50,1,95.041,
01/01/2000,01:19:34.05,20.74,-59.90,-992.35,113.75,-752.50,-262.50,1,95.062,
01/01/2000,01:19:34.06,20.98,-59.78,-992.71,157.50,-778.75,-315.0,1,95.082,
01/01/2000,01:19:34.07,20.86,-59.78,-992.59,96.25,-647.50,0.0,1,95.102,
01/01/2000,01:19:34.08,20.62,-60.02,-992.35,131.25,-726.25,52.50,1,95.122,
01/01/2000,01:19:34.09,20.62,-59.90,-992.35,113.75,-717.50,-87.50,1,94.758,
01/01/2000,01:19:34.10,20.86,-59.54,-992.59,157.50,-787.50,-306.25,1,94.779,
01/01/2000,01:19:34.11,20.98,-59.41,-992.59,140.0,-647.50,-122.50,1,94.800,
01/01/2000,01:19:34.12,20.86,-59.66,-992.47,288.75,-691.25,8.75,1,94.821,
01/01/2000,01:19:34.13,20.62,-59.78,-992.47,87.50,-630.0,210.0,1,94.841,
01/01/2000,01:19:34.15,20.62,-59.66,-992.35,218.75,-630.0,-96.25,1,94.862,
01/01/2000,01:19:34.16,21.11,-59.54,-992.59,148.75,-638.75,-306.25,1,94.882,
01/01/2000,01:19:34.17,21.23,-59.54,-992.84,87.50,-673.75,-201.25,1,94.902,
01/01/2000,01:19:34.18,20.98,-60.02,-992.84,192.50,-612.50,78.75,1,94.553,
01/01/2000,01:19:34.19,20.74,-60.02,-992.71,245.0,-577.50,-17.50,1,94.574,
01/01/2000,01:19:34.20,20.98,-59.90,-992.84,175.0,-656.25,-367.50,1,94.595,
01/01/2000,01:19:34.21,20.98,-59.66,-992.84,288.75,-787.50,-262.50,1,94.615,
01/01/2000,01:19:34.22,20.98,-59.90,-992.71,245.0,-638.75,-43.75,1,94.636,
01/01/2000,01:19:34.23,20.74,-60.02,-992.35,122.50,-647.50,-17.50,1,94.656,
01/01/2000,01:19:34.25,20.74,-60.15,-992.35,183.75,-665.0,17.50,1,94.677,
01/01/2000,01:19:34.26,20.74,-59.90,-992.47,105.0,-717.50,-236.25,1,94.697,
01/01/2000,01:19:34.27,20.98,-59.78,-992.59,61.25,-673.75,-280.0,1,94.717,
01/01/2000,01:19:34.28,20.98,-59.78,-992.35,96.25,-691.25,-122.50,1,94.737,
01/01/2000,01:19:34.29,20.86,-60.02,-992.23,175.0,-630.0,35.0,1,94.757,
01/01/2000,01:19:34.30,20.86,-60.02,-992.10,131.25,-691.25,-8.75,1,94.776,
01/01/2000,01:19:34.31,21.11,-59.78,-992.35,43.75,-717.50,-236.25,1,94.796,
01/01/2000,01:19:34.32,21.23,-59.66,-992.35,148.75,-717.50,-315.0,1,94.815,
01/01/2000,01:19:34.33,20.98,-60.02,-992.10,201.25,-630.0,-35.0,1,94.834,
01/01/2000,01:19:34.34,20.62,-60.02,-991.86,105.0,-761.25,8.75,1,94.853,
01/01/2000,01:19:34.35,20.50,-60.02,-991.86,131.25,-735.0,-113.75,1,94.872,
01/01/2000,01:19:34.36,20.74,-59.78,-991.98,183.75,-673.75,-271.25,1,94.891,
01/01/2000,01:19:34.37,20.74,-59.90,-992.10,122.50,-708.75,-218.75,1,94.909,
01/01/2000,01:19:34.38,20.50,-60.02,-991.98,201.25,-735.0,-17.50,1,94.928,
01/01/2000,01:19:34.39,20.37,-60.02,-991.86,52.50,-647.50,-78.75,1,94.946,
01/01/2000,01:19:34.40,20.62,-59.90,-991.98,131.25,-735.0,-253.75,1,94.964,
01/01/2000,01:19:34.41,20.86,-59.78,-992.47,218.75,-647.50,-227.50,1,94.982,
01/01/2000,01:19:34.42,20.98,-59.78,-992.59,245.0,-525.0,-166.25,1,95.0,
01/01/2000,01:19:34.43,20.74,-59.78,-992.35,43.75,-743.75,-140.0,1,95.018,
01/01/2000,01:19:34.44,20.62,-59.78,-992.10,227.50,-647.50,-43.75,1,94.700,
01/01/2000,01:19:34.45,20.62,-59.90,-992.23,323.75,-805.0,-262.50,1,94.718,
01/01/2000,01:19:34.46,20.74,-59.78,-992.59,210.0,-708.75,-210.0,1,94.737,
01/01/2000,01:19:34.47,20.74,-59.66,-992.59,35.0,-752.50,-78.75,1,94.755,
01/01/2000,01:19:34.48,20.50,-59.78,-992.23,210.0,-717.50,26.25,1,94.774,
01/01/2000,01:19:34.50,20.50,-59.78,-992.10,96.25,-778.75,-113.75,1,94.792,
01/01/2000,01:19:34.50,20.62,-59.90,-992.10,166.25,-638.75,-315.0,1,94.810,
01/01/2000,01:19:34.52,20.74,-59.78,-992.23,148.75,-691.25,-175.0,1,94.828,
01/01/2000,01:19:34.53,20.50,-59.78,-992.23,148.75,-630.0,17.50,1,94.845,
01/01/2000,01:19:34.54,20.50,-59.78,-992.10,183.75,-595.0,43.75,1,94.863,
01/01/2000,01:19:34.55,20.50,-59.78,-992.23,262.50,-682.50,-157.50,1,94.881,
01/01/2000,01:19:34.56,20.62,-59.78,-992.59,192.50,-682.50,-297.50,1,94.898,
01/01/2000,01:19:34.57,20.62,-59.90,-992.71,157.50,-743.75,-140.0,1,94.915,
01/01/2000,01:19:34.58,20.50,-60.02,-992.59,227.50,-691.25,-43.75,1,94.932,
01/01/2000,01:19:34.59,20.01,-59.78,-992.59,-61.25,-472.50,-131.25,1,94.631,
01/01/2000,01:19:34.60,20.25,-60.02,-992.59,455.0,-761.25,-113.75,1,94.649,
01/01/2000,01:19:34.61,20.98,-59.17,-992.35,-350.0,-665.0,-463.75,1,94.667,
01/01/2000,01:19:34.62,21.23,-59.78,-992.10,-131.25,-743.75,-253.75,1,94.684,
01/01/2000,01:19:34.63,20.01,-60.51,-992.10,490.0,-717.50,288.75,1,94.702,
01/01/2000,01:19:34.64,19.89,-60.02,-992.35,-52.50,-647.50,17.50,1,94.719,
01/01/2000,01:19:34.66,20.62,-59.78,-992.84,358.75,-796.25,-577.50,1,94.737,
01/01/2000,01:19:34.67,20.86,-59.29,-992.71,-105.0,-735.0,-157.50,1,94.754,
01/01/2000,01:19:34.68,20.62,-59.66,-992.10,323.75,-770.0,140.0,1,94.771,
01/01/2000,01:19:34.69,20.25,-60.27,-992.10,358.75,-708.75,-218.75,1,94.788,
01/01/2000,01:19:34.70,20.74,-60.15,-992.71,192.50,-691.25,-350.0,1,94.805,
01/01/2000,01:19:34.71,20.74,-60.02,-992.96,175.0,-630.0,-315.0,1,94.822,
01/01/2000,01:19:34.72,20.74,-59.78,-992.71,105.0,-726.25,-280.0,1,94.839,
01/01/2000,01:19:34.73,20.62,-59.78,-991.98,70.0,-630.0,-113.75,1,94.551,
01/01/2000,01:19:34.74,20.25,-60.15,-992.10,166.25,-796.25,-61.25,1,94.569,
01/01/2000,01:19:34.75,20.37,-60.02,-992.59,140.0,-630.0,-271.25,1,94.586,
01/01/2000,01:19:34.76,20.74,-60.27,-992.96,131.25,-595.0,-402.50,1,94.603,
01/01/2000,01:19:34.77,20.74,-60.15,-992.84,166.25,-603.75,-43.75,1,94.620,
01/01/2000,01:19:34.78,20.50,-60.02,-992.47,227.50,-796.25,-113.75,1,94.637,
01/01/2000,01:19:34.79,20.37,-59.90,-992.10,253.75,-700.0,-192.50,1,94.654,
01/01/2000,01:19:34.80,20.62,-59.78,-992.35,140.0,-682.50,-297.50,1,94.671,
01/01/2000,01:19:34.81,20.50,-59.90,-992.84,280.0,-656.25,-183.75,1,94.688,
01/01/2000,01:19:34.82,20.50,-59.90,-992.96,166.25,-778.75,-175.0,1,94.704,
01/01/2000,01:19:34.83,20.50,-60.02,-992.35,113.75,-673.75,-253.75,1,94.720,
01/01/2000,01:19:34.85,20.25,-59.90,-992.10,210.0,-717.50,-245.0,1,94.737,
01/01/2000,01:19:34.85,20.25,-59.78,-992.10,210.0,-630.0,-332.50,1,94.753,
01/01/2000,01:19:34.87,20.62,-59.78,-992.59,131.25,-700.0,-341.25,1,94.769,
01/01/2000,01:19:34.88,20.74,-59.78,-992.59,175.0,-735.0,-166.25,1,94.785,
01/01/2000,01:19:34.89,20.50,-60.02,-992.59,218.75,-577.50,17.50,1,94.801,
01/01/2000,01:19:34.90,20.50,-59.78,-992.35,87.50,-778.75,-245.0,1,94.817,
01/01/2000,01:19:34.91,20.62,-59.78,-992.23,105.0,-778.75,-271.25,1,94.833,
01/01/2000,01:19:34.92,20.74,-59.54,-992.59,113.75,-682.50,-148.75,1,94.848,
01/01/2000,01:19:34.93,20.50,-59.78,-992.84,113.75,-682.50,-52.50,1,94.864,
01/01/2000,01:19:34.94,20.50,-59.78,-992.47,166.25,-691.25,-175.0,1,94.595,
01/01/2000,01:19:34.95,20.50,-59.66,-992.23,227.50,-761.25,-315.0,1,94.611,
01/01/2000,01:19:34.96,20.62,-59.66,-992.23,140.0,-761.25,-280.0,1,94.627,
01/01/2000,01:19:34.97,20.74,-59.66,-992.35,87.50,-595.0,-262.50,1,94.643,
01/01/2000,01:19:34.98,20.98,-59.78,-992.35,70.0,-691.25,-315.0,1,94.659,
01/01/2000,01:19:34.99,20.74,-60.02,-992.47,78.75,-665.0,-262.50,1,94.675,
01/01/2000,01:19:35.00,20.50,-60.02,-992.47,87.50,-665.0,-166.25,1,94.690,
01/01/2000,01:19:35.02,20.74,-59.78,-992.35,218.75,-638.75,-358.75,1,94.706,
01/01/2000,01:19:35.03,20.86,-59.54,-992.35,218.75,-682.50,-192.50,1,94.721,
01/01/2000,01:19:35.04,20.86,-59.78,-992.59,78.75,-630.0,-78.75,1,94.737,
01/01/2000,01:19:35.05,20.74,-59.90,-992.59,131.25,-735.0,-183.75,1,94.752,
01/01/2000,01:19:35.06,20.74,-59.78,-992.35,175.0,-691.25,-358.75,1,94.767,
01/01/2000,01:19:35.07,20.86,-59.66,-992.35,166.25,-708.75,-323.75,1,94.783,
01/01/2000,01:19:35.08,20.86,-59.54,-992.35,218.75,-621.25,-297.50,1,94.798,
01/01/2000,01:19:35.09,20.74,-59.66,-992.23,245.0,-638.75,-166.25,1,94.813,
01/01/2000,01:19:35.10,20.74,-59.78,-992.10,236.25,-665.0,-253.75,1,94.828,
01/01/2000,01:19:35.11,20.74,-59.78,-992.23,227.50,-761.25,-315.0,1,94.842,
01/01/2000,01:19:35.12,20.74,-59.78,-992.35,78.75,-735.0,-332.50,1,94.857,
01/01/2000,01:19:35.13,20.74,-59.66,-992.35,245.0,-700.0,-175.0,1,94.872,
01/01/2000,01:19:35.14,20.50,-59.54,-992.10,26.25,-577.50,-210.0,1,94.886,
01/01/2000,01:19:35.15,20.50,-59.78,-992.10,437.50,-743.75,-297.50,1,94.633,
01/01/2000,01:19:35.16,20.62,-59.78,-992.23,17.50,-813.75,-315.0,1,94.648,
01/01/2000,01:19:35.17,20.50,-59.90,-992.10,227.50,-700.0,-306.25,1,94.663,
01/01/2000,01:19:35.18,20.50,-59.78,-992.10,157.50,-700.0,-253.75,1,94.678,
01/01/2000,01:19:35.19,20.62,-59.90,-992.10,140.0,-665.0,-140.0,1,94.693,
01/01/2000,01:19:35.21,20.62,-60.02,-992.23,271.25,-595.0,-245.0,1,94.708,
01/01/2000,01:19:35.22,20.50,-60.02,-992.35,166.25,-708.75,-280.0,1,94.722,
01/01/2000,01:19:35.23,20.62,-60.02,-992.35,140.0,-717.50,-271.25,1,94.737,
01/01/2000,01:19:35.24,20.74,-59.90,-992.35,113.75,-708.75,-148.75,1,94.751,
01/01/2000,01:19:35.25,20.62,-60.15,-992.23,105.0,-796.25,-253.75,1,94.766,
01/01/2000,01:19:35.26,20.62,-60.27,-992.35,131.25,-717.50,-227.50,1,94.780,
01/01/2000,01:19:35.27,20.74,-60.02,-992.35,210.0,-612.50,-341.25,1,94.795,
01/01/2000,01:19:35.28,20.74,-60.02,-992.23,288.75,-673.75,-227.50,1,94.809,
01/01/2000,01:19:35.29,20.50,-60.27,-992.10,192.50,-665.0,-166.25,1,94.565,
01/01/2000,01:19:35.30,20.50,-60.02,-992.23,78.75,-813.75,-210.0,1,94.580,
01/01/2000,01:19:35.31,20.62,-60.02,-992.10,192.50,-568.75,-288.75,1,94.595,
01/01/2000,01:19:35.32,20.74,-60.02,-992.23,43.75,-848.75,-271.25,1,94.609,
01/01/2000,01:19:35.33,20.62,-60.15,-992.35,166.25,-691.25,-245.0,1,94.624,
01/01/2000,01:19:35.34,20.50,-60.02,-992.10,227.50,-682.50,-262.50,1,94.638,
01/01/2000,01:19:35.35,20.50,-60.02,-992.10,183.75,-595.0,-428.75,1,94.652,
01/01/2000,01:19:35.36,20.62,-60.02,-992.23,253.75,-691.25,-271.25,1,94.667,
01/01/2000,01:19:35.37,20.74,-60.02,-992.23,78.75,-752.50,-175.0,1,94.681,
01/01/2000,01:19:35.38,20.74,-60.02,-992.23,122.50,-673.75,-306.25,1,94.695,
01/01/2000,01:19:35.39,20.86,-60.02,-992.10,157.50,-673.75,-385.0,1,94.709,
01/01/2000,01:19:35.40,20.74,-60.02,-992.10,140.0,-735.0,-271.25,1,94.723,
01/01/2000,01:19:35.41,20.74,-60.02,-992.23,175.0,-735.0,-367.50,1,94.737,
01/01/2000,01:19:35.43,20.74,-59.90,-992.10,87.50,-638.75,-105.0,1,94.751,
01/01/2000,01:19:35.44,20.74,-60.02,-992.10,210.0,-761.25,-245.0,1,94.764,
01/01/2000,01:19:35.45,20.62,-60.15,-992.23,96.25,-673.75,-315.0,1,94.778,
01/01/2000,01:19:35.46,20.74,-60.02,-992.35,280.0,-638.75,-332.50,1,94.792,
01/01/2000,01:19:35.47,20.74,-59.78,-992.35,61.25,-735.0,-227.50,1,94.805,
01/01/2000,01:19:35.48,20.50,-59.78,-992.35,175.0,-726.25,-201.25,1,94.819,
01/01/2000,01:19:35.49,20.50,-59.78,-992.35,166.25,-708.75,-166.25,1,94.832,
01/01/2000,01:19:35.50,20.50,-60.02,-992.35,280.0,-778.75,-306.25,1,94.602,
01/01/2000,01:19:35.51,20.62,-59.78,-992.35,183.75,-761.25,-262.50,1,94.615,
01/01/2000,01:19:35.52,20.62,-59.78,-992.35,218.75,-682.50,-323.75,1,94.629,
01/01/2000,01:19:35.53,20.37,-59.78,-992.10,131.25,-726.25,-227.50,1,94.643,
01/01/2000,01:19:35.54,20.25,-59.78,-992.10,183.75,-682.50,-306.25,1,94.656,
01/01/2000,01:19:35.55,20.37,-59.66,-992.35,218.75,-665.0,-385.0,1,94.670,
01/01/2000,01:19:35.56,20.50,-59.66,-992.59,113.75,-761.25,-271.25,1,94.684,
01/01/2000,01:19:35.58,20.25,-59.66,-992.59,105.0,-708.75,-166.25,1,94.697,
01/01/2000,01:19:35.59,20.25,-59.78,-992.47,245.0,-700.0,-358.75,1,94.710,
01/01/2000,01:19:35.60,20.37,-59.78,-992.59,201.25,-726.25,-367.50,1,94.724,
01/01/2000,01:19:35.61,20.50,-59.66,-992.59,385.0,-822.50,-280.0,1,94.737,
01/01/2000,01:19:35.62,20.37,-59.78,-992.59,245.0,-656.25,-245.0,1,94.750,
01/01/2000,01:19:35.63,20.37,-59.78,-992.35,166.25,-682.50,-262.50,1,94.763,
01/01/2000,01:19:35.64,20.50,-59.78,-992.35,96.25,-708.75,-332.50,1,94.776,
01/01/2000,01:19:35.65,20.62,-59.78,-992.47,192.50,-717.50,-297.50,1,94.789,
01/01/2000,01:19:35.66,20.74,-59.78,-992.35,157.50,-743.75,-385.0,1,94.802,
01/01/2000,01:19:35.67,20.74,-59.78,-992.35,43.75,-726.25,-157.50,1,94.815,
01/01/2000,01:19:35.68,20.74,-59.78,-992.35,175.0,-761.25,-201.25,1,94.828,
01/01/2000,01:19:35.69,20.62,-59.78,-992.23,210.0,-682.50,-280.0,1,94.840,
01/01/2000,01:19:35.70,20.74,-59.78,-992.35,122.50,-656.25,-376.25,1,94.853,
01/01/2000,01:19:35.72,20.74,-59.78,-992.59,236.25,-700.0,-245.0,1,94.634,
01/01/2000,01:19:35.73,20.62,-59.78,-992.59,227.50,-778.75,-262.50,1,94.647,
01/01/2000,01:19:35.74,20.62,-59.78,-992.47,201.25,-735.0,-323.75,1,94.660,
01/01/2000,01:19:35.75,20.50,-59.78,-992.47,8.75,-761.25,-376.25,1,94.673,
01/01/2000,01:19:35.76,20.50,-59.78,-992.59,236.25,-752.50,-358.75,1,94.686,
01/01/2000,01:19:35.77,20.50,-59.78,-992.59,218.75,-770.0,-358.75,1,94.699,
01/01/2000,01:19:35.78,20.74,-59.78,-992.59,140.0,-743.75,-358.75,1,94.712,
01/01/2000,01:19:35.79,20.86,-59.78,-992.59,140.0,-621.25,-306.25,1,94.724,
01/01/2000,01:19:35.80,20.86,-59.90,-992.59,52.50,-822.50,-297.50,1,94.737,
01/01/2000,01:19:35.81,20.98,-60.02,-992.59,192.50,-682.50,-253.75,1,94.749,
01/01/2000,01:19:35.82,20.74,-60.02,-992.47,297.50,-647.50,-288.75,1,94.762,
01/01/2000,01:19:35.83,20.74,-59.90,-992.35,140.0,-682.50,-402.50,1,94.774,
01/01/2000,01:19:35.84,20.62,-59.90,-992.23,157.50,-735.0,-262.50,1,94.787,
01/01/2000,01:19:35.85,20.50,-60.02,-992.47,122.50,-638.75,-227.50,1,94.575,
01/01/2000,01:19:35.86,20.62,-60.02,-992.59,183.75,-656.25,-376.25,1,94.588,
01/01/2000,01:19:35.87,20.74,-60.02,-992.71,157.50,-630.0,-218.75,1,94.601,
01/01/2000,01:19:35.88,20.74,-60.02,-992.59,105.0,-612.50,-332.50,1,94.614,
01/01/2000,01:19:35.89,20.62,-60.02,-992.47,148.75,-665.0,-262.50,1,94.626,
01/01/2000,01:19:35.90,20.62,-59.90,-992.59,70.0,-630.0,-262.50,1,94.639,
01/01/2000,01:19:35.91,20.62,-59.90,-992.59,236.25,-752.50,-350.0,1,94.651,
01/01/2000,01:19:35.92,20.74,-60.02,-992.71,148.75,-735.0,-262.50,1,94.664,
01/01/2000,01:19:35.93,20.50,-60.02,-992.84,140.0,-577.50,-262.50,1,94.676,
01/01/2000,01:19:35.94,20.50,-60.15,-992.59,157.50,-743.75,-315.0,1,94.688,
01/01/2000,01:19:35.96,20.50,-60.02,-992.35,148.75,-735.0,-332.50,1,94.700,
01/01/2000,01:19:35.97,20.50,-59.90,-992.23,113.75,-700.0,-183.75,1,94.713,
01/01/2000,01:19:35.98,20.50,-59.90,-992.23,166.25,-787.50,-306.25,1,94.725,
01/01/2000,01:19:35.99,20.37,-60.02,-992.23,70.0,-726.25,-288.75,1,94.737,
01/01/2000,01:19:36.00,20.37,-59.90,-992.23,201.25,-752.50,-297.50,1,94.749,
01/01/2000,01:19:36.01,20.37,-60.02,-992.23,183.75,-752.50,-262.50,1,94.761,
01/01/2000,01:19:36.02,20.50,-59.90,-992.23,227.50,-673.75,-332.50,1,94.773,
01/01/2000,01:19:36.03,20.50,-60.02,-992.35,236.25,-743.75,-297.50,1,94.785,
01/01/2000,01:19:36.04,20.50,-60.02,-992.35,236.25,-752.50,-306.25,1,94.796,
01/01/2000,01:19:36.05,20.50,-60.02,-992.35,96.25,-717.50,-262.50,1,94.808,
01/01/2000,01:19:36.06,20.37,-60.02,-992.23,183.75,-778.75,-262.50,1,94.607,
01/01/2000,01:19:36.07,20.50,-59.90,-992.23,218.75,-813.75,-280.0,1,94.619,
01/01/2000,01:19:36.08,20.62,-59.90,-992.23,131.25,-551.25,-245.0,1,94.631,
01/01/2000,01:19:36.09,20.50,-60.02,-992.10,52.50,-787.50,-367.50,1,94.643,
01/01/2000,01:19:36.10,20.37,-59.90,-992.23,183.75,-682.50,-218.75,1,94.655,
01/01/2000,01:19:36.11,20.25,-59.90,-992.10,140.0,-787.50,-350.0,1,94.667,
01/01/2000,01:19:36.12,20.37,-59.78,-992.23,271.25,-708.75,-306.25,1,94.678,
01/01/2000,01:19:36.14,20.37,-59.90,-992.10,140.0,-673.75,-253.75,1,94.690,
01/01/2000,01:19:36.15,20.37,-59.66,-992.23,175.0,-700.0,-350.0,1,94.702,
01/01/2000,01:19:36.16,20.37,-59.78,-992.10,122.50,-691.25,-262.50,1,94.714,
01/01/2000,01:19:36.17,20.50,-59.78,-992.23,87.50,-612.50,-306.25,1,94.725,
01/01/2000,01:19:36.18,20.50,-59.78,-992.35,78.75,-813.75,-358.75,1,94.737,
01/01/2000,01:19:36.19,20.50,-59.66,-992.35,96.25,-647.50,-315.0,1,94.748,
01/01/2000,01:19:36.20,20.50,-59.78,-992.10,262.50,-665.0,-210.0,1,94.760,
01/01/2000,01:19:36.21,20.50,-59.78,-992.10,113.75,-682.50,-245.0,1,94.771,
01/01/2000,01:19:36.23,20.62,-59.78,-992.23,262.50,-682.50,-323.75,1,94.577,
01/01/2000,01:19:36.24,20.50,-60.02,-992.23,140.0,-691.25,-236.25,1,94.589,
01/01/2000,01:19:36.25,20.50,-60.15,-992.10,166.25,-691.25,-262.50,1,94.600,
01/01/2000,01:19:36.26,20.37,-59.90,-992.35,201.25,-708.75,-288.75,1,94.612,
01/01/2000,01:19:36.27,20.50,-60.02,-992.35,148.75,-665.0,-253.75,1,94.624,
01/01/2000,01:19:36.28,20.37,-59.90,-992.35,166.25,-621.25,-253.75,1,94.635,
01/01/2000,01:19:36.29,20.37,-60.02,-992.23,140.0,-673.75,-253.75,1,94.647,
01/01/2000,01:19:36.30,18.91,-59.54,-971.85,306.25,446.25,2756.25,1,94.658,
01/01/2000,01:19:36.31,8.30,-58.56,-945.50,1102.50,-1312.50,4103.75,1,94.670,
01/01/2000,01:19:36.32,13.05,-57.34,-967.22,-1671.25,-1811.25,-43.75,1,94.681,
01/01/2000,01:19:36.33,22.94,-66.37,-1005.40,1522.50,-927.50,-1960.0,1,94.692,
01/01/2000,01:19:36.34,29.65,-63.68,-1037.0,-183.75,183.75,-1881.25,1,94.703,
01/01/2000,01:19:36.35,27.82,-59.05,-1039.68,743.75,122.50,1277.50,1,94.515,
01/01/2000,01:19:36.36,25.38,-54.05,-1017.11,-131.25,-262.50,-253.75,1,94.526,
01/01/2000,01:19:36.37,21.23,-53.19,-990.88,542.50,-901.25,253.75,1,94.538,
01/01/2000,01:19:36.38,19.03,-55.88,-973.19,78.75,-1268.75,1942.50,1,94.549,
01/01/2000,01:19:36.39,19.76,-65.15,-976.37,218.75,-1198.75,227.50,1,94.561,
01/01/2000,01:19:36.40,21.84,-67.59,-991.86,218.75,-980.0,-1592.50,1,94.572,
01/01/2000,01:19:36.42,23.18,-61.73,-1007.72,157.50,-428.75,-2126.25,1,94.583,
01/01/2000,01:19:36.43,21.23,-55.75,-1005.40,280.0,-341.25,-87.50,1,94.595,
01/01/2000,01:19:36.44,19.03,-51.36,-996.98,87.50,-402.50,953.75,1,94.606,
01/01/2000,01:19:36.45,18.42,-52.95,-987.96,175.0,-700.0,1023.75,1,94.617,
01/01/2000,01:19:36.46,20.01,-61.49,-982.22,201.25,-848.75,-17.50,1,94.628,
01/01/2000,01:19:36.47,21.84,-66.49,-986.13,105.0,-1067.50,-1251.25,1,94.639,
01/01/2000,01:19:36.48,23.18,-67.34,-992.23,78.75,-848.75,-2100.0,1,94.650,
01/01/2000,01:19:36.49,21.84,-60.51,-996.01,105.0,-612.50,-1426.25,1,94.661,
01/01/2000,01:19:36.50,19.76,-54.90,-994.06,201.25,-568.75,665.0,1,94.672,
01/01/2000,01:19:36.51,18.18,-52.95,-989.79,236.25,-630.0,1636.25,1,94.683,
01/01/2000,01:19:36.52,18.54,-57.22,-989.05,105.0,-621.25,1338.75,1,94.694,
01/01/2000,01:19:36.53,20.37,-62.46,-990.40,-26.25,-787.50,-621.25,1,94.705,
01/01/2000,01:19:36.54,22.20,-65.88,-992.47,113.75,-752.50,-1995.0,1,94.715,
01/01/2000,01:19:36.55,22.20,-63.81,-992.84,148.75,-805.0,-1505.0,1,94.534,
01/01/2000,01:19:36.56,20.62,-59.41,-991.49,157.50,-743.75,-8.75,1,94.545,
01/01/2000,01:19:36.57,18.54,-54.90,-991.01,201.25,-647.50,621.25,1,94.556,
01/01/2000,01:19:36.58,18.54,-55.63,-991.98,35.0,-603.75,498.75,1,94.567,
01/01/2000,01:19:36.59,19.52,-58.93,-993.32,306.25,-656.25,35.0,1,94.578,
01/01/2000,01:19:36.60,20.74,-62.10,-993.57,113.75,-673.75,-1041.25,1,94.589,
01/01/2000,01:19:36.61,21.59,-63.68,-991.74,105.0,-691.25,-1015.0,1,94.600,
01/01/2000,01:19:36.63,21.35,-60.51,-990.40,201.25,-857.50,-455.0,1,94.611,
01/01/2000,01:19:36.64,20.01,-58.19,-991.13,140.0,-735.0,-78.75,1,94.622,
01/01/2000,01:19:36.65,19.28,-57.10,-992.84,332.50,-726.25,105.0,1,94.632,
01/01/2000,01:19:36.66,19.15,-57.58,-994.18,96.25,-551.25,-61.25,1,94.643,
01/01/2000,01:19:36.67,19.52,-59.41,-993.81,166.25,-568.75,-393.75,1,94.653,
01/01/2000,01:19:36.68,20.74,-61.49,-991.49,78.75,-612.50,-665.0,1,94.664,
01/01/2000,01:19:36.69,21.35,-61.98,-990.40,201.25,-813.75,-752.50,1,94.675,
01/01/2000,01:19:36.70,21.11,-60.51,-991.13,218.75,-743.75,-358.75,1,94.499,
01/01/2000,01:19:36.71,20.37,-59.29,-992.84,35.0,-717.50,-393.75,1,94.510,
01/01/2000,01:19:36.72,19.52,-58.44,-993.93,131.25,-533.75,-157.50,1,94.521,
01/01/2000,01:19:36.74,19.40,-58.80,-993.20,271.25,-586.25,-280.0,1,94.531,
01/01/2000,01:19:36.75,20.62,-60.39,-991.37,105.0,-682.50,-332.50,1,94.542,
01/01/2000,01:19:36.76,21.23,-61.24,-991.13,-17.50,-875.0,-332.50,1,94.553,
01/01/2000,01:19:36.77,21.11,-61.24,-992.35,26.25,-857.50,-472.50,1,94.563,
01/01/2000,01:19:36.78,20.37,-60.51,-992.96,183.75,-577.50,-525.0,1,94.574,
01/01/2000,01:19:36.79,19.76,-59.29,-993.08,166.25,-673.75,-455.0,1,94.584,
01/01/2000,01:19:36.80,19.52,-58.44,-992.84,96.25,-533.75,-140.0,1,94.595,
01/01/2000,01:19:36.81,19.89,-58.56,-992.23,105.0,-656.25,-201.25,1,94.605,
01/01/2000,01:19:36.82,20.98,-60.02,-991.98,175.0,-778.75,-280.0,1,94.615,
01/01/2000,01:19:36.83,21.23,-61.12,-992.10,140.0,-682.50,-472.50,1,94.626,
01/01/2000,01:19:36.84,20.98,-61.37,-992.59,192.50,-743.75,-595.0,1,94.636,
01/01/2000,01:19:36.85,20.25,-60.02,-992.71,210.0,-691.25,-490.0,1,94.646,
01/01/2000,01:19:36.86,20.13,-58.80,-992.47,175.0,-621.25,-183.75,1,94.656,
01/01/2000,01:19:36.87,20.13,-58.32,-992.35,70.0,-673.75,-166.25,1,94.667,
01/01/2000,01:19:36.88,20.25,-58.80,-992.35,245.0,-612.50,-315.0,1,94.677,
01/01/2000,01:19:36.89,20.50,-60.39,-992.35,210.0,-735.0,-385.0,1,94.687,
01/01/2000,01:19:36.90,20.74,-61.0,-992.23,140.0,-700.0,-428.75,1,94.697,
01/01/2000,01:19:36.91,20.50,-60.39,-992.10,140.0,-813.75,-525.0,1,94.528,
01/01/2000,01:19:36.92,20.25,-59.54,-992.23,350.0,-761.25,-437.50,1,94.539,
01/01/2000,01:19:36.93,20.01,-58.80,-992.59,105.0,-673.75,-140.0,1,94.549,
01/01/2000,01:19:36.94,19.89,-59.05,-992.84,105.0,-752.50,-78.75,1,94.559,
01/01/2000,01:19:36.96,20.01,-60.02,-992.84,166.25,-743.75,-385.0,1,94.569,
01/01/2000,01:19:36.96,20.37,-60.63,-992.59,218.75,-665.0,-507.50,1,94.579,
01/01/2000,01:19:36.98,20.74,-60.76,-992.35,157.50,-735.0,-472.50,1,94.590,
01/01/2000,01:19:36.99,20.62,-60.02,-992.35,131.25,-761.25,-560.0,1,94.600,
01/01/2000,01:19:37.00,20.37,-59.54,-992.59,175.0,-770.0,-341.25,1,94.610,
01/01/2000,01:19:37.01,20.01,-59.54,-992.84,131.25,-542.50,-236.25,1,94.620,
01/01/2000,01:19:37.02,20.01,-59.90,-992.84,201.25,-603.75,-297.50,1,94.630,
01/01/2000,01:19:37.03,20.25,-59.90,-992.47,26.25,-708.75,-271.25,1,94.640,
01/01/2000,01:19:37.04,20.74,-60.27,-992.23,210.0,-682.50,-376.25,1,94.649,
01/01/2000,01:19:37.05,20.50,-60.27,-992.23,253.75,-761.25,-393.75,1,94.485,
01/01/2000,01:19:37.06,20.37,-60.02,-992.35,157.50,-656.25,-411.25,1,94.495,
01/01/2000,01:19:37.07,20.13,-59.54,-992.59,17.50,-621.25,-306.25,1,94.505,
01/01/2000,01:19:37.08,20.01,-59.66,-992.59,122.50,-560.0,-210.0,1,94.516,
01/01/2000,01:19:37.09,20.25,-59.66,-992.35,157.50,-638.75,-350.0,1,94.526,
01/01/2000,01:19:37.10,20.37,-60.02,-992.10,227.50,-673.75,-455.0,1,94.536,
01/01/2000,01:19:37.11,20.50,-60.27,-992.10,157.50,-726.25,-323.75,1,94.545,
01/01/2000,01:19:37.13,20.37,-60.51,-992.23,113.75,-735.0,-446.25,1,94.555,
01/01/2000,01:19:37.14,20.13,-59.78,-992.35,105.0,-612.50,-367.50,1,94.565,
01/01/2000,01:19:37.15,20.13,-59.78,-992.35,280.0,-673.75,-376.25,1,94.575,
01/01/2000,01:19:37.16,20.25,-59.54,-992.35,236.25,-682.50,-315.0,1,94.585,
01/01/2000,01:19:37.17,20.25,-59.66,-992.23,148.75,-630.0,-236.25,1,94.595,
01/01/2000,01:19:37.18,20.25,-60.27,-991.98,183.75,-682.50,-297.50,1,94.604,
01/01/2000,01:19:37.19,20.50,-60.51,-992.10,113.75,-743.75,-472.50,1,94.614,
01/01/2000,01:19:37.20,20.50,-60.27,-992.10,70.0,-700.0,-402.50,1,94.624,
01/01/2000,01:19:37.21,20.50,-60.02,-992.23,166.25,-665.0,-358.75,1,94.633,
01/01/2000,01:19:37.22,20.25,-59.54,-992.23,-8.75,-735.0,-350.0,1,94.643,
01/01/2000,01:19:37.23,20.25,-59.90,-992.10,140.0,-778.75,-218.75,1,94.652,
01/01/2000,01:19:37.25,20.50,-60.27,-992.35,210.0,-595.0,-332.50,1,94.494,
01/01/2000,01:19:37.26,20.50,-60.51,-992.23,218.75,-638.75,-455.0,1,94.504,
01/01/2000,01:19:37.27,20.50,-60.39,-992.35,280.0,-761.25,-306.25,1,94.513,
01/01/2000,01:19:37.28,20.50,-59.78,-992.10,192.50,-717.50,-341.25,1,94.523,
01/01/2000,01:19:37.29,20.25,-59.66,-992.23,96.25,-735.0,-201.25,1,94.533,
01/01/2000,01:19:37.30,20.37,-59.78,-992.35,245.0,-778.75,-315.0,1,94.542,
01/01/2000,01:19:37.31,20.50,-60.02,-992.59,183.75,-665.0,-437.50,1,94.552,
01/01/2000,01:19:37.32,20.74,-60.39,-992.47,227.50,-638.75,-323.75,1,94.561,
01/01/2000,01:19:37.33,20.74,-60.39,-992.47,52.50,-621.25,-367.50,1,94.571,
01/01/2000,01:19:37.34,20.62,-60.27,-992.59,87.50,-743.75,-271.25,1,94.580,
01/01/2000,01:19:37.35,20.37,-60.02,-992.59,17.50,-682.50,-323.75,1,94.590,
01/01/2000,01:19:37.36,20.50,-59.90,-992.84,175.0,-656.25,-323.75,1,94.599,
01/01/2000,01:19:37.37,20.50,-59.90,-992.71,131.25,-682.50,-245.0,1,94.609,
01/01/2000,01:19:37.38,20.62,-60.02,-992.59,210.0,-682.50,-271.25,1,94.618,
01/01/2000,01:19:37.39,20.62,-60.15,-992.47,52.50,-595.0,-376.25,1,94.627,
01/01/2000,01:19:37.40,20.74,-60.27,-992.35,192.50,-743.75,-350.0,1,94.473,
01/01/2000,01:19:37.41,20.74,-60.02,-992.47,192.50,-682.50,-385.0,1,94.483,
01/01/2000,01:19:37.42,20.74,-59.90,-992.59,210.0,-603.75,-393.75,1,94.492,
01/01/2000,01:19:37.43,20.62,-59.90,-992.71,245.0,-708.75,-271.25,1,94.502,
01/01/2000,01:19:37.44,20.50,-59.78,-992.59,218.75,-726.25,-262.50,1,94.511,
01/01/2000,01:19:37.45,20.50,-60.02,-992.59,236.25,-778.75,-297.50,1,94.521,
01/01/2000,01:19:37.46,20.62,-60.15,-992.47,52.50,-717.50,-306.25,1,94.530,
01/01/2000,01:19:37.48,20.50,-60.15,-992.59,236.25,-691.25,-463.75,1,94.539,
01/01/2000,01:19:37.49,20.25,-60.02,-992.59,96.25,-682.50,-262.50,1,94.549,
01/01/2000,01:19:37.50,20.25,-59.90,-992.47,122.50,-743.75,-262.50,1,94.558,
01/01/2000,01:19:37.51,20.25,-59.66,-992.59,131.25,-770.0,-245.0,1,94.567,
01/01/2000,01:19:37.52,20.50,-59.78,-992.59,253.75,-656.25,-358.75,1,94.576,
01/01/2000,01:19:37.53,20.62,-60.02,-992.47,253.75,-770.0,-262.50,1,94.585,
01/01/2000,01:19:37.54,20.74,-59.90,-992.35,78.75,-673.75,-332.50,1,94.595,
01/01/2000,01:19:37.55,20.74,-60.15,-992.35,148.75,-700.0,-428.75,1,94.604,
01/01/2000,01:19:37.56,20.62,-59.78,-992.35,192.50,-612.50,-280.0,1,94.613,
01/01/2000,01:19:37.57,20.62,-59.66,-992.35,271.25,-647.50,-437.50,1,94.622,
01/01/2000,01:19:37.58,20.74,-59.90,-992.47,78.75,-691.25,-306.25,1,94.631,
01/01/2000,01:19:37.59,20.74,-60.02,-992.59,122.50,-682.50,-166.25,1,94.640,
01/01/2000,01:19:37.60,20.86,-60.27,-992.47,183.75,-586.25,-315.0,1,94.649,
01/01/2000,01:19:37.61,20.62,-60.27,-992.35,157.50,-665.0,-376.25,1,94.500,
01/01/2000,01:19:37.62,20.62,-60.02,-992.35,52.50,-621.25,-341.25,1,94.509,
01/01/2000,01:19:37.64,20.62,-59.90,-992.47,253.75,-700.0,-411.25,1,94.518,
01/01/2000,01:19:37.65,20.50,-59.90,-992.35,192.50,-665.0,-315.0,1,94.527,
01/01/2000,01:19:37.66,20.62,-60.02,-992.47,201.25,-717.50,-280.0,1,94.536,
01/01/2000,01:19:37.67,20.62,-60.02,-992.35,52.50,-770.0,-315.0,1,94.545,
01/01/2000,01:19:37.68,20.62,-60.02,-992.35,271.25,-630.0,-446.25,1,94.554,
01/01/2000,01:19:37.69,20.62,-60.15,-992.23,61.25,-682.50,-297.50,1,94.563,
01/01/2000,01:19:37.70,20.62,-60.02,-992.35,210.0,-717.50,-516.25,1,94.572,
01/01/2000,01:19:37.71,20.74,-60.02,-992.23,148.75,-778.75,-341.25,1,94.581,
01/01/2000,01:19:37.72,20.50,-59.90,-992.10,175.0,-630.0,-271.25,1,94.590,
01/01/2000,01:19:37.73,20.62,-59.90,-992.10,271.25,-735.0,-288.75,1,94.599,
01/01/2000,01:19:37.74,20.74,-60.02,-992.10,192.50,-673.75,-393.75,1,94.608,
01/01/2000,01:19:37.76,20.62,-60.02,-992.10,218.75,-717.50,-341.25,1,94.463,
01/01/2000,01:19:37.77,20.50,-60.02,-992.10,227.50,-638.75,-253.75,1,94.472,
01/01/2000,01:19:37.78,20.50,-59.78,-992.10,183.75,-787.50,-455.0,1,94.481,
01/01/2000,01:19:37.79,20.50,-59.90,-992.10,17.50,-717.50,-315.0,1,94.489,
01/01/2000,01:19:37.80,20.50,-60.02,-992.10,192.50,-735.0,-315.0,1,94.498,
01/01/2000,01:19:37.81,20.50,-60.02,-991.98,87.50,-665.0,-358.75,1,94.507,
01/01/2000,01:19:37.82,20.50,-59.90,-991.86,17.50,-700.0,-350.0,1,94.516,
01/01/2000,01:19:37.83,20.62,-59.90,-991.86,183.75,-630.0,-183.75,1,94.525,
01/01/2000,01:19:37.84,20.50,-59.90,-991.86,262.50,-700.0,-367.50,1,94.534,
01/01/2000,01:19:37.85,20.62,-59.78,-991.98,0.0,-726.25,-280.0,1,94.543,
01/01/2000,01:19:37.86,20.62,-59.78,-992.10,105.0,-752.50,-288.75,1,94.551,
01/01/2000,01:19:37.87,20.62,-59.78,-992.10,87.50,-831.25,-385.0,1,94.560,
01/01/2000,01:19:37.88,20.50,-59.78,-992.23,201.25,-665.0,-393.75,1,94.569,
01/01/2000,01:19:37.89,20.62,-59.78,-992.23,105.0,-691.25,-288.75,1,94.577,
01/01/2000,01:19:37.90,20.62,-59.90,-992.23,253.75,-700.0,-341.25,1,94.586,
01/01/2000,01:19:37.91,20.50,-59.78,-992.35,131.25,-638.75,-332.50,1,94.444,
01/01/2000,01:19:37.92,20.62,-59.90,-992.35,253.75,-630.0,-358.75,1,94.603,
01/01/2000,01:19:37.93,20.62,-59.78,-992.23,113.75,-708.75,-332.50,1,94.462,
01/01/2000,01:19:37.94,20.62,-60.02,-992.35,227.50,-647.50,-437.50,1,94.471,
01/01/2000,01:19:37.95,20.50,-60.02,-992.23,-70.0,-665.0,-350.0,1,94.479,
01/01/2000,01:19:37.96,20.50,-60.02,-992.35,271.25,-682.50,-402.50,1,94.488,
01/01/2000,01:19:37.98,20.37,-60.02,-992.35,201.25,-638.75,-350.0,1,94.497,
01/01/2000,01:19:37.99,20.37,-59.78,-992.35,192.50,-656.25,-350.0,1,94.505,
01/01/2000,01:19:38.00,20.50,-59.78,-992.35,262.50,-700.0,-341.25,1,94.514,
01/01/2000,01:19:38.01,20.50,-60.02,-992.35,201.25,-726.25,-350.0,1,94.523,
01/01/2000,01:19:38.02,20.50,-60.02,-992.35,113.75,-708.75,-323.75,1,94.531,
01/01/2000,01:19:38.03,20.62,-59.90,-992.47,227.50,-717.50,-411.25,1,94.540,
01/01/2000,01:19:38.04,20.62,-59.78,-992.47,192.50,-673.75,-315.0,1,94.548,
01/01/2000,01:19:38.05,20.62,-59.78,-992.35,140.0,-673.75,-297.50,1,94.557,
01/01/2000,01:19:38.06,20.50,-59.78,-992.35,131.25,-735.0,-306.25,1,94.565,
01/01/2000,01:19:38.07,20.62,-59.90,-992.35,157.50,-691.25,-411.25,1,94.574,
01/01/2000,01:19:38.08,20.62,-60.02,-992.47,175.0,-735.0,-350.0,1,94.582,
01/01/2000,01:19:38.09,20.74,-59.90,-992.35,253.75,-691.25,-463.75,1,94.590,
01/01/2000,01:19:38.10,20.50,-59.90,-992.35,218.75,-708.75,-332.50,1,94.599,
01/01/2000,01:19:38.11,20.50,-60.02,-992.23,122.50,-656.25,-323.75,1,94.462,
01/01/2000,01:19:38.12,20.37,-59.90,-992.35,288.75,-726.25,-315.0,1,94.470,
01/01/2000,01:19:38.13,20.50,-60.02,-992.35,148.75,-603.75,-271.25,1,94.479,
01/01/2000,01:19:38.14,20.50,-60.02,-992.47,218.75,-875.0,-376.25,1,94.487,
01/01/2000,01:19:38.15,20.50,-59.90,-992.35,148.75,-630.0,-297.50,1,94.495,
01/01/2000,01:19:38.16,20.50,-60.15,-992.35,-17.50,-752.50,-376.25,1,94.504,
01/01/2000,01:19:38.17,20.50,-60.15,-992.35,105.0,-673.75,-288.75,1,94.512,
01/01/2000,01:19:38.19,20.62,-60.27,-992.23,280.0,-735.0,-446.25,1,94.521,
01/01/2000,01:19:38.20,20.37,-60.02,-992.10,70.0,-700.0,-297.50,1,94.529,
01/01/2000,01:19:38.21,20.50,-59.90,-992.23,218.75,-673.75,-323.75,1,94.537,
01/01/2000,01:19:38.22,20.37,-60.02,-992.23,175.0,-752.50,-376.25,1,94.545,
01/01/2000,01:19:38.23,20.50,-59.90,-992.23,175.0,-735.0,-376.25,1,94.554,
01/01/2000,01:19:38.24,20.37,-59.90,-992.10,105.0,-743.75,-245.0,1,94.562,
01/01/2000,01:19:38.25,20.50,-59.78,-992.10,113.75,-726.25,-297.50,1,94.570,
01/01/2000,01:19:38.27,20.62,-59.78,-992.23,157.50,-752.50,-376.25,1,94.436,
01/01/2000,01:19:38.28,20.50,-59.90,-992.35,131.25,-682.50,-306.25,1,94.444,
01/01/2000,01:19:38.29,20.62,-60.02,-992.35,227.50,-603.75,-323.75,1,94.453,
01/01/2000,01:19:38.30,20.50,-60.02,-992.35,166.25,-708.75,-420.0,1,94.461,
01/01/2000,01:19:38.31,20.74,-60.15,-992.23,175.0,-612.50,-280.0,1,94.469,
01/01/2000,01:19:38.32,20.74,-59.90,-992.10,140.0,-805.0,-358.75,1,94.478,
01/01/2000,01:19:38.33,20.62,-60.02,-992.10,140.0,-717.50,-420.0,1,94.486,
01/01/2000,01:19:38.34,20.74,-59.90,-991.98,227.50,-682.50,-288.75,1,94.494,
01/01/2000,01:19:38.35,20.74,-59.90,-991.98,306.25,-656.25,-420.0,1,94.502,
01/01/2000,01:19:38.36,20.62,-59.78,-991.86,87.50,-717.50,-385.0,1,94.510,
01/01/2000,01:19:38.37,20.50,-59.90,-991.86,78.75,-665.0,-306.25,1,94.519,
01/01/2000,01:19:38.38,20.50,-60.02,-991.98,183.75,-630.0,-420.0,1,94.527,
01/01/2000,01:19:38.39,20.50,-59.78,-992.10,131.25,-673.75,-253.75,1,94.535,
01/01/2000,01:19:38.40,20.50,-59.90,-992.23,140.0,-700.0,-288.75,1,94.543,
01/01/2000,01:19:38.41,20.74,-60.02,-992.10,236.25,-691.25,-385.0,1,94.551,
01/01/2000,01:19:38.42,20.62,-60.02,-992.10,131.25,-603.75,-323.75,1,94.559,
01/01/2000,01:19:38.43,20.62,-60.02,-992.10,236.25,-708.75,-271.25,1,94.567,
01/01/2000,01:19:38.44,20.62,-59.90,-992.10,131.25,-673.75,-385.0,1,94.575,
01/01/2000,01:19:38.45,20.62,-59.78,-992.35,157.50,-717.50,-385.0,1,94.583,
01/01/2000,01:19:38.46,20.74,-60.02,-992.47,166.25,-665.0,-411.25,1,94.453,
01/01/2000,01:19:38.47,20.62,-59.90,-992.35,183.75,-647.50,-323.75,1,94.461,
01/01/2000,01:19:38.48,20.62,-60.02,-992.35,175.0,-726.25,-385.0,1,94.469,
01/01/2000,01:19:38.49,20.62,-59.90,-992.35,113.75,-778.75,-358.75,1,94.477,
01/01/2000,01:19:38.50,20.50,-59.90,-992.59,218.75,-708.75,-376.25,1,94.485,
01/01/2000,01:19:38.51,20.74,-59.78,-992.59,43.75,-691.25,-271.25,1,94.493,
01/01/2000,01:19:38.52,20.74,-60.02,-992.47,210.0,-603.75,-332.50,1,94.501,
01/01/2000,01:19:38.54,20.74,-60.15,-992.35,271.25,-805.0,-227.50,1,94.509,
01/01/2000,01:19:38.55,20.74,-59.90,-992.23,218.75,-656.25,-411.25,1,94.517,
01/01/2000,01:19:38.56,20.74,-59.78,-992.35,148.75,-700.0,-210.0,1,94.524,
01/01/2000,01:19:38.57,20.74,-59.78,-992.35,26.25,-603.75,-358.75,1,94.532,
01/01/2000,01:19:38.58,20.62,-59.90,-992.10,105.0,-743.75,-428.75,1,94.540,
01/01/2000,01:19:38.59,20.62,-60.02,-992.35,297.50,-735.0,-358.75,1,94.548,
01/01/2000,01:19:38.60,20.74,-60.27,-992.10,227.50,-735.0,-341.25,1,94.421,
01/01/2000,01:19:38.61,20.74,-59.90,-992.10,122.50,-708.75,-288.75,1,94.429,
01/01/2000,01:19:38.62,20.74,-60.27,-992.10,253.75,-630.0,-306.25,1,94.437,
01/01/2000,01:19:38.63,20.62,-60.15,-992.10,131.25,-708.75,-393.75,1,94.444,
01/01/2000,01:19:38.64,20.50,-59.90,-991.98,175.0,-682.50,-323.75,1,94.452,
01/01/2000,01:19:38.65,20.50,-59.90,-991.98,236.25,-656.25,-350.0,1,94.460,
01/01/2000,01:19:38.66,20.50,-59.78,-992.10,122.50,-673.75,-323.75,1,94.468,
01/01/2000,01:19:38.68,20.50,-59.78,-991.98,157.50,-630.0,-376.25,1,94.476,
01/01/2000,01:19:38.69,20.50,-59.78,-991.98,113.75,-638.75,-428.75,1,94.484,
01/01/2000,01:19:38.70,20.50,-60.02,-991.98,253.75,-822.50,-315.0,1,94.492,
01/01/2000,01:19:38.71,20.50,-60.02,-992.10,192.50,-647.50,-376.25,1,94.499,
01/01/2000,01:19:38.72,20.50,-59.90,-992.10,70.0,-691.25,-323.75,1,94.507,
01/01/2000,01:19:38.73,20.37,-59.90,-991.86,122.50,-831.25,-367.50,1,94.515,
01/01/2000,01:19:38.74,20.37,-59.90,-991.86,61.25,-682.50,-227.50,1,94.522,
01/01/2000,01:19:38.75,20.25,-59.90,-991.74,35.0,-708.75,-350.0,1,94.530,
01/01/2000,01:19:38.76,20.25,-60.02,-991.74,367.50,-796.25,-341.25,1,94.538,
01/01/2000,01:19:38.77,20.50,-60.02,-991.98,218.75,-682.50,-341.25,1,94.413,
01/01/2000,01:19:38.79,20.50,-60.02,-991.86,131.25,-761.25,-306.25,1,94.421,
01/01/2000,01:19:38.80,20.62,-60.15,-991.86,245.0,-638.75,-297.50,1,94.429,
01/01/2000,01:19:38.81,20.62,-60.02,-991.86,236.25,-743.75,-367.50,1,94.437,
01/01/2000,01:19:38.82,20.62,-59.90,-991.86,78.75,-682.50,-393.75,1,94.444,
01/01/2000,01:19:38.83,20.74,-60.02,-991.86,157.50,-787.50,-446.25,1,94.452,
01/01/2000,01:19:38.84,20.74,-59.78,-991.98,87.50,-673.75,-288.75,1,94.460,
01/01/2000,01:19:38.85,20.74,-59.90,-991.86,131.25,-735.0,-245.0,1,94.467,
01/01/2000,01:19:38.86,20.74,-59.90,-991.86,175.0,-673.75,-367.50,1,94.475,
01/01/2000,01:19:38.87,20.74,-59.78,-991.86,175.0,-700.0,-350.0,1,94.483,
01/01/2000,01:19:38.88,20.62,-59.78,-991.74,113.75,-778.75,-376.25,1,94.490,
01/01/2000,01:19:38.89,20.74,-59.66,-991.86,87.50,-612.50,-306.25,1,94.498,
01/01/2000,01:19:38.90,20.62,-59.54,-991.86,262.50,-787.50,-297.50,1,94.505,
01/01/2000,01:19:38.91,20.62,-59.54,-991.86,87.50,-560.0,-315.0,1,94.513,
01/01/2000,01:19:38.92,20.62,-59.78,-991.98,175.0,-612.50,-341.25,1,94.521,
01/01/2000,01:19:38.93,20.50,-59.54,-992.10,70.0,-770.0,-350.0,1,94.528,
01/01/2000,01:19:38.94,20.62,-59.78,-991.98,157.50,-638.75,-245.0,1,94.536,
01/01/2000,01:19:38.95,20.50,-59.54,-992.10,96.25,-743.75,-288.75,1,94.543,
01/01/2000,01:19:38.96,20.62,-59.90,-992.10,105.0,-726.25,-350.0,1,94.422,
01/01/2000,01:19:38.97,20.74,-60.15,-992.23,306.25,-761.25,-446.25,1,94.429,
01/01/2000,01:19:38.98,20.74,-60.02,-992.35,-8.75,-752.50,-376.25,1,94.437,
01/01/2000,01:19:38.99,20.74,-60.02,-992.35,122.50,-630.0,-402.50,1,94.444,
01/01/2000,01:19:39.00,20.74,-60.27,-992.10,306.25,-603.75,-367.50,1,94.452,
01/01/2000,01:19:39.01,20.74,-60.02,-991.98,113.75,-656.25,-341.25,1,94.459,
01/01/2000,01:19:39.03,20.74,-60.02,-992.10,210.0,-726.25,-262.50,1,94.467,
01/01/2000,01:19:39.04,20.74,-60.02,-992.23,96.25,-761.25,-245.0,1,94.474,
01/01/2000,01:19:39.05,20.74,-59.90,-992.10,148.75,-778.75,-218.75,1,94.482,
01/01/2000,01:19:39.06,20.74,-60.02,-992.10,61.25,-665.0,-402.50,1,94.489,
01/01/2000,01:19:39.07,20.74,-60.15,-992.10,140.0,-665.0,-385.0,1,94.497,
01/01/2000,01:19:39.08,20.86,-60.02,-992.10,131.25,-621.25,-428.75,1,94.504,
01/01/2000,01:19:39.09,20.74,-60.02,-992.23,113.75,-752.50,-306.25,1,94.511,
01/01/2000,01:19:39.10,20.62,-59.90,-992.10,175.0,-743.75,-131.25,1,94.519,
01/01/2000,01:19:39.11,20.50,-59.54,-992.10,201.25,-665.0,210.0,1,94.526,
01/01/2000,01:19:39.12,20.50,-59.54,-991.98,122.50,-831.25,490.0,1,94.533,
01/01/2000,01:19:39.13,20.50,-59.54,-992.10,175.0,-638.75,647.50,1,94.541,
01/01/2000,01:19:39.14,20.74,-59.66,-992.10,140.0,-743.75,761.25,1,94.422,
01/01/2000,01:19:39.15,20.50,-59.29,-992.23,96.25,-770.0,1321.25,1,94.555,
01/01/2000,01:19:39.16,20.62,-59.66,-992.10,140.0,-586.25,2642.50,1,94.437,
01/01/2000,01:19:39.18,20.62,-59.54,-991.98,96.25,-516.25,4987.50,1,94.444,
01/01/2000,01:19:39.19,20.62,-59.66,-991.86,148.75,-472.50,6160.0,1,94.452,
01/01/2000,01:19:39.20,20.50,-59.29,-991.86,61.25,-551.25,6746.25,1,94.459,
01/01/2000,01:19:39.21,20.50,-59.29,-991.98,201.25,-323.75,7201.25,1,94.466,
01/01/2000,01:19:39.22,20.37,-59.29,-991.98,166.25,-411.25,7971.25,1,94.474,
01/01/2000,01:19:39.23,20.25,-59.29,-992.10,17.50,-332.50,9581.25,1,94.481,
01/01/2000,01:19:39.24,20.50,-59.29,-991.98,61.25,-341.25,11147.50,1,94.488,
01/01/2000,01:19:39.25,20.37,-59.05,-992.10,17.50,-315.0,12818.75,1,94.495,
01/01/2000,01:19:39.26,20.62,-59.41,-991.98,105.0,-201.25,15032.50,1,94.503,
01/01/2000,01:19:39.27,20.50,-59.66,-992.10,-17.50,-166.25,17561.25,1,94.510,
01/01/2000,01:19:39.28,20.50,-59.66,-992.35,52.50,96.25,21708.75,1,94.394,
01/01/2000,01:19:39.29,20.50,-59.29,-992.35,-26.25,140.0,24220.0,1,94.401,
01/01/2000,01:19:39.31,20.37,-58.93,-992.23,-87.50,105.0,22330.0,1,94.408,
01/01/2000,01:19:39.32,20.25,-59.41,-992.23,113.75,-52.50,17832.50,1,94.416,
01/01/2000,01:19:39.33,20.25,-59.78,-992.35,131.25,-350.0,8715.0,1,94.423,
01/01/2000,01:19:39.34,20.37,-60.27,-992.23,78.75,-463.75,4068.75,1,94.430,
01/01/2000,01:19:39.35,20.50,-60.51,-992.23,201.25,-665.0,1968.75,1,94.437,
01/01/2000,01:19:39.36,20.50,-60.27,-992.23,78.75,-621.25,4095.0,1,94.444,
01/01/2000,01:19:39.37,20.50,-60.39,-992.10,166.25,-341.25,9301.25,1,94.452,
01/01/2000,01:19:39.38,20.50,-59.78,-992.35,-87.50,-253.75,12276.25,1,94.459,
01/01/2000,01:19:39.39,20.25,-59.66,-992.47,35.0,-210.0,14393.75,1,94.466,
01/01/2000,01:19:39.40,20.25,-59.78,-992.47,-8.75,-175.0,16143.75,1,94.473,
01/01/2000,01:19:39.41,20.25,-59.78,-992.47,140.0,-148.75,16555.0,1,94.480,
01/01/2000,01:19:39.42,20.37,-59.78,-992.35,-52.50,-192.50,16432.50,1,94.487,
01/01/2000,01:19:39.43,20.50,-60.02,-992.10,140.0,-78.75,16283.75,1,94.494,
01/01/2000,01:19:39.44,20.37,-59.78,-992.10,8.75,-52.50,16275.0,1,94.501,
01/01/2000,01:19:39.45,20.25,-59.90,-992.35,-105.0,-236.25,16082.50,1,94.388,
01/01/2000,01:19:39.46,20.25,-59.90,-992.47,113.75,-210.0,15933.75,1,94.515,
01/01/2000,01:19:39.47,20.25,-59.78,-992.47,17.50,-183.75,15837.50,1,94.402,
01/01/2000,01:19:39.48,20.50,-59.66,-992.35,-8.75,-157.50,15452.50,1,94.409,
01/01/2000,01:19:39.49,20.62,-59.78,-992.10,-17.50,-183.75,15093.75,1,94.416,
01/01/2000,01:19:39.50,20.50,-59.90,-992.10,-52.50,-306.25,14752.50,1,94.423,
01/01/2000,01:19:39.51,20.50,-59.78,-992.35,105.0,-105.0,14017.50,1,94.430,
01/01/2000,01:19:39.53,20.50,-59.90,-992.59,140.0,-306.25,13755.0,1,94.437,
01/01/2000,01:19:39.54,20.62,-59.90,-992.59,43.75,-245.0,13737.50,1,94.444,
01/01/2000,01:19:39.55,20.62,-59.90,-992.35,-70.0,-280.0,14113.75,1,94.451,
01/01/2000,01:19:39.56,20.50,-59.90,-992.23,-43.75,-297.50,14341.25,1,94.458,
01/01/2000,01:19:39.57,20.50,-60.02,-992.23,8.75,-96.25,14805.0,1,94.465,
01/01/2000,01:19:39.58,20.50,-60.02,-992.23,-52.50,-131.25,15137.50,1,94.472,
01/01/2000,01:19:39.59,20.50,-59.78,-992.59,-52.50,-192.50,15898.75,1,94.479,
01/01/2000,01:19:39.60,20.50,-59.78,-992.47,-8.75,-166.25,16345.0,1,94.486,
01/01/2000,01:19:39.61,20.62,-60.02,-992.35,70.0,-227.50,16581.25,1,94.493,
01/01/2000,01:19:39.62,20.50,-59.90,-992.23,-236.25,-70.0,16476.25,1,94.500,
01/01/2000,01:19:39.63,20.62,-60.27,-992.35,-26.25,-166.25,14971.25,1,94.507,
01/01/2000,01:19:39.64,20.50,-60.76,-992.10,166.25,-245.0,12810.0,1,94.514,
01/01/2000,01:19:39.65,20.50,-60.76,-991.98,0.0,-297.50,10298.75,1,94.521,
01/01/2000,01:19:39.66,20.37,-60.51,-991.86,175.0,-428.75,6973.75,1,94.410,
01/01/2000,01:19:39.67,20.25,-60.51,-991.98,61.25,-542.50,5600.0,1,94.417,
01/01/2000,01:19:39.68,20.25,-60.39,-992.10,280.0,-656.25,4515.0,1,94.424,
01/01/2000,01:19:39.69,20.37,-60.02,-992.10,52.50,-498.75,4480.0,1,94.431,
01/01/2000,01:19:39.70,20.50,-60.51,-992.10,148.75,-533.75,4891.25,1,94.438,
01/01/2000,01:19:39.71,20.50,-60.51,-991.98,52.50,-507.50,5232.50,1,94.444,
01/01/2000,01:19:39.72,20.50,-60.88,-991.86,113.75,-577.50,4987.50,1,94.451,
01/01/2000,01:19:39.74,20.37,-61.0,-991.86,52.50,-472.50,3578.75,1,94.458,
01/01/2000,01:19:39.75,20.37,-60.76,-992.10,96.25,-630.0,2441.25,1,94.465,
01/01/2000,01:19:39.76,20.37,-60.51,-992.10,140.0,-656.25,2021.25,1,94.472,
01/01/2000,01:19:39.77,20.37,-60.27,-992.10,201.25,-498.75,2100.0,1,94.479,
01/01/2000,01:19:39.78,20.37,-60.39,-992.10,96.25,-481.25,2520.0,1,94.485,
01/01/2000,01:19:39.79,20.50,-60.39,-992.10,192.50,-551.25,3097.50,1,94.377,
01/01/2000,01:19:39.81,20.50,-60.51,-992.35,236.25,-577.50,3342.50,1,94.383,
01/01/2000,01:19:39.82,20.25,-60.39,-992.23,87.50,-673.75,3508.75,1,94.390,
01/01/2000,01:19:39.83,20.25,-60.51,-991.98,105.0,-542.50,2695.0,1,94.397,
01/01/2000,01:19:39.84,20.13,-60.27,-991.98,148.75,-533.75,2187.50,1,94.404,
01/01/2000,01:19:39.85,20.13,-60.39,-991.98,148.75,-647.50,1443.75,1,94.411,
01/01/2000,01:19:39.86,20.25,-60.39,-992.23,113.75,-691.25,848.75,1,94.417,
01/01/2000,01:19:39.87,20.25,-60.27,-992.23,192.50,-568.75,157.50,1,94.424,
01/01/2000,01:19:39.88,20.13,-60.27,-992.10,210.0,-656.25,-140.0,1,94.431,
01/01/2000,01:19:39.89,20.25,-60.27,-992.10,78.75,-770.0,-315.0,1,94.438,
01/01/2000,01:19:39.90,20.25,-60.39,-992.10,236.25,-638.75,-306.25,1,94.444,
01/01/2000,01:19:39.91,20.25,-60.27,-992.10,26.25,-691.25,-271.25,1,94.451,
01/01/2000,01:19:39.92,20.37,-60.27,-992.10,323.75,-577.50,-402.50,1,94.458,
01/01/2000,01:19:39.93,20.25,-60.27,-992.10,192.50,-700.0,-306.25,1,94.465,
01/01/2000,01:19:39.94,20.25,-60.27,-992.10,131.25,-673.75,-402.50,1,94.471,
01/01/2000,01:19:39.95,20.25,-60.27,-992.23,227.50,-603.75,-376.25,1,94.478,
01/01/2000,01:19:39.96,20.37,-59.90,-992.35,210.0,-805.0,-358.75,1,94.484,
01/01/2000,01:19:39.97,20.25,-59.90,-992.23,236.25,-717.50,-385.0,1,94.491,
01/01/2000,01:19:39.98,20.25,-60.15,-992.10,140.0,-691.25,-350.0,1,94.498,
01/01/2000,01:19:39.99,20.01,-60.15,-991.86,218.75,-691.25,-341.25,1,94.504,
01/01/2000,01:19:40.00,20.01,-60.02,-991.86,157.50,-691.25,-350.0,1,94.511,
01/01/2000,01:19:40.02,20.01,-60.02,-992.10,122.50,-770.0,-253.75,1,94.405,
01/01/2000,01:19:40.02,20.13,-60.02,-992.10,87.50,-708.75,-428.75,1,94.411,
01/01/2000,01:19:40.04,20.25,-60.02,-992.10,35.0,-752.50,-402.50,1,94.418,
01/01/2000,01:19:40.05,20.25,-60.02,-992.10,218.75,-691.25,-551.25,1,94.425,
01/01/2000,01:19:40.06,20.25,-60.02,-992.23,192.50,-638.75,-367.50,1,94.431,
01/01/2000,01:19:40.07,20.37,-60.02,-992.10,26.25,-752.50,-323.75,1,94.438,
01/01/2000,01:19:40.08,20.25,-60.02,-991.98,210.0,-682.50,-455.0,1,94.444,
01/01/2000,01:19:40.09,20.01,-60.02,-991.98,175.0,-656.25,-411.25,1,94.451,
01/01/2000,01:19:40.10,20.13,-60.02,-991.98,148.75,-708.75,-420.0,1,94.458,
01/01/2000,01:19:40.11,20.13,-60.02,-991.98,227.50,-595.0,-323.75,1,94.464,
01/01/2000,01:19:40.12,20.01,-60.02,-991.98,131.25,-708.75,-332.50,1,94.471,
01/01/2000,01:19:40.13,20.13,-60.02,-991.86,105.0,-875.0,-341.25,1,94.477,
01/01/2000,01:19:40.14,20.25,-60.02,-991.98,271.25,-630.0,-376.25,1,94.484,
01/01/2000,01:19:40.15,20.25,-59.90,-992.10,175.0,-822.50,-472.50,1,94.490,
01/01/2000,01:19:40.16,20.25,-59.66,-992.10,52.50,-700.0,-376.25,1,94.386,
01/01/2000,01:19:40.17,20.25,-59.78,-992.10,192.50,-700.0,-332.50,1,94.393,
01/01/2000,01:19:40.18,20.25,-59.54,-992.10,306.25,-682.50,-481.25,1,94.399,
01/01/2000,01:19:40.19,20.25,-59.54,-991.86,113.75,-813.75,-262.50,1,94.406,
01/01/2000,01:19:40.20,20.25,-59.54,-991.86,61.25,-682.50,-288.75,1,94.412,
01/01/2000,01:19:40.21,20.25,-59.66,-991.86,166.25,-647.50,-306.25,1,94.419,
01/01/2000,01:19:40.23,20.25,-59.78,-991.86,61.25,-708.75,-472.50,1,94.425,
01/01/2000,01:19:40.24,20.37,-60.02,-991.86,218.75,-665.0,-437.50,1,94.432,
01/01/2000,01:19:40.25,20.25,-59.78,-991.98,148.75,-630.0,-367.50,1,94.438,
01/01/2000,01:19:40.26,20.25,-60.15,-991.98,157.50,-647.50,-385.0,1,94.444,
01/01/2000,01:19:40.27,20.13,-59.90,-991.86,175.0,-630.0,-446.25,1,94.451,
01/01/2000,01:19:40.28,20.13,-60.02,-991.98,175.0,-752.50,-455.0,1,94.457,
01/01/2000,01:19:40.29,20.25,-59.78,-992.10,175.0,-638.75,-376.25,1,94.464,
01/01/2000,01:19:40.31,20.25,-59.90,-992.10,113.75,-621.25,-341.25,1,94.361,
01/01/2000,01:19:40.32,20.01,-60.02,-991.86,323.75,-700.0,-437.50,1,94.368,
01/01/2000,01:19:40.33,20.13,-59.90,-991.86,78.75,-796.25,-402.50,1,94.374,
01/01/2000,01:19:40.34,20.13,-59.78,-991.86,148.75,-638.75,-288.75,1,94.381,
01/01/2000,01:19:40.35,20.25,-59.78,-991.98,148.75,-656.25,-227.50,1,94.387,
01/01/2000,01:19:40.36,20.25,-59.90,-992.10,201.25,-638.75,-341.25,1,94.394,
01/01/2000,01:19:40.37,20.25,-60.02,-992.10,105.0,-621.25,-402.50,1,94.400,
01/01/2000,01:19:40.38,20.25,-60.02,-992.10,218.75,-796.25,-385.0,1,94.406,
01/01/2000,01:19:40.39,20.25,-60.02,-991.98,166.25,-761.25,-446.25,1,94.413,
01/01/2000,01:19:40.40,20.37,-60.02,-991.98,192.50,-647.50,-350.0,1,94.419,
01/01/2000,01:19:40.41,20.37,-60.02,-992.10,157.50,-568.75,-376.25,1,94.425,
01/01/2000,01:19:40.42,20.25,-60.15,-992.10,210.0,-630.0,-315.0,1,94.432,
01/01/2000,01:19:40.43,20.13,-60.02,-991.98,96.25,-761.25,-280.0,1,94.438,
01/01/2000,01:19:40.44,20.01,-59.90,-991.98,218.75,-691.25,-280.0,1,94.444,
01/01/2000,01:19:40.45,20.01,-59.78,-991.98,183.75,-778.75,-428.75,1,94.451,
01/01/2000,01:19:40.46,19.89,-59.78,-991.86,148.75,-700.0,-411.25,1,94.457,
01/01/2000,01:19:40.47,20.01,-59.90,-991.86,96.25,-752.50,-341.25,1,94.463,
01/01/2000,01:19:40.48,20.01,-60.02,-991.86,210.0,-647.50,-288.75,1,94.470,
01/01/2000,01:19:40.49,20.01,-59.90,-991.98,52.50,-717.50,-455.0,1,94.476,
01/01/2000,01:19:40.50,20.01,-59.78,-991.98,157.50,-708.75,-341.25,1,94.482,
01/01/2000,01:19:40.51,20.25,-59.90,-991.86,87.50,-717.50,-297.50,1,94.382,
01/01/2000,01:19:40.52,20.13,-59.66,-991.86,-26.25,-770.0,-393.75,1,94.388,
01/01/2000,01:19:40.53,20.25,-59.66,-991.86,236.25,-787.50,-306.25,1,94.395,
01/01/2000,01:19:40.54,20.37,-59.78,-991.86,105.0,-638.75,-420.0,1,94.401,
01/01/2000,01:19:40.55,20.50,-59.66,-991.86,183.75,-647.50,-323.75,1,94.407,
01/01/2000,01:19:40.56,20.50,-59.66,-991.86,192.50,-726.25,-306.25,1,94.413,
01/01/2000,01:19:40.58,20.25,-59.90,-991.62,175.0,-735.0,-385.0,1,94.420,
01/01/2000,01:19:40.59,20.37,-59.90,-991.62,105.0,-691.25,-323.75,1,94.426,
01/01/2000,01:19:40.60,20.25,-59.78,-991.62,218.75,-743.75,-350.0,1,94.432,
01/01/2000,01:19:40.61,20.25,-59.54,-991.86,183.75,-691.25,-393.75,1,94.438,
01/01/2000,01:19:40.62,20.25,-59.66,-991.86,175.0,-647.50,-332.50,1,94.444,
01/01/2000,01:19:40.63,20.25,-59.78,-991.74,78.75,-743.75,-315.0,1,94.451,
01/01/2000,01:19:40.64,20.25,-60.02,-991.74,105.0,-726.25,-376.25,1,94.457,
01/01/2000,01:19:40.65,20.25,-60.02,-991.74,166.25,-735.0,-350.0,1,94.358,
01/01/2000,01:19:40.66,20.25,-59.90,-991.74,201.25,-717.50,-306.25,1,94.365,
01/01/2000,01:19:40.67,20.25,-59.90,-991.62,52.50,-577.50,-393.75,1,94.371,
01/01/2000,01:19:40.68,20.25,-60.02,-991.74,245.0,-778.75,-297.50,1,94.377,
01/01/2000,01:19:40.69,20.37,-60.02,-991.86,113.75,-638.75,-306.25,1,94.383,
01/01/2000,01:19:40.70,20.25,-60.02,-991.98,236.25,-726.25,-428.75,1,94.389,
01/01/2000,01:19:40.71,20.50,-59.90,-991.98,35.0,-717.50,-420.0,1,94.396,
01/01/2000,01:19:40.73,20.50,-59.78,-991.98,227.50,-647.50,-420.0,1,94.402,
01/01/2000,01:19:40.74,20.50,-59.54,-991.74,70.0,-682.50,-227.50,1,94.408,
01/01/2000,01:19:40.75,20.25,-59.78,-991.62,17.50,-735.0,-402.50,1,94.414,
01/01/2000,01:19:40.76,20.25,-60.15,-991.62,201.25,-708.75,-367.50,1,94.420,
01/01/2000,01:19:40.77,20.25,-60.02,-991.62,61.25,-805.0,-393.75,1,94.426,
01/01/2000,01:19:40.78,20.37,-60.15,-991.62,218.75,-770.0,-332.50,1,94.432,
01/01/2000,01:19:40.79,20.25,-60.15,-991.62,183.75,-682.50,-271.25,1,94.438,
01/01/2000,01:19:40.80,20.01,-60.15,-991.74,148.75,-665.0,-402.50,1,94.444,
01/01/2000,01:19:40.82,20.13,-60.15,-991.74,210.0,-691.25,-367.50,1,94.348,
01/01/2000,01:19:40.83,20.25,-60.15,-991.98,201.25,-717.50,-323.75,1,94.354,
01/01/2000,01:19:40.84,20.50,-60.02,-991.86,70.0,-691.25,-315.0,1,94.360,
01/01/2000,01:19:40.85,20.37,-60.02,-991.86,183.75,-621.25,-315.0,1,94.366,
01/01/2000,01:19:40.86,20.37,-59.78,-991.86,-8.75,-700.0,-350.0,1,94.372,
01/01/2000,01:19:40.87,20.13,-59.78,-992.10,218.75,-656.25,-280.0,1,94.378,
01/01/2000,01:19:40.88,20.13,-60.02,-992.35,288.75,-717.50,-481.25,1,94.384,
01/01/2000,01:19:40.89,20.62,-59.66,-991.98,131.25,-656.25,-542.50,1,94.391,
01/01/2000,01:19:40.90,20.98,-59.78,-991.62,148.75,-752.50,-148.75,1,94.397,
01/01/2000,01:19:40.91,20.01,-60.39,-991.86,288.75,-673.75,-157.50,1,94.403,
01/01/2000,01:19:40.92,19.52,-60.27,-992.10,157.50,-630.0,-490.0,1,94.409,
01/01/2000,01:19:40.93,19.89,-60.27,-992.23,166.25,-656.25,-595.0,1,94.415,
01/01/2000,01:19:40.94,20.37,-59.41,-992.35,157.50,-752.50,-201.25,1,94.421,
01/01/2000,01:19:40.95,20.37,-59.66,-992.35,140.0,-717.50,-105.0,1,94.427,
01/01/2000,01:19:40.96,20.37,-60.15,-992.10,166.25,-647.50,-280.0,1,94.433,
01/01/2000,01:19:40.97,20.25,-60.51,-992.23,131.25,-752.50,-612.50,1,94.438,
01/01/2000,01:19:40.98,20.37,-60.63,-992.35,271.25,-656.25,-393.75,1,94.444,
01/01/2000,01:19:40.99,20.50,-60.02,-992.59,131.25,-787.50,-332.50,1,94.450,
01/01/2000,01:19:41.01,20.37,-59.66,-992.35,148.75,-726.25,-315.0,1,94.356,
01/01/2000,01:19:41.02,20.25,-59.78,-992.10,253.75,-665.0,-210.0,1,94.362,
01/01/2000,01:19:41.03,20.13,-60.27,-992.23,183.75,-726.25,-367.50,1,94.368,
01/01/2000,01:19:41.04,20.37,-60.51,-992.59,175.0,-700.0,-472.50,1,94.374,
01/01/2000,01:19:41.05,20.74,-60.76,-992.59,297.50,-691.25,-533.75,1,94.380,
01/01/2000,01:19:41.06,20.74,-60.27,-992.47,105.0,-682.50,-323.75,1,94.386,
01/01/2000,01:19:41.07,20.62,-59.90,-992.23,122.50,-708.75,-297.50,1,94.392,
01/01/2000,01:19:41.08,20.37,-59.90,-992.10,122.50,-778.75,-175.0,1,94.397,
01/01/2000,01:19:41.09,20.25,-60.27,-992.35,140.0,-752.50,-306.25,1,94.403,
01/01/2000,01:19:41.10,20.37,-60.51,-992.59,192.50,-761.25,-411.25,1,94.409,
01/01/2000,01:19:41.11,20.62,-60.76,-992.23,350.0,-700.0,-402.50,1,94.415,
01/01/2000,01:19:41.12,20.50,-60.27,-991.86,70.0,-787.50,-350.0,1,94.421,
01/01/2000,01:19:41.13,20.25,-60.27,-991.86,332.50,-735.0,-428.75,1,94.427,
01/01/2000,01:19:41.14,20.25,-60.02,-992.23,192.50,-778.75,-315.0,1,94.433,
01/01/2000,01:19:41.15,20.50,-60.02,-992.59,122.50,-603.75,-315.0,1,94.340,
01/01/2000,01:19:41.16,20.50,-60.27,-992.71,70.0,-708.75,-306.25,1,94.346,
01/01/2000,01:19:41.17,20.50,-60.51,-992.47,218.75,-673.75,-428.75,1,94.351,
01/01/2000,01:19:41.18,20.37,-60.39,-992.35,70.0,-691.25,-341.25,1,94.357,
01/01/2000,01:19:41.19,20.50,-60.27,-992.35,52.50,-691.25,-253.75,1,94.363,
01/01/2000,01:19:41.20,20.50,-60.27,-992.59,227.50,-603.75,-227.50,1,94.369,
01/01/2000,01:19:41.22,20.50,-60.27,-992.71,157.50,-726.25,-385.0,1,94.375,
01/01/2000,01:19:41.23,20.50,-60.39,-992.35,175.0,-735.0,-367.50,1,94.381,
01/01/2000,01:19:41.24,20.25,-60.27,-991.98,166.25,-752.50,-358.75,1,94.387,
01/01/2000,01:19:41.25,20.25,-60.39,-992.10,245.0,-708.75,-358.75,1,94.393,
01/01/2000,01:19:41.26,20.37,-60.27,-992.35,175.0,-761.25,-323.75,1,94.398,
01/01/2000,01:19:41.27,20.37,-60.39,-992.59,140.0,-630.0,-280.0,1,94.404,
01/01/2000,01:19:41.28,20.25,-60.27,-992.47,70.0,-743.75,-341.25,1,94.410,
01/01/2000,01:19:41.29,20.13,-60.27,-992.35,166.25,-647.50,-288.75,1,94.416,
01/01/2000,01:19:41.30,20.37,-60.27,-992.35,70.0,-656.25,-455.0,1,94.421,
01/01/2000,01:19:41.31,20.50,-60.27,-992.35,201.25,-735.0,-306.25,1,94.427,
01/01/2000,01:19:41.33,20.25,-60.27,-992.47,210.0,-673.75,-262.50,1,94.336,
01/01/2000,01:19:41.34,20.25,-60.15,-992.35,332.50,-682.50,-393.75,1,94.342,
01/01/2000,01:19:41.35,20.25,-60.15,-992.35,96.25,-735.0,-350.0,1,94.347,
01/01/2000,01:19:41.36,20.25,-60.02,-992.10,245.0,-770.0,-323.75,1,94.353,
01/01/2000,01:19:41.37,20.37,-60.15,-992.10,210.0,-673.75,-253.75,1,94.359,
01/01/2000,01:19:41.38,20.25,-60.15,-992.23,43.75,-682.50,-323.75,1,94.365,
01/01/2000,01:19:41.39,20.25,-60.27,-992.35,78.75,-778.75,-367.50,1,94.371,
01/01/2000,01:19:41.40,20.25,-60.27,-992.35,245.0,-612.50,-341.25,1,94.376,
01/01/2000,01:19:41.41,20.13,-60.02,-992.47,113.75,-647.50,-262.50,1,94.382,
01/01/2000,01:19:41.42,20.25,-60.02,-992.35,253.75,-735.0,-323.75,1,94.388,
01/01/2000,01:19:41.43,20.25,-60.15,-992.23,201.25,-656.25,-253.75,1,94.393,
01/01/2000,01:19:41.44,20.25,-60.27,-992.10,-26.25,-691.25,-350.0,1,94.399,
01/01/2000,01:19:41.45,20.25,-60.39,-992.35,253.75,-735.0,-385.0,1,94.405,
01/01/2000,01:19:41.46,20.25,-60.15,-992.35,245.0,-831.25,-367.50,1,94.411,
01/01/2000,01:19:41.47,20.25,-60.15,-992.35,43.75,-761.25,-341.25,1,94.416,
01/01/2000,01:19:41.48,20.25,-60.02,-992.35,183.75,-665.0,-236.25,1,94.422,
01/01/2000,01:19:41.49,20.25,-60.15,-992.10,166.25,-752.50,-332.50,1,94.428,
01/01/2000,01:19:41.50,20.13,-60.27,-991.98,140.0,-647.50,-568.75,1,94.433,
01/01/2000,01:19:41.51,20.13,-60.15,-991.86,105.0,-691.25,-236.25,1,94.439,
01/01/2000,01:19:41.52,20.01,-60.15,-991.98,140.0,-743.75,-201.25,1,94.444,
01/01/2000,01:19:41.53,20.25,-60.15,-992.10,52.50,-691.25,-332.50,1,94.450,
01/01/2000,01:19:41.54,20.13,-60.15,-992.10,218.75,-665.0,-367.50,1,94.456,
01/01/2000,01:19:41.55,20.25,-60.15,-992.10,183.75,-700.0,-402.50,1,94.461,
01/01/2000,01:19:41.56,20.50,-60.15,-992.23,166.25,-665.0,-358.75,1,94.467,
01/01/2000,01:19:41.58,20.37,-60.27,-992.59,26.25,-735.0,-332.50,1,94.378,
01/01/2000,01:19:41.59,20.37,-60.27,-992.47,61.25,-656.25,-350.0,1,94.383,
01/01/2000,01:19:41.60,20.25,-60.39,-992.35,218.75,-630.0,-315.0,1,94.389,
01/01/2000,01:19:41.61,20.25,-60.27,-992.47,-26.25,-647.50,-341.25,1,94.394,
01/01/2000,01:19:41.62,20.25,-60.27,-992.47,140.0,-647.50,-323.75,1,94.400,
01/01/2000,01:19:41.63,20.25,-60.39,-992.59,131.25,-735.0,-323.75,1,94.406,
01/01/2000,01:19:41.64,20.37,-60.51,-992.84,183.75,-717.50,-376.25,1,94.411,
01/01/2000,01:19:41.65,20.25,-60.51,-992.59,96.25,-787.50,-411.25,1,94.417,
01/01/2000,01:19:41.66,20.25,-60.27,-992.71,280.0,-577.50,-446.25,1,94.422,
01/01/2000,01:19:41.67,20.25,-60.15,-992.71,148.75,-673.75,-323.75,1,94.428,
01/01/2000,01:19:41.68,20.25,-60.15,-992.71,192.50,-778.75,-288.75,1,94.433,
01/01/2000,01:19:41.69,20.13,-60.02,-992.71,210.0,-813.75,-288.75,1,94.439,
01/01/2000,01:19:41.70,20.01,-60.27,-992.71,148.75,-726.25,-411.25,1,94.444,
01/01/2000,01:19:41.71,20.25,-60.02,-992.71,113.75,-630.0,-332.50,1,94.356,
01/01/2000,01:19:41.72,20.50,-60.15,-992.71,113.75,-656.25,-245.0,1,94.362,
01/01/2000,01:19:41.73,20.50,-60.02,-992.59,192.50,-743.75,-376.25,1,94.368,
01/01/2000,01:19:41.74,20.25,-60.02,-992.59,201.25,-665.0,-245.0,1,94.373,
01/01/2000,01:19:41.75,20.25,-60.27,-992.59,271.25,-665.0,-341.25,1,94.379,
01/01/2000,01:19:41.76,20.25,-60.27,-992.47,166.25,-857.50,-367.50,1,94.384,
01/01/2000,01:19:41.78,20.50,-60.27,-992.59,236.25,-831.25,-350.0,1,94.390,
01/01/2000,01:19:41.79,20.50,-60.27,-992.59,210.0,-708.75,-376.25,1,94.395,
01/01/2000,01:19:41.80,20.37,-60.27,-992.59,227.50,-665.0,-288.75,1,94.401,
01/01/2000,01:19:41.81,20.37,-60.27,-992.47,140.0,-717.50,-376.25,1,94.406,
01/01/2000,01:19:41.82,20.50,-60.39,-992.59,271.25,-691.25,-306.25,1,94.412,
01/01/2000,01:19:41.83,20.62,-60.39,-992.71,210.0,-691.25,-402.50,1,94.325,
01/01/2000,01:19:41.84,20.62,-60.15,-992.59,271.25,-595.0,-420.0,1,94.330,
01/01/2000,01:19:41.85,20.50,-60.15,-992.47,192.50,-630.0,-280.0,1,94.336,
01/01/2000,01:19:41.86,20.62,-60.27,-992.35,236.25,-700.0,-420.0,1,94.341,
01/01/2000,01:19:41.87,20.62,-60.27,-992.35,166.25,-726.25,-385.0,1,94.347,
01/01/2000,01:19:41.88,20.50,-60.27,-992.35,280.0,-647.50,-280.0,1,94.352,
01/01/2000,01:19:41.89,20.50,-60.27,-992.35,183.75,-621.25,-481.25,1,94.358,
01/01/2000,01:19:41.90,20.37,-60.02,-992.35,131.25,-630.0,-227.50,1,94.363,
01/01/2000,01:19:41.92,20.50,-60.27,-992.23,157.50,-630.0,-385.0,1,94.369,
01/01/2000,01:19:41.93,20.50,-60.27,-992.35,157.50,-743.75,-297.50,1,94.374,
01/01/2000,01:19:41.94,20.50,-60.27,-992.47,253.75,-647.50,-315.0,1,94.380,
01/01/2000,01:19:41.95,20.50,-60.27,-992.71,183.75,-778.75,-332.50,1,94.385,
01/01/2000,01:19:41.96,20.50,-60.27,-992.71,157.50,-700.0,-367.50,1,94.391,
01/01/2000,01:19:41.97,20.37,-60.15,-992.59,175.0,-805.0,-280.0,1,94.396,
01/01/2000,01:19:41.98,20.37,-60.02,-992.59,122.50,-682.50,-341.25,1,94.402,
01/01/2000,01:19:41.99,20.37,-60.02,-992.59,105.0,-665.0,-306.25,1,94.407,
01/01/2000,01:19:42.00,20.25,-60.39,-992.71,166.25,-630.0,-350.0,1,94.412,
01/01/2000,01:19:42.01,20.13,-60.51,-992.71,210.0,-682.50,-341.25,1,94.418,
01/01/2000,01:19:42.02,20.01,-60.39,-992.71,201.25,-708.75,-402.50,1,94.423,
01/01/2000,01:19:42.03,20.01,-60.27,-992.71,35.0,-717.50,-341.25,1,94.428,
01/01/2000,01:19:42.04,20.01,-60.15,-992.71,157.50,-612.50,-341.25,1,94.434,
01/01/2000,01:19:42.05,20.01,-60.39,-992.71,157.50,-752.50,-350.0,1,94.439,
01/01/2000,01:19:42.06,20.01,-60.51,-992.71,78.75,-551.25,-498.75,1,94.354,
01/01/2000,01:19:42.07,20.13,-60.27,-992.71,148.75,-770.0,-341.25,1,94.359,
01/01/2000,01:19:42.08,20.13,-60.15,-992.47,78.75,-691.25,-323.75,1,94.365,
01/01/2000,01:19:42.09,20.13,-60.15,-992.35,96.25,-691.25,-367.50,1,94.370,
01/01/2000,01:19:42.10,20.01,-60.27,-992.35,175.0,-665.0,-393.75,1,94.376,
01/01/2000,01:19:42.11,20.01,-60.27,-992.47,61.25,-656.25,-411.25,1,94.381,
01/01/2000,01:19:42.12,20.25,-60.27,-992.59,227.50,-673.75,-341.25,1,94.386,
01/01/2000,01:19:42.14,20.25,-60.15,-992.35,122.50,-770.0,-341.25,1,94.392,
01/01/2000,01:19:42.15,20.13,-60.39,-992.35,105.0,-700.0,-376.25,1,94.397,
01/01/2000,01:19:42.16,20.13,-60.51,-992.47,201.25,-691.25,-297.50,1,94.402,
01/01/2000,01:19:42.17,20.01,-60.51,-992.47,131.25,-752.50,-323.75,1,94.408,
01/01/2000,01:19:42.18,20.13,-60.51,-992.47,236.25,-682.50,-315.0,1,94.413,
01/01/2000,01:19:42.19,20.01,-60.39,-992.47,218.75,-638.75,-341.25,1,94.418,
01/01/2000,01:19:42.20,20.01,-60.39,-992.35,52.50,-700.0,-253.75,1,94.334,
01/01/2000,01:19:42.21,19.89,-60.51,-992.47,227.50,-673.75,-306.25,1,94.340,
01/01/2000,01:19:42.22,20.13,-60.51,-992.59,183.75,-726.25,-490.0,1,94.345,
01/01/2000,01:19:42.23,20.25,-60.27,-992.59,148.75,-691.25,-350.0,1,94.350,
01/01/2000,01:19:42.24,20.13,-60.27,-992.71,122.50,-770.0,-192.50,1,94.356,
01/01/2000,01:19:42.25,20.01,-60.39,-992.71,245.0,-682.50,-341.25,1,94.361,
01/01/2000,01:19:42.26,20.01,-60.27,-992.71,52.50,-647.50,-446.25,1,94.366,
01/01/2000,01:19:42.28,20.25,-60.51,-992.59,288.75,-708.75,-393.75,1,94.371,
01/01/2000,01:19:42.29,20.25,-60.39,-992.59,26.25,-647.50,-341.25,1,94.377,
01/01/2000,01:19:42.30,20.37,-60.39,-992.59,253.75,-700.0,-376.25,1,94.382,
01/01/2000,01:19:42.31,20.25,-60.51,-992.59,210.0,-656.25,-297.50,1,94.387,
01/01/2000,01:19:42.32,20.13,-60.27,-992.59,157.50,-752.50,-236.25,1,94.393,
01/01/2000,01:19:42.33,20.01,-60.27,-992.59,218.75,-717.50,-315.0,1,94.398,
01/01/2000,01:19:42.34,20.25,-60.27,-992.59,192.50,-866.25,-315.0,1,94.315,
01/01/2000,01:19:42.36,20.25,-60.27,-992.35,140.0,-752.50,-253.75,1,94.320,
01/01/2000,01:19:42.37,20.13,-60.15,-992.35,157.50,-787.50,-323.75,1,94.326,
01/01/2000,01:19:42.38,20.25,-60.02,-992.35,70.0,-778.75,-332.50,1,94.331,
01/01/2000,01:19:42.39,20.25,-60.02,-992.59,245.0,-735.0,-306.25,1,94.336,
01/01/2000,01:19:42.40,20.13,-60.02,-992.59,61.25,-603.75,-271.25,1,94.341,
01/01/2000,01:19:42.41,20.25,-60.02,-992.35,0.0,-700.0,-455.0,1,94.347,
01/01/2000,01:19:42.42,20.37,-60.02,-992.23,245.0,-603.75,-271.25,1,94.352,
01/01/2000,01:19:42.43,20.37,-60.15,-992.10,35.0,-542.50,-402.50,1,94.357,
01/01/2000,01:19:42.44,20.37,-60.15,-992.10,122.50,-682.50,-420.0,1,94.362,
01/01/2000,01:19:42.45,20.25,-60.27,-992.35,157.50,-726.25,-288.75,1,94.368,
01/01/2000,01:19:42.46,20.25,-60.15,-992.35,43.75,-665.0,-315.0,1,94.373,
01/01/2000,01:19:42.47,20.25,-60.15,-992.35,253.75,-621.25,-428.75,1,94.378,
01/01/2000,01:19:42.48,20.25,-60.02,-992.35,192.50,-682.50,-315.0,1,94.383,
01/01/2000,01:19:42.49,20.25,-60.27,-992.35,157.50,-638.75,-262.50,1,94.388,
01/01/2000,01:19:42.50,20.25,-60.27,-992.47,227.50,-638.75,-376.25,1,94.393,
01/01/2000,01:19:42.51,20.13,-60.27,-992.59,157.50,-752.50,-498.75,1,94.399,
01/01/2000,01:19:42.52,20.01,-60.02,-992.47,192.50,-717.50,-297.50,1,94.404,
01/01/2000,01:19:42.53,20.25,-59.78,-992.59,166.25,-630.0,-280.0,1,94.409,
01/01/2000,01:19:42.54,20.25,-59.78,-992.47,175.0,-752.50,-271.25,1,94.414,
01/01/2000,01:19:42.55,20.25,-59.90,-992.35,166.25,-700.0,-210.0,1,94.419,
01/01/2000,01:19:42.56,20.37,-60.02,-992.35,113.75,-647.50,-323.75,1,94.338,
01/01/2000,01:19:42.57,20.25,-60.02,-992.47,157.50,-735.0,-437.50,1,94.343,
01/01/2000,01:19:42.58,20.25,-60.02,-992.47,166.25,-603.75,-306.25,1,94.348,
01/01/2000,01:19:42.59,20.25,-59.78,-992.47,262.50,-682.50,-358.75,1,94.353,
01/01/2000,01:19:42.60,20.25,-59.66,-992.47,122.50,-778.75,-315.0,1,94.359,
01/01/2000,01:19:42.61,20.25,-60.02,-992.35,175.0,-700.0,-236.25,1,94.364,
01/01/2000,01:19:42.63,20.50,-60.02,-992.47,87.50,-665.0,-323.75,1,94.369,
01/01/2000,01:19:42.64,20.50,-59.90,-992.35,175.0,-743.75,-393.75,1,94.374,
01/01/2000,01:19:42.65,20.50,-60.15,-992.35,175.0,-735.0,-385.0,1,94.379,
01/01/2000,01:19:42.66,20.25,-60.02,-992.47,70.0,-656.25,-341.25,1,94.384,
01/01/2000,01:19:42.67,20.25,-60.02,-992.59,140.0,-673.75,-385.0,1,94.389,
01/01/2000,01:19:42.68,20.25,-60.02,-992.59,148.75,-735.0,-350.0,1,94.394,
01/01/2000,01:19:42.69,20.25,-60.02,-992.47,157.50,-708.75,-297.50,1,94.399,
01/01/2000,01:19:42.70,20.13,-60.27,-992.35,157.50,-717.50,-428.75,1,94.404,
01/01/2000,01:19:42.71,20.25,-60.27,-992.35,201.25,-560.0,-297.50,1,94.409,
01/01/2000,01:19:42.72,20.13,-60.27,-992.35,113.75,-673.75,-253.75,1,94.414,
01/01/2000,01:19:42.73,20.25,-60.27,-992.47,262.50,-638.75,-385.0,1,94.419,
01/01/2000,01:19:42.74,20.13,-60.15,-992.59,96.25,-647.50,-306.25,1,94.424,
01/01/2000,01:19:42.75,20.13,-60.15,-992.35,26.25,-630.0,-315.0,1,94.429,
01/01/2000,01:19:42.76,20.13,-60.27,-992.47,227.50,-700.0,-516.25,1,94.434,
01/01/2000,01:19:42.77,20.13,-60.02,-992.47,148.75,-726.25,-332.50,1,94.355,
01/01/2000,01:19:42.78,20.13,-59.90,-992.35,131.25,-630.0,-323.75,1,94.360,
01/01/2000,01:19:42.79,20.01,-60.02,-992.47,236.25,-673.75,-367.50,1,94.365,
01/01/2000,01:19:42.80,20.13,-59.90,-992.47,332.50,-630.0,-341.25,1,94.370,
01/01/2000,01:19:42.81,20.25,-60.02,-992.35,210.0,-638.75,-315.0,1,94.375,
01/01/2000,01:19:42.83,20.25,-59.90,-992.47,113.75,-700.0,-323.75,1,94.380,
01/01/2000,01:19:42.84,20.25,-60.02,-992.35,140.0,-726.25,-350.0,1,94.385,
01/01/2000,01:19:42.85,20.25,-60.15,-992.35,105.0,-691.25,-437.50,1,94.390,
01/01/2000,01:19:42.86,20.25,-59.90,-992.47,166.25,-665.0,-271.25,1,94.395,
01/01/2000,01:19:42.87,20.25,-60.02,-992.47,297.50,-691.25,-306.25,1,94.400,
01/01/2000,01:19:42.88,20.37,-59.78,-992.35,113.75,-778.75,-420.0,1,94.405,
01/01/2000,01:19:42.89,20.25,-60.02,-992.23,183.75,-595.0,-253.75,1,94.410,
01/01/2000,01:19:42.90,20.25,-60.02,-992.23,183.75,-796.25,-420.0,1,94.415,
01/01/2000,01:19:42.91,20.25,-60.02,-992.23,245.0,-700.0,-332.50,1,94.336,
01/01/2000,01:19:42.92,20.25,-59.90,-992.35,148.75,-726.25,-402.50,1,94.341,
01/01/2000,01:19:42.93,20.37,-59.78,-992.47,148.75,-796.25,-148.75,1,94.346,
01/01/2000,01:19:42.94,20.25,-59.78,-992.59,96.25,-735.0,-315.0,1,94.351,
01/01/2000,01:19:42.95,20.25,-59.90,-992.71,315.0,-700.0,-323.75,1,94.356,
01/01/2000,01:19:42.96,20.13,-60.02,-992.71,78.75,-560.0,-306.25,1,94.361,
01/01/2000,01:19:42.97,20.25,-60.27,-992.59,227.50,-761.25,-315.0,1,94.366,
01/01/2000,01:19:42.98,20.37,-60.15,-992.47,192.50,-682.50,-428.75,1,94.371,
01/01/2000,01:19:43.00,20.37,-60.02,-992.47,175.0,-656.25,-323.75,1,94.376,
01/01/2000,01:19:43.00,20.37,-60.15,-992.35,218.75,-656.25,-350.0,1,94.381,
01/01/2000,01:19:43.02,20.13,-60.02,-992.35,43.75,-700.0,-350.0,1,94.386,
01/01/2000,01:19:43.03,20.01,-60.15,-992.23,323.75,-673.75,-288.75,1,94.391,
01/01/2000,01:19:43.04,20.01,-60.15,-992.23,35.0,-682.50,-376.25,1,94.396,
01/01/2000,01:19:43.05,20.13,-60.02,-992.47,148.75,-761.25,-350.0,1,94.401,
01/01/2000,01:19:43.06,20.01,-60.27,-992.47,157.50,-708.75,-297.50,1,94.406,
01/01/2000,01:19:43.07,20.01,-60.15,-992.35,122.50,-726.25,-288.75,1,94.410,
01/01/2000,01:19:43.08,20.01,-60.15,-992.47,122.50,-700.0,-367.50,1,94.415,
01/01/2000,01:19:43.09,20.01,-60.02,-992.59,61.25,-673.75,-393.75,1,94.420,
01/01/2000,01:19:43.10,20.13,-60.15,-992.35,288.75,-647.50,-280.0,1,94.425,
01/01/2000,01:19:43.11,20.13,-60.27,-992.23,113.75,-717.50,-262.50,1,94.430,
01/01/2000,01:19:43.12,20.13,-60.27,-992.35,113.75,-673.75,-358.75,1,94.353,
01/01/2000,01:19:43.13,20.13,-60.27,-992.23,175.0,-700.0,-402.50,1,94.358,
01/01/2000,01:19:43.14,20.01,-60.27,-992.23,105.0,-770.0,-253.75,1,94.363,
01/01/2000,01:19:43.15,20.01,-60.02,-992.23,113.75,-665.0,-358.75,1,94.367,
01/01/2000,01:19:43.16,20.13,-60.02,-992.35,148.75,-770.0,-323.75,1,94.372,
01/01/2000,01:19:43.17,20.25,-60.02,-992.23,253.75,-770.0,-332.50,1,94.377,
01/01/2000,01:19:43.18,20.25,-59.90,-992.35,166.25,-726.25,-280.0,1,94.382,
01/01/2000,01:19:43.20,20.25,-60.15,-992.23,157.50,-700.0,-446.25,1,94.387,
01/01/2000,01:19:43.21,20.25,-60.02,-992.23,236.25,-665.0,-420.0,1,94.392,
01/01/2000,01:19:43.22,20.25,-60.02,-992.10,210.0,-673.75,-297.50,1,94.397,
01/01/2000,01:19:43.23,20.37,-60.02,-992.23,131.25,-700.0,-420.0,1,94.401,
01/01/2000,01:19:43.24,20.25,-60.15,-992.35,218.75,-700.0,-245.0,1,94.406,
01/01/2000,01:19:43.25,20.25,-60.39,-992.47,288.75,-805.0,-428.75,1,94.411,
01/01/2000,01:19:43.26,20.37,-60.15,-992.35,105.0,-848.75,-358.75,1,94.416,
01/01/2000,01:19:43.27,20.50,-60.27,-992.23,78.75,-735.0,-385.0,1,94.421,
01/01/2000,01:19:43.28,20.50,-60.15,-992.23,70.0,-743.75,-218.75,1,94.425,
01/01/2000,01:19:43.29,20.37,-60.27,-992.10,140.0,-665.0,-402.50,1,94.430,
01/01/2000,01:19:43.30,20.25,-60.15,-992.35,210.0,-603.75,-385.0,1,94.435,
01/01/2000,01:19:43.31,20.13,-60.27,-992.35,323.75,-805.0,-420.0,1,94.440,
01/01/2000,01:19:43.32,20.13,-60.02,-992.35,43.75,-612.50,-288.75,1,94.444,
01/01/2000,01:19:43.33,20.37,-60.15,-992.47,192.50,-717.50,-332.50,1,94.369,
01/01/2000,01:19:43.35,20.37,-60.27,-992.35,96.25,-665.0,-280.0,1,94.373,
01/01/2000,01:19:43.35,20.25,-60.27,-992.47,280.0,-743.75,-420.0,1,94.378,
01/01/2000,01:19:43.37,20.37,-59.90,-992.59,78.75,-665.0,-350.0,1,94.383,
01/01/2000,01:19:43.38,20.37,-60.02,-992.47,315.0,-752.50,-297.50,1,94.388,
01/01/2000,01:19:43.39,20.50,-59.90,-992.35,192.50,-735.0,-367.50,1,94.393,
01/01/2000,01:19:43.40,20.50,-60.02,-992.23,52.50,-700.0,-332.50,1,94.397,
01/01/2000,01:19:43.41,20.50,-59.90,-992.35,227.50,-665.0,-376.25,1,94.402,
01/01/2000,01:19:43.42,20.50,-59.90,-992.35,201.25,-691.25,-358.75,1,94.407,
01/01/2000,01:19:43.43,20.37,-59.90,-992.23,113.75,-630.0,-420.0,1,94.412,
01/01/2000,01:19:43.44,20.25,-59.90,-992.23,78.75,-656.25,-376.25,1,94.416,
01/01/2000,01:19:43.45,20.25,-59.90,-992.10,245.0,-700.0,-393.75,1,94.421,
01/01/2000,01:19:43.46,20.25,-59.90,-992.23,183.75,-630.0,-350.0,1,94.426,
01/01/2000,01:19:43.47,20.25,-60.02,-992.35,236.25,-673.75,-446.25,1,94.351,
01/01/2000,01:19:43.48,20.25,-60.15,-992.35,175.0,-717.50,-271.25,1,94.356,
01/01/2000,01:19:43.49,20.25,-59.90,-992.35,175.0,-717.50,-332.50,1,94.360,
01/01/2000,01:19:43.50,20.25,-59.90,-992.23,70.0,-595.0,-315.0,1,94.365,
01/01/2000,01:19:43.51,20.13,-60.02,-992.35,271.25,-682.50,-323.75,1,94.370,
01/01/2000,01:19:43.52,20.13,-60.15,-992.35,166.25,-761.25,-376.25,1,94.374,
01/01/2000,01:19:43.53,20.25,-60.15,-992.59,78.75,-682.50,-332.50,1,94.379,
01/01/2000,01:19:43.54,20.25,-60.27,-992.47,96.25,-708.75,-385.0,1,94.384,
01/01/2000,01:19:43.55,20.01,-60.15,-992.35,131.25,-778.75,-367.50,1,94.389,
01/01/2000,01:19:43.56,20.01,-60.27,-992.23,122.50,-691.25,-402.50,1,94.393,
01/01/2000,01:19:43.58,20.13,-60.27,-992.23,140.0,-586.25,-297.50,1,94.398,
01/01/2000,01:19:43.58,20.13,-60.15,-992.35,210.0,-682.50,-411.25,1,94.403,
01/01/2000,01:19:43.60,20.25,-60.02,-992.47,218.75,-647.50,-245.0,1,94.407,
01/01/2000,01:19:43.61,20.25,-60.02,-992.47,0.0,-630.0,-271.25,1,94.412,
01/01/2000,01:19:43.62,20.50,-60.15,-992.47,96.25,-813.75,-315.0,1,94.417,
01/01/2000,01:19:43.63,20.50,-60.02,-992.47,210.0,-533.75,-472.50,1,94.421,
01/01/2000,01:19:43.64,20.62,-60.27,-992.59,227.50,-778.75,-306.25,1,94.426,
01/01/2000,01:19:43.65,20.50,-60.27,-992.59,105.0,-595.0,-402.50,1,94.431,
01/01/2000,01:19:43.66,20.50,-60.02,-992.47,26.25,-770.0,-306.25,1,94.435,
01/01/2000,01:19:43.67,20.37,-60.27,-992.35,315.0,-595.0,-341.25,1,94.440,
01/01/2000,01:19:43.68,20.25,-60.15,-992.35,87.50,-691.25,-253.75,1,94.366,
01/01/2000,01:19:43.69,20.25,-60.27,-992.35,192.50,-647.50,-297.50,1,94.371,
01/01/2000,01:19:43.70,20.37,-60.27,-992.23,70.0,-708.75,-271.25,1,94.376,
01/01/2000,01:19:43.71,20.25,-60.39,-992.35,166.25,-656.25,-428.75,1,94.380,
01/01/2000,01:19:43.72,20.25,-60.27,-992.47,0.0,-638.75,-341.25,1,94.385,
01/01/2000,01:19:43.73,20.25,-60.15,-992.59,253.75,-708.75,-420.0,1,94.389,
01/01/2000,01:19:43.74,20.37,-60.02,-992.59,52.50,-673.75,-271.25,1,94.394,
01/01/2000,01:19:43.76,20.25,-60.15,-992.47,0.0,-656.25,-271.25,1,94.399,
01/01/2000,01:19:43.77,20.25,-60.27,-992.23,175.0,-708.75,-262.50,1,94.403,
01/01/2000,01:19:43.78,20.37,-60.27,-992.10,96.25,-691.25,-323.75,1,94.408,
01/01/2000,01:19:43.79,20.25,-60.27,-992.35,96.25,-595.0,-280.0,1,94.412,
01/01/2000,01:19:43.80,20.25,-60.27,-992.35,183.75,-761.25,-341.25,1,94.417,
01/01/2000,01:19:43.81,20.25,-60.27,-992.47,166.25,-813.75,-341.25,1,94.422,
01/01/2000,01:19:43.82,20.25,-60.15,-992.35,192.50,-673.75,-490.0,1,94.426,
01/01/2000,01:19:43.83,20.37,-60.15,-992.35,192.50,-726.25,-315.0,1,94.431,
01/01/2000,01:19:43.84,20.37,-60.27,-992.35,192.50,-717.50,-385.0,1,94.435,
01/01/2000,01:19:43.85,20.37,-60.27,-992.47,218.75,-630.0,-288.75,1,94.440,
01/01/2000,01:19:43.86,20.25,-60.02,-992.35,183.75,-647.50,-236.25,1,94.444,
01/01/2000,01:19:43.87,20.25,-60.02,-992.23,43.75,-656.25,-253.75,1,94.372,
01/01/2000,01:19:43.89,20.25,-60.02,-992.10,166.25,-638.75,-253.75,1,94.377,
01/01/2000,01:19:43.90,20.37,-60.15,-992.35,280.0,-875.0,-323.75,1,94.381,
01/01/2000,01:19:43.91,20.50,-60.02,-992.35,271.25,-770.0,-367.50,1,94.386,
01/01/2000,01:19:43.92,20.50,-59.66,-992.47,35.0,-752.50,-367.50,1,94.390,
01/01/2000,01:19:43.93,20.50,-59.78,-992.35,113.75,-735.0,-271.25,1,94.395,
01/01/2000,01:19:43.94,20.62,-59.78,-992.35,35.0,-673.75,-402.50,1,94.399,
01/01/2000,01:19:43.95,20.62,-59.90,-992.23,148.75,-682.50,-437.50,1,94.404,
01/01/2000,01:19:43.96,20.50,-60.02,-992.10,210.0,-708.75,-315.0,1,94.408,
01/01/2000,01:19:43.97,20.37,-59.90,-992.10,96.25,-708.75,-315.0,1,94.413,
01/01/2000,01:19:43.98,20.37,-59.90,-992.23,131.25,-726.25,-271.25,1,94.417,
01/01/2000,01:19:43.99,20.25,-59.90,-992.23,253.75,-630.0,-358.75,1,94.422,
01/01/2000,01:19:44.00,20.13,-59.78,-992.35,157.50,-778.75,-341.25,1,94.426,
01/01/2000,01:19:44.01,20.13,-59.78,-992.35,148.75,-726.25,-280.0,1,94.431,
01/01/2000,01:19:44.02,20.01,-59.78,-992.10,131.25,-717.50,-385.0,1,94.435,
01/01/2000,01:19:44.03,20.13,-59.78,-992.23,201.25,-630.0,-367.50,1,94.440,
01/01/2000,01:19:44.04,20.25,-59.78,-992.23,78.75,-638.75,-271.25,1,94.368,
01/01/2000,01:19:44.05,20.13,-59.78,-992.35,105.0,-708.75,-271.25,1,94.373,
01/01/2000,01:19:44.06,20.13,-59.78,-992.23,148.75,-700.0,-376.25,1,94.378,
01/01/2000,01:19:44.07,20.25,-59.66,-992.10,183.75,-691.25,-306.25,1,94.382,
01/01/2000,01:19:44.08,20.25,-59.78,-992.10,113.75,-735.0,-306.25,1,94.387,
01/01/2000,01:19:44.09,20.25,-60.02,-992.23,148.75,-708.75,-323.75,1,94.391,
01/01/2000,01:19:44.11,20.25,-60.02,-992.23,166.25,-621.25,-236.25,1,94.396,
01/01/2000,01:19:44.12,20.37,-59.90,-992.10,245.0,-673.75,-393.75,1,94.400,
01/01/2000,01:19:44.13,20.25,-60.02,-992.10,166.25,-770.0,-332.50,1,94.404,
01/01/2000,01:19:44.14,20.25,-59.78,-992.10,96.25,-726.25,-280.0,1,94.409,
01/01/2000,01:19:44.15,20.37,-59.90,-992.10,148.75,-770.0,-306.25,1,94.413,
01/01/2000,01:19:44.16,20.13,-60.02,-992.35,140.0,-656.25,-288.75,1,94.418,
01/01/2000,01:19:44.17,20.13,-59.90,-992.35,35.0,-700.0,-446.25,1,94.422,
01/01/2000,01:19:44.18,20.25,-59.78,-992.23,113.75,-735.0,-280.0,1,94.427,
01/01/2000,01:19:44.19,20.01,-59.54,-992.10,43.75,-787.50,-323.75,1,94.431,
01/01/2000,01:19:44.20,20.01,-59.78,-992.10,131.25,-743.75,-315.0,1,94.436,
01/01/2000,01:19:44.21,20.01,-59.90,-991.98,236.25,-735.0,-385.0,1,94.440,
01/01/2000,01:19:44.22,20.13,-59.90,-991.98,148.75,-673.75,-490.0,1,94.444,
01/01/2000,01:19:44.23,20.25,-59.78,-991.98,105.0,-770.0,-323.75,1,94.449,
01/01/2000,01:19:44.24,20.25,-59.90,-991.86,122.50,-682.50,-358.75,1,94.453,
01/01/2000,01:19:44.26,20.25,-59.78,-991.86,96.25,-770.0,-280.0,1,94.383,
01/01/2000,01:19:44.27,20.25,-59.78,-991.86,87.50,-612.50,-376.25,1,94.387,
01/01/2000,01:19:44.28,20.25,-59.78,-991.98,253.75,-665.0,-350.0,1,94.392,
01/01/2000,01:19:44.29,20.25,-59.78,-991.98,122.50,-586.25,-463.75,1,94.396,
01/01/2000,01:19:44.30,20.25,-59.54,-991.98,201.25,-743.75,-280.0,1,94.401,
01/01/2000,01:19:44.31,20.37,-59.66,-992.10,148.75,-857.50,-332.50,1,94.405,
01/01/2000,01:19:44.32,20.50,-59.78,-991.98,61.25,-735.0,-350.0,1,94.409,
01/01/2000,01:19:44.33,20.37,-59.78,-992.10,201.25,-656.25,-297.50,1,94.414,
01/01/2000,01:19:44.34,20.50,-59.78,-992.10,87.50,-665.0,-385.0,1,94.418,
01/01/2000,01:19:44.35,20.62,-59.54,-992.10,8.75,-665.0,-376.25,1,94.423,
01/01/2000,01:19:44.36,20.50,-59.78,-992.10,218.75,-647.50,-341.25,1,94.427,
01/01/2000,01:19:44.37,20.37,-59.78,-992.10,131.25,-656.25,-341.25,1,94.431,
01/01/2000,01:19:44.39,20.37,-60.02,-991.86,148.75,-700.0,-367.50,1,94.362,
01/01/2000,01:19:44.40,20.37,-59.78,-991.86,131.25,-743.75,-428.75,1,94.366,
01/01/2000,01:19:44.41,20.37,-59.90,-991.86,218.75,-656.25,-341.25,1,94.371,
01/01/2000,01:19:44.42,20.25,-59.78,-991.86,192.50,-752.50,-350.0,1,94.375,
01/01/2000,01:19:44.43,20.25,-60.02,-991.74,166.25,-656.25,-271.25,1,94.379,
01/01/2000,01:19:44.44,20.13,-60.15,-991.74,43.75,-691.25,-306.25,1,94.384,
01/01/2000,01:19:44.45,20.13,-60.02,-991.74,148.75,-743.75,-481.25,1,94.388,
01/01/2000,01:19:44.46,20.25,-60.02,-991.62,166.25,-612.50,-358.75,1,94.393,
01/01/2000,01:19:44.47,20.25,-60.02,-991.74,87.50,-621.25,-315.0,1,94.397,
01/01/2000,01:19:44.48,20.13,-60.02,-991.74,157.50,-726.25,-315.0,1,94.401,
01/01/2000,01:19:44.49,20.01,-60.27,-991.62,148.75,-761.25,-376.25,1,94.406,
01/01/2000,01:19:44.50,20.13,-60.15,-991.62,236.25,-682.50,-367.50,1,94.410,
01/01/2000,01:19:44.51,20.37,-60.15,-991.74,113.75,-621.25,-323.75,1,94.414,
01/01/2000,01:19:44.52,20.25,-59.90,-991.62,175.0,-621.25,-411.25,1,94.419,
01/01/2000,01:19:44.53,20.25,-59.90,-991.62,236.25,-656.25,-315.0,1,94.350,
01/01/2000,01:19:44.54,20.25,-59.78,-991.86,122.50,-612.50,-227.50,1,94.354,
01/01/2000,01:19:44.55,20.25,-60.02,-991.98,87.50,-682.50,-367.50,1,94.359,
01/01/2000,01:19:44.56,20.25,-60.02,-992.10,131.25,-682.50,-323.75,1,94.363,
01/01/2000,01:19:44.58,20.25,-60.02,-991.98,148.75,-568.75,-306.25,1,94.367,
01/01/2000,01:19:44.58,20.25,-60.02,-992.10,253.75,-770.0,-288.75,1,94.372,
01/01/2000,01:19:44.60,20.13,-60.02,-991.86,166.25,-840.0,-393.75,1,94.376,
01/01/2000,01:19:44.61,20.13,-59.78,-991.86,157.50,-778.75,-236.25,1,94.380,
01/01/2000,01:19:44.62,20.25,-60.02,-992.10,183.75,-813.75,-306.25,1,94.385,
01/01/2000,01:19:44.63,20.25,-60.02,-992.10,393.75,-700.0,-358.75,1,94.389,
01/01/2000,01:19:44.64,20.13,-59.90,-992.10,61.25,-577.50,-262.50,1,94.393,
01/01/2000,01:19:44.65,20.01,-60.02,-992.10,131.25,-708.75,-332.50,1,94.398,
01/01/2000,01:19:44.66,20.01,-60.02,-992.10,166.25,-778.75,-437.50,1,94.402,
01/01/2000,01:19:44.68,20.13,-59.78,-991.98,201.25,-735.0,-306.25,1,94.334,
01/01/2000,01:19:44.69,20.13,-59.78,-991.98,87.50,-700.0,-367.50,1,94.338,
01/01/2000,01:19:44.70,20.13,-60.02,-991.98,113.75,-647.50,-332.50,1,94.343,
01/01/2000,01:19:44.71,20.13,-60.02,-991.86,227.50,-735.0,-306.25,1,94.347,
01/01/2000,01:19:44.72,20.13,-59.90,-991.86,8.75,-770.0,-437.50,1,94.351,
01/01/2000,01:19:44.73,20.01,-59.90,-991.98,192.50,-717.50,-358.75,1,94.355,
01/01/2000,01:19:44.74,20.25,-59.90,-992.10,175.0,-656.25,-315.0,1,94.360,
01/01/2000,01:19:44.75,20.13,-59.66,-992.10,183.75,-673.75,-376.25,1,94.364,
01/01/2000,01:19:44.76,20.13,-59.78,-992.10,131.25,-673.75,-253.75,1,94.368,
01/01/2000,01:19:44.77,20.13,-59.90,-992.10,113.75,-595.0,-341.25,1,94.373,
01/01/2000,01:19:44.78,20.13,-60.02,-991.98,148.75,-752.50,-358.75,1,94.377,
01/01/2000,01:19:44.79,20.01,-60.02,-992.10,35.0,-770.0,-315.0,1,94.381,
01/01/2000,01:19:44.80,19.89,-59.78,-991.98,175.0,-752.50,-350.0,1,94.385,
01/01/2000,01:19:44.81,20.01,-60.02,-991.98,218.75,-665.0,-306.25,1,94.390,
01/01/2000,01:19:44.82,20.01,-59.78,-991.86,96.25,-691.25,-332.50,1,94.322,
01/01/2000,01:19:44.83,20.13,-59.90,-991.74,96.25,-717.50,-297.50,1,94.327,
01/01/2000,01:19:44.84,20.25,-59.78,-991.74,157.50,-743.75,-367.50,1,94.331,
01/01/2000,01:19:44.85,20.25,-60.02,-991.74,122.50,-840.0,-367.50,1,94.335,
01/01/2000,01:19:44.86,20.25,-59.90,-991.62,245.0,-805.0,-332.50,1,94.340,
01/01/2000,01:19:44.87,20.25,-59.66,-991.86,148.75,-805.0,-271.25,1,94.344,
01/01/2000,01:19:44.89,20.37,-59.90,-991.86,227.50,-708.75,-367.50,1,94.277,
01/01/2000,01:19:44.90,20.50,-59.78,-991.86,183.75,-770.0,-297.50,1,94.281,
01/01/2000,01:19:44.91,20.50,-60.02,-991.86,218.75,-673.75,-288.75,1,94.286,
01/01/2000,01:19:44.92,20.50,-59.90,-991.62,70.0,-831.25,-315.0,1,94.290,
01/01/2000,01:19:44.93,20.50,-60.02,-991.74,280.0,-708.75,-385.0,1,94.294,
01/01/2000,01:19:44.94,20.37,-59.78,-991.86,113.75,-735.0,-358.75,1,94.299,
01/01/2000,01:19:44.95,20.37,-59.90,-991.98,87.50,-717.50,-393.75,1,94.303,
01/01/2000,01:19:44.96,20.25,-60.02,-991.86,157.50,-848.75,-385.0,1,94.307,
01/01/2000,01:19:44.98,20.25,-59.90,-991.86,210.0,-691.25,-437.50,1,94.311,
01/01/2000,01:19:44.99,20.37,-60.15,-991.86,218.75,-560.0,-376.25,1,94.316,
01/01/2000,01:19:45.00,20.50,-59.90,-991.98,175.0,-726.25,-341.25,1,94.320,
01/01/2000,01:19:45.01,20.25,-60.02,-992.23,113.75,-665.0,-192.50,1,94.324,
01/01/2000,01:19:45.02,20.37,-60.02,-992.35,52.50,-612.50,-376.25,1,94.328,
01/01/2000,01:19:45.03,20.37,-60.02,-992.47,166.25,-665.0,-271.25,1,94.333,
01/01/2000,01:19:45.04,20.25,-60.15,-992.47,131.25,-700.0,-288.75,1,94.337,
01/01/2000,01:19:45.05,20.25,-60.15,-992.35,105.0,-673.75,-245.0,1,94.341,
01/01/2000,01:19:45.06,20.25,-60.02,-992.35,236.25,-761.25,-446.25,1,94.345,
01/01/2000,01:19:45.07,20.13,-59.90,-992.35,87.50,-682.50,-323.75,1,94.349,
01/01/2000,01:19:45.08,20.01,-59.78,-992.23,245.0,-752.50,-376.25,1,94.354,
01/01/2000,01:19:45.09,20.01,-59.78,-992.23,87.50,-726.25,-350.0,1,94.358,
01/01/2000,01:19:45.10,20.01,-59.66,-992.23,210.0,-682.50,-323.75,1,94.362,
01/01/2000,01:19:45.11,20.01,-59.90,-992.35,183.75,-595.0,-455.0,1,94.366,
01/01/2000,01:19:45.12,20.01,-59.78,-992.59,192.50,-673.75,-323.75,1,94.370,
01/01/2000,01:19:45.13,20.01,-59.90,-992.59,148.75,-665.0,-288.75,1,94.375,
01/01/2000,01:19:45.14,20.13,-59.90,-992.59,183.75,-691.25,-280.0,1,94.379,
01/01/2000,01:19:45.15,20.01,-59.78,-992.47,166.25,-708.75,-385.0,1,94.383,
01/01/2000,01:19:45.16,20.01,-59.78,-992.35,236.25,-621.25,-262.50,1,94.387,
01/01/2000,01:19:45.17,20.13,-60.02,-992.35,148.75,-673.75,-323.75,1,94.322,
01/01/2000,01:19:45.18,20.13,-60.02,-992.47,122.50,-743.75,-245.0,1,94.326,
01/01/2000,01:19:45.19,20.25,-60.02,-992.35,175.0,-796.25,-350.0,1,94.330,
01/01/2000,01:19:45.21,20.25,-59.78,-992.23,183.75,-638.75,-411.25,1,94.334,
01/01/2000,01:19:45.21,20.01,-59.78,-992.23,183.75,-621.25,-323.75,1,94.338,
01/01/2000,01:19:45.23,20.01,-59.78,-992.23,140.0,-665.0,-411.25,1,94.342,
01/01/2000,01:19:45.24,20.01,-59.90,-992.23,148.75,-647.50,-227.50,1,94.347,
01/01/2000,01:19:45.25,20.01,-60.02,-992.10,210.0,-691.25,-350.0,1,94.351,
01/01/2000,01:19:45.26,20.01,-59.90,-992.35,140.0,-840.0,-306.25,1,94.355,
01/01/2000,01:19:45.27,19.89,-60.02,-992.23,113.75,-673.75,-271.25,1,94.359,
01/01/2000,01:19:45.28,20.01,-59.90,-992.10,70.0,-612.50,-323.75,1,94.363,
01/01/2000,01:19:45.29,20.13,-59.90,-992.10,140.0,-752.50,-201.25,1,94.367,
01/01/2000,01:19:45.30,20.13,-59.90,-992.10,131.25,-735.0,-385.0,1,94.371,
01/01/2000,01:19:45.31,20.13,-60.02,-992.10,96.25,-708.75,-297.50,1,94.307,
01/01/2000,01:19:45.32,20.13,-60.02,-991.98,227.50,-708.75,-358.75,1,94.311,
01/01/2000,01:19:45.33,20.25,-60.02,-991.98,175.0,-700.0,-358.75,1,94.315,
01/01/2000,01:19:45.34,20.13,-60.02,-992.23,148.75,-726.25,-332.50,1,94.319,
01/01/2000,01:19:45.35,20.37,-59.90,-992.35,52.50,-735.0,-218.75,1,94.323,
01/01/2000,01:19:45.36,20.25,-59.90,-992.10,61.25,-700.0,-350.0,1,94.327,
01/01/2000,01:19:45.37,20.01,-59.90,-991.98,70.0,-717.50,-262.50,1,94.331,
01/01/2000,01:19:45.39,20.01,-59.90,-992.10,148.75,-735.0,-402.50,1,94.336,
01/01/2000,01:19:45.40,20.25,-59.78,-992.35,183.75,-717.50,-341.25,1,94.271,
01/01/2000,01:19:45.42,20.13,-59.78,-992.23,140.0,-673.75,-332.50,1,94.275,
01/01/2000,01:19:45.42,20.01,-59.90,-992.23,262.50,-726.25,-262.50,1,94.280,
01/01/2000,01:19:45.44,20.13,-60.02,-992.10,245.0,-691.25,-376.25,1,94.284,
01/01/2000,01:19:45.45,20.13,-59.90,-992.35,148.75,-673.75,-358.75,1,94.288,
01/01/2000,01:19:45.46,20.25,-59.78,-992.35,87.50,-665.0,-332.50,1,94.292,
01/01/2000,01:19:45.47,20.25,-60.02,-992.10,192.50,-665.0,-341.25,1,94.296,
01/01/2000,01:19:45.48,20.25,-60.02,-991.98,218.75,-708.75,-350.0,1,94.300,
01/01/2000,01:19:45.49,20.25,-60.02,-991.86,61.25,-726.25,-288.75,1,94.304,
01/01/2000,01:19:45.50,20.01,-60.02,-992.10,332.50,-577.50,-350.0,1,94.308,
01/01/2000,01:19:45.51,20.01,-59.90,-992.23,78.75,-735.0,-358.75,1,94.312,
01/01/2000,01:19:45.52,20.13,-60.02,-992.23,166.25,-752.50,-332.50,1,94.317,
01/01/2000,01:19:45.53,20.13,-60.02,-992.23,157.50,-822.50,-262.50,1,94.321,
01/01/2000,01:19:45.54,20.01,-60.27,-992.10,0.0,-761.25,-323.75,1,94.325,
01/01/2000,01:19:45.55,20.13,-60.02,-992.10,183.75,-673.75,-280.0,1,94.329,
01/01/2000,01:19:45.56,20.01,-60.15,-992.10,131.25,-595.0,-367.50,1,94.333,
01/01/2000,01:19:45.57,20.01,-60.02,-991.98,140.0,-866.25,-306.25,1,94.337,
01/01/2000,01:19:45.58,20.01,-60.02,-991.98,183.75,-700.0,-367.50,1,94.341,
01/01/2000,01:19:45.59,20.01,-60.02,-992.10,218.75,-778.75,-315.0,1,94.345,
01/01/2000,01:19:45.60,20.01,-60.02,-992.10,183.75,-778.75,-323.75,1,94.349,
01/01/2000,01:19:45.61,20.01,-60.15,-992.10,227.50,-717.50,-341.25,1,94.353,
01/01/2000,01:19:45.62,20.01,-60.15,-992.10,140.0,-691.25,-210.0,1,94.357,
01/01/2000,01:19:45.63,20.01,-60.02,-991.98,113.75,-647.50,-323.75,1,94.361,
01/01/2000,01:19:45.64,19.89,-59.90,-991.86,70.0,-682.50,-376.25,1,94.365,
01/01/2000,01:19:45.65,19.89,-60.02,-992.10,148.75,-700.0,-315.0,1,94.369,
01/01/2000,01:19:45.66,19.89,-59.90,-992.23,175.0,-630.0,-280.0,1,94.373,
01/01/2000,01:19:45.67,19.89,-60.27,-992.10,245.0,-630.0,-376.25,1,94.310,
01/01/2000,01:19:45.68,20.01,-60.15,-991.98,201.25,-735.0,-385.0,1,94.314,
01/01/2000,01:19:45.69,20.13,-60.02,-991.86,70.0,-761.25,-280.0,1,94.318,
01/01/2000,01:19:45.70,20.25,-59.90,-992.10,166.25,-647.50,-280.0,1,94.322,
01/01/2000,01:19:45.71,20.25,-59.90,-992.23,52.50,-743.75,-280.0,1,94.326,
01/01/2000,01:19:45.72,20.13,-59.90,-992.10,105.0,-708.75,-420.0,1,94.330,
01/01/2000,01:19:45.74,20.25,-59.78,-991.98,140.0,-805.0,-332.50,1,94.334,
01/01/2000,01:19:45.75,20.25,-59.78,-991.86,140.0,-691.25,-253.75,1,94.338,
01/01/2000,01:19:45.76,20.37,-59.90,-991.98,122.50,-665.0,-280.0,1,94.342,
01/01/2000,01:19:45.77,20.25,-59.66,-992.10,-61.25,-673.75,-463.75,1,94.346,
01/01/2000,01:19:45.78,20.25,-59.78,-992.10,271.25,-770.0,-262.50,1,94.350,
01/01/2000,01:19:45.79,20.50,-59.54,-992.10,35.0,-665.0,-385.0,1,94.354,
01/01/2000,01:19:45.80,20.37,-59.54,-991.86,122.50,-647.50,-376.25,1,94.358,
01/01/2000,01:19:45.81,20.25,-59.54,-991.74,148.75,-708.75,-376.25,1,94.362,
01/01/2000,01:19:45.82,20.25,-59.78,-991.74,122.50,-735.0,-367.50,1,94.300,
01/01/2000,01:19:45.83,20.25,-59.78,-991.86,78.75,-700.0,-332.50,1,94.370,
01/01/2000,01:19:45.84,20.25,-59.78,-991.86,201.25,-717.50,-367.50,1,94.308,
01/01/2000,01:19:45.85,20.37,-59.66,-991.86,122.50,-831.25,-341.25,1,94.312,
01/01/2000,01:19:45.86,20.25,-59.54,-991.86,131.25,-665.0,-288.75,1,94.316,
01/01/2000,01:19:45.87,20.50,-59.66,-991.74,113.75,-621.25,-236.25,1,94.320,
01/01/2000,01:19:45.89,20.37,-59.78,-991.86,70.0,-787.50,-481.25,1,94.324,
01/01/2000,01:19:45.90,20.37,-60.02,-991.86,175.0,-752.50,-297.50,1,94.328,
01/01/2000,01:19:45.91,20.25,-59.78,-991.86,17.50,-735.0,-385.0,1,94.332,
01/01/2000,01:19:45.92,20.25,-59.78,-991.62,87.50,-743.75,-332.50,1,94.336,
01/01/2000,01:19:45.93,20.37,-59.78,-991.86,148.75,-691.25,-227.50,1,94.340,
01/01/2000,01:19:45.94,20.50,-60.02,-991.98,166.25,-665.0,-323.75,1,94.344,
01/01/2000,01:19:45.95,20.50,-60.02,-992.10,140.0,-673.75,-323.75,1,94.282,
01/01/2000,01:19:45.96,20.37,-60.02,-991.86,140.0,-691.25,-385.0,1,94.286,
01/01/2000,01:19:45.97,20.50,-59.78,-991.74,87.50,-612.50,-402.50,1,94.290,
01/01/2000,01:19:45.98,20.50,-59.78,-991.74,218.75,-813.75,-288.75,1,94.294,
01/01/2000,01:19:45.99,20.50,-59.66,-991.62,113.75,-787.50,-306.25,1,94.298,
01/01/2000,01:19:46.00,20.25,-59.78,-991.86,227.50,-691.25,-367.50,1,94.302,
01/01/2000,01:19:46.01,20.25,-59.78,-991.74,26.25,-717.50,-201.25,1,94.306,
01/01/2000,01:19:46.02,20.25,-59.90,-991.74,201.25,-708.75,-227.50,1,94.310,
01/01/2000,01:19:46.03,20.25,-59.54,-991.74,210.0,-656.25,-350.0,1,94.313,
01/01/2000,01:19:46.04,20.25,-59.90,-991.62,201.25,-568.75,-367.50,1,94.317,
01/01/2000,01:19:46.05,20.25,-59.78,-991.49,201.25,-665.0,-218.75,1,94.321,
01/01/2000,01:19:46.06,20.25,-60.02,-991.62,183.75,-778.75,-411.25,1,94.325,
01/01/2000,01:19:46.07,20.25,-60.02,-991.49,192.50,-726.25,-402.50,1,94.329,
01/01/2000,01:19:46.08,20.25,-59.90,-991.62,236.25,-796.25,-420.0,1,94.333,
01/01/2000,01:19:46.10,20.37,-59.78,-991.62,227.50,-743.75,-376.25,1,94.337,
01/01/2000,01:19:46.11,20.25,-59.66,-991.49,131.25,-717.50,-402.50,1,94.341,
01/01/2000,01:19:46.12,20.37,-59.78,-991.62,122.50,-743.75,-253.75,1,94.345,
01/01/2000,01:19:46.13,20.37,-59.78,-991.62,183.75,-708.75,-332.50,1,94.349,
01/01/2000,01:19:46.14,20.50,-59.66,-991.62,-26.25,-778.75,-385.0,1,94.353,
01/01/2000,01:19:46.15,22.20,-59.54,-991.74,157.50,-700.0,-752.50,1,94.357,
01/01/2000,01:19:46.16,25.25,-59.54,-992.47,376.25,-647.50,-577.50,1,94.296,
01/01/2000,01:19:46.17,26.72,-59.29,-992.23,-183.75,-708.75,-227.50,1,94.299,
01/01/2000,01:19:46.18,27.33,-60.39,-991.13,376.25,-673.75,26.25,1,94.303,
01/01/2000,01:19:46.19,27.57,-60.02,-990.52,113.75,-735.0,-498.75,1,94.307,
01/01/2000,01:19:46.20,27.08,-60.39,-991.25,253.75,-778.75,-323.75,1,94.311,
01/01/2000,01:19:46.21,26.47,-60.27,-992.23,341.25,-717.50,-446.25,1,94.315,
01/01/2000,01:19:46.22,25.99,-59.54,-992.96,43.75,-638.75,-367.50,1,94.319,
01/01/2000,01:19:46.24,25.86,-59.17,-992.23,183.75,-621.25,-323.75,1,94.323,
01/01/2000,01:19:46.25,25.86,-59.17,-991.13,253.75,-691.25,-192.50,1,94.327,
01/01/2000,01:19:46.26,26.84,-59.54,-990.15,61.25,-752.50,-586.25,1,94.331,
01/01/2000,01:19:46.27,29.04,-60.39,-989.91,157.50,-656.25,-840.0,1,94.334,
01/01/2000,01:19:46.28,30.74,-60.02,-990.64,17.50,-700.0,-945.0,1,94.338,
01/01/2000,01:19:46.29,32.82,-60.02,-991.74,175.0,-700.0,-796.25,1,94.342,
01/01/2000,01:19:46.30,34.89,-59.29,-992.84,87.50,-726.25,-236.25,1,94.346,
01/01/2000,01:19:46.31,34.89,-59.41,-992.71,-8.75,-638.75,227.50,1,94.350,
01/01/2000,01:19:46.32,33.67,-60.02,-991.86,253.75,-822.50,35.0,1,94.354,
01/01/2000,01:19:46.33,30.38,-60.39,-991.25,236.25,-831.25,-140.0,1,94.358,
01/01/2000,01:19:46.34,28.30,-60.27,-990.76,140.0,-805.0,-455.0,1,94.361,
01/01/2000,01:19:46.35,26.60,-59.90,-990.64,43.75,-726.25,-437.50,1,94.365,
01/01/2000,01:19:46.36,25.50,-59.29,-991.01,87.50,-621.25,-437.50,1,94.369,
01/01/2000,01:19:46.37,25.62,-59.17,-991.49,297.50,-691.25,-420.0,1,94.309,
01/01/2000,01:19:46.38,27.21,-59.54,-991.62,210.0,-621.25,-358.75,1,94.313,
01/01/2000,01:19:46.39,28.06,-60.02,-991.49,157.50,-743.75,-183.75,1,94.317,
01/01/2000,01:19:46.40,28.06,-60.63,-991.13,96.25,-752.50,-210.0,1,94.320,
01/01/2000,01:19:46.41,27.57,-60.76,-991.01,96.25,-761.25,-411.25,1,94.324,
01/01/2000,01:19:46.43,25.62,-60.02,-991.25,17.50,-840.0,-297.50,1,94.328,
01/01/2000,01:19:46.44,23.79,-59.29,-991.62,157.50,-752.50,-140.0,1,94.332,
01/01/2000,01:19:46.45,22.94,-59.17,-991.62,131.25,-682.50,-253.75,1,94.336,
01/01/2000,01:19:46.46,22.94,-59.54,-991.74,78.75,-638.75,-245.0,1,94.340,
01/01/2000,01:19:46.47,23.42,-60.02,-991.62,288.75,-603.75,-376.25,1,94.343,
01/01/2000,01:19:46.48,23.91,-60.15,-991.37,8.75,-595.0,-341.25,1,94.347,
01/01/2000,01:19:46.49,23.42,-60.39,-990.76,201.25,-743.75,-385.0,1,94.351,
01/01/2000,01:19:46.50,22.69,-60.02,-990.64,175.0,-840.0,-236.25,1,94.355,
01/01/2000,01:19:46.51,20.98,-59.66,-991.37,61.25,-778.75,-122.50,1,94.295,
01/01/2000,01:19:46.52,19.76,-59.54,-991.98,26.25,-691.25,-245.0,1,94.299,
01/01/2000,01:19:46.53,18.67,-59.54,-992.35,175.0,-630.0,-297.50,1,94.303,
01/01/2000,01:19:46.54,18.54,-59.54,-992.23,26.25,-638.75,-402.50,1,94.307,
01/01/2000,01:19:46.55,19.52,-59.78,-991.62,280.0,-612.50,-525.0,1,94.311,
01/01/2000,01:19:46.56,20.74,-59.78,-991.13,236.25,-708.75,-507.50,1,94.314,
01/01/2000,01:19:46.57,21.84,-59.90,-991.13,201.25,-743.75,-280.0,1,94.318,
01/01/2000,01:19:46.58,22.94,-59.90,-991.62,17.50,-726.25,-288.75,1,94.322,
01/01/2000,01:19:46.59,22.81,-60.02,-992.10,236.25,-708.75,-253.75,1,94.326,
01/01/2000,01:19:46.60,22.08,-59.78,-992.47,105.0,-708.75,-192.50,1,94.330,
01/01/2000,01:19:46.61,21.23,-59.66,-992.59,70.0,-638.75,-253.75,1,94.333,
01/01/2000,01:19:46.62,20.50,-59.54,-991.98,113.75,-673.75,-455.0,1,94.337,
01/01/2000,01:19:46.63,20.25,-59.41,-991.62,271.25,-630.0,-271.25,1,94.341,
01/01/2000,01:19:46.64,20.74,-59.41,-991.13,-96.25,-586.25,-253.75,1,94.345,
01/01/2000,01:19:46.66,20.98,-59.90,-991.37,253.75,-717.50,-402.50,1,94.348,
01/01/2000,01:19:46.67,21.11,-59.90,-991.62,-70.0,-595.0,-332.50,1,94.352,
01/01/2000,01:19:46.68,20.98,-60.15,-992.10,52.50,-752.50,-446.25,1,94.356,
01/01/2000,01:19:46.69,19.64,-59.66,-991.86,61.25,-796.25,-218.75,1,94.360,
01/01/2000,01:19:46.70,18.79,-59.41,-991.25,236.25,-621.25,-201.25,1,94.363,
01/01/2000,01:19:46.71,18.30,-59.29,-991.13,262.50,-630.0,-367.50,1,94.367,
01/01/2000,01:19:46.72,18.42,-59.54,-991.13,218.75,-595.0,-420.0,1,94.308,
01/01/2000,01:19:46.73,19.03,-59.78,-991.13,201.25,-883.75,-411.25,1,94.312,
01/01/2000,01:19:46.74,20.62,-59.90,-991.37,78.75,-778.75,-428.75,1,94.316,
01/01/2000,01:19:46.75,21.47,-60.02,-991.62,122.50,-717.50,-367.50,1,94.320,
01/01/2000,01:19:46.76,21.72,-59.78,-991.62,183.75,-621.25,-385.0,1,94.323,
01/01/2000,01:19:46.77,21.84,-59.54,-991.62,236.25,-656.25,-175.0,1,94.327,
01/01/2000,01:19:46.78,21.47,-59.78,-991.62,175.0,-691.25,-218.75,1,94.331,
01/01/2000,01:19:46.80,20.13,-59.29,-991.49,201.25,-560.0,-297.50,1,94.335,
01/01/2000,01:19:46.81,19.52,-59.41,-991.25,122.50,-621.25,-428.75,1,94.338,
01/01/2000,01:19:46.82,19.76,-59.54,-991.37,166.25,-647.50,-350.0,1,94.342,
01/01/2000,01:19:46.83,20.37,-59.41,-991.49,271.25,-726.25,-385.0,1,94.346,
01/01/2000,01:19:46.84,21.11,-59.54,-991.62,131.25,-735.0,-297.50,1,94.350,
01/01/2000,01:19:46.85,21.72,-59.66,-991.37,140.0,-752.50,-323.75,1,94.353,
01/01/2000,01:19:46.86,21.59,-60.02,-991.37,96.25,-603.75,-393.75,1,94.357,
01/01/2000,01:19:46.87,20.50,-59.90,-991.62,78.75,-796.25,-175.0,1,94.361,
01/01/2000,01:19:46.88,19.52,-59.78,-991.37,8.75,-726.25,-280.0,1,94.364,
01/01/2000,01:19:46.89,18.54,-59.41,-991.13,131.25,-682.50,-455.0,1,94.368,
01/01/2000,01:19:46.90,18.18,-59.17,-991.13,35.0,-656.25,-542.50,1,94.372,
01/01/2000,01:19:46.91,19.15,-59.17,-991.62,227.50,-700.0,-332.50,1,94.375,
01/01/2000,01:19:46.92,20.01,-59.41,-991.74,148.75,-743.75,-236.25,1,94.379,
01/01/2000,01:19:46.94,21.47,-60.15,-991.86,148.75,-717.50,-367.50,1,94.321,
01/01/2000,01:19:46.95,22.08,-60.27,-991.86,236.25,-787.50,-385.0,1,94.325,
01/01/2000,01:19:46.96,21.96,-59.78,-991.62,280.0,-752.50,-350.0,1,94.329,
01/01/2000,01:19:46.97,21.35,-59.54,-991.62,43.75,-770.0,-253.75,1,94.332,
01/01/2000,01:19:46.98,20.74,-59.29,-991.62,35.0,-726.25,-201.25,1,94.336,
01/01/2000,01:19:46.99,20.01,-59.54,-991.74,201.25,-708.75,-350.0,1,94.340,
01/01/2000,01:19:47.00,19.52,-59.54,-991.86,131.25,-560.0,-376.25,1,94.343,
01/01/2000,01:19:47.01,19.89,-59.78,-991.86,210.0,-682.50,-455.0,1,94.347,
01/01/2000,01:19:47.02,20.50,-59.54,-991.86,148.75,-551.25,-411.25,1,94.351,
01/01/2000,01:19:47.03,20.74,-60.02,-991.74,288.75,-638.75,-192.50,1,94.354,
01/01/2000,01:19:47.04,20.50,-60.02,-991.37,43.75,-708.75,-280.0,1,94.358,
01/01/2000,01:19:47.05,20.01,-60.15,-991.49,245.0,-857.50,-385.0,1,94.301,
01/01/2000,01:19:47.06,19.28,-59.78,-991.49,140.0,-612.50,-455.0,1,94.365,
01/01/2000,01:19:47.07,18.91,-59.78,-991.62,253.75,-682.50,-350.0,1,94.308,
01/01/2000,01:19:47.08,18.67,-59.41,-991.86,236.25,-612.50,-288.75,1,94.312,
01/01/2000,01:19:47.09,18.79,-59.29,-991.74,157.50,-726.25,-306.25,1,94.315,
01/01/2000,01:19:47.10,19.28,-59.41,-991.74,367.50,-656.25,-402.50,1,94.319,
01/01/2000,01:19:47.11,20.13,-59.66,-991.86,78.75,-682.50,-358.75,1,94.323,
01/01/2000,01:19:47.12,20.98,-60.27,-991.62,70.0,-770.0,-332.50,1,94.326,
01/01/2000,01:19:47.13,21.23,-60.51,-991.62,148.75,-752.50,-402.50,1,94.330,
01/01/2000,01:19:47.15,21.72,-60.02,-991.74,52.50,-726.25,-323.75,1,94.334,
01/01/2000,01:19:47.16,21.35,-60.02,-991.86,105.0,-682.50,-323.75,1,94.337,
01/01/2000,01:19:47.17,20.98,-59.54,-991.98,61.25,-726.25,-236.25,1,94.341,
01/01/2000,01:19:47.18,20.74,-59.78,-991.74,315.0,-682.50,-350.0,1,94.344,
01/01/2000,01:19:47.19,20.62,-59.66,-992.10,52.50,-770.0,-577.50,1,94.348,
01/01/2000,01:19:47.20,20.74,-59.78,-992.10,210.0,-796.25,-376.25,1,94.352,
01/01/2000,01:19:47.21,21.11,-59.78,-991.98,113.75,-717.50,-218.75,1,94.355,
01/01/2000,01:19:47.22,21.72,-59.66,-991.86,61.25,-603.75,-210.0,1,94.359,
01/01/2000,01:19:47.23,21.59,-59.78,-991.49,0.0,-831.25,-393.75,1,94.363,
01/01/2000,01:19:47.24,20.37,-59.90,-991.86,218.75,-665.0,-280.0,1,94.366,
01/01/2000,01:19:47.25,19.52,-59.78,-991.86,175.0,-586.25,-262.50,1,94.370,
01/01/2000,01:19:47.26,18.30,-59.90,-991.86,157.50,-682.50,-297.50,1,94.373,
01/01/2000,01:19:47.27,17.57,-59.41,-991.86,122.50,-743.75,-315.0,1,94.377,
01/01/2000,01:19:47.28,17.93,-59.78,-991.98,218.75,-691.25,-376.25,1,94.320,
01/01/2000,01:19:47.30,19.28,-59.66,-991.86,201.25,-630.0,-420.0,1,94.324,
01/01/2000,01:19:47.31,20.25,-59.54,-991.86,131.25,-647.50,-350.0,1,94.328,
01/01/2000,01:19:47.32,21.23,-60.02,-991.62,105.0,-673.75,-236.25,1,94.331,
01/01/2000,01:19:47.33,21.72,-60.27,-991.37,140.0,-822.50,-236.25,1,94.335,
01/01/2000,01:19:47.34,21.72,-60.51,-991.37,52.50,-787.50,-350.0,1,94.338,
01/01/2000,01:19:47.35,20.74,-60.51,-991.62,227.50,-603.75,-315.0,1,94.342,
01/01/2000,01:19:47.36,20.01,-59.78,-992.10,131.25,-735.0,-323.75,1,94.346,
01/01/2000,01:19:47.37,19.89,-59.41,-992.35,175.0,-717.50,-288.75,1,94.349,
01/01/2000,01:19:47.38,20.13,-59.54,-992.35,262.50,-638.75,-323.75,1,94.353,
01/01/2000,01:19:47.39,20.25,-59.54,-992.23,-35.0,-778.75,-192.50,1,94.356,
01/01/2000,01:19:47.40,20.74,-60.51,-991.74,262.50,-717.50,-437.50,1,94.360,
01/01/2000,01:19:47.41,20.74,-60.51,-991.62,280.0,-630.0,-393.75,1,94.364,
01/01/2000,01:19:47.42,20.25,-60.39,-991.62,78.75,-752.50,-402.50,1,94.367,
01/01/2000,01:19:47.43,19.52,-60.02,-991.62,148.75,-673.75,-507.50,1,94.311,
01/01/2000,01:19:47.45,19.28,-59.29,-991.98,70.0,-647.50,-271.25,1,94.315,
01/01/2000,01:19:47.46,19.89,-59.29,-992.35,113.75,-700.0,-218.75,1,94.318,
01/01/2000,01:19:47.47,20.37,-59.54,-991.98,35.0,-717.50,-358.75,1,94.322,
01/01/2000,01:19:47.48,20.86,-60.27,-991.62,113.75,-778.75,-262.50,1,94.325,
01/01/2000,01:19:47.49,21.11,-60.27,-991.37,113.75,-656.25,-358.75,1,94.329,
01/01/2000,01:19:47.50,21.23,-60.27,-991.25,201.25,-708.75,-463.75,1,94.332,
01/01/2000,01:19:47.51,21.11,-59.54,-991.25,148.75,-761.25,-341.25,1,94.336,
01/01/2000,01:19:47.52,20.62,-59.41,-991.37,148.75,-778.75,-227.50,1,94.340,
01/01/2000,01:19:47.53,20.50,-59.41,-991.49,245.0,-656.25,-288.75,1,94.343,
01/01/2000,01:19:47.54,20.50,-59.54,-992.10,122.50,-638.75,-332.50,1,94.347,
01/01/2000,01:19:47.55,20.74,-59.66,-992.10,-35.0,-805.0,-315.0,1,94.350,
01/01/2000,01:19:47.56,20.86,-60.02,-991.98,280.0,-691.25,-341.25,1,94.354,
01/01/2000,01:19:47.57,20.86,-59.78,-991.37,-8.75,-770.0,-271.25,1,94.298,
01/01/2000,01:19:47.58,20.74,-59.78,-991.37,43.75,-708.75,-455.0,1,94.302,
01/01/2000,01:19:47.59,20.50,-59.66,-991.37,87.50,-848.75,-218.75,1,94.305,
01/01/2000,01:19:47.60,19.28,-59.78,-991.62,78.75,-656.25,-96.25,1,94.309,
01/01/2000,01:19:47.61,18.42,-59.66,-991.74,70.0,-691.25,-376.25,1,94.313,
01/01/2000,01:19:47.62,17.81,-59.90,-991.74,315.0,-586.25,-385.0,1,94.316,
01/01/2000,01:19:47.63,18.30,-59.17,-991.74,113.75,-717.50,-490.0,1,94.320,
01/01/2000,01:19:47.64,19.03,-59.29,-991.62,402.50,-700.0,-367.50,1,94.323,
01/01/2000,01:19:47.65,20.74,-59.29,-991.49,131.25,-603.75,-437.50,1,94.327,
01/01/2000,01:19:47.66,21.47,-59.66,-991.37,113.75,-647.50,-297.50,1,94.330,
01/01/2000,01:19:47.67,21.72,-60.02,-991.13,96.25,-717.50,-411.25,1,94.334,
01/01/2000,01:19:47.68,21.47,-60.02,-991.13,122.50,-673.75,-358.75,1,94.337,
01/01/2000,01:19:47.69,20.86,-59.54,-991.25,70.0,-708.75,-350.0,1,94.341,
01/01/2000,01:19:47.70,20.13,-59.17,-991.49,227.50,-673.75,-332.50,1,94.344,
01/01/2000,01:19:47.72,19.76,-58.68,-991.62,78.75,-717.50,-271.25,1,94.348,
01/01/2000,01:19:47.73,19.89,-58.80,-991.49,8.75,-752.50,-280.0,1,94.351,
01/01/2000,01:19:47.74,20.25,-59.05,-991.37,245.0,-586.25,-402.50,1,94.355,
01/01/2000,01:19:47.75,20.98,-59.41,-991.01,227.50,-743.75,-306.25,1,94.358,
01/01/2000,01:19:47.76,22.08,-59.78,-991.01,227.50,-743.75,-306.25,1,94.362,
01/01/2000,01:19:47.77,22.20,-59.66,-991.01,122.50,-735.0,-297.50,1,94.365,
01/01/2000,01:19:47.78,20.98,-59.54,-991.01,210.0,-813.75,-481.25,1,94.369,
01/01/2000,01:19:47.79,19.76,-59.41,-991.62,26.25,-857.50,-87.50,1,94.372,
01/01/2000,01:19:47.80,18.79,-59.29,-993.08,288.75,-595.0,-437.50,1,94.317,
01/01/2000,01:19:47.81,18.30,-59.41,-993.81,323.75,-691.25,-332.50,1,94.379,
01/01/2000,01:19:47.82,18.30,-58.68,-993.81,227.50,-595.0,-411.25,1,94.324,
01/01/2000,01:19:47.83,19.28,-58.93,-992.84,245.0,-533.75,-367.50,1,94.328,
01/01/2000,01:19:47.84,20.25,-59.05,-991.74,306.25,-630.0,-306.25,1,94.331,
01/01/2000,01:19:47.86,21.59,-59.78,-990.88,113.75,-787.50,-218.75,1,94.335,
01/01/2000,01:19:47.87,21.96,-60.27,-990.88,210.0,-735.0,-393.75,1,94.338,
01/01/2000,01:19:47.88,21.23,-60.27,-991.86,192.50,-752.50,-367.50,1,94.342,
01/01/2000,01:19:47.89,20.62,-59.05,-992.47,52.50,-700.0,-463.75,1,94.345,
01/01/2000,01:19:47.90,20.13,-59.05,-992.59,113.75,-612.50,-245.0,1,94.349,
01/01/2000,01:19:47.91,19.89,-58.44,-992.59,376.25,-621.25,-358.75,1,94.352,
01/01/2000,01:19:47.92,19.76,-59.05,-992.10,148.75,-743.75,-166.25,1,94.356,
01/01/2000,01:19:47.93,20.25,-59.54,-991.49,227.50,-691.25,-525.0,1,94.359,
01/01/2000,01:19:47.94,21.35,-60.02,-991.25,70.0,-717.50,-463.75,1,94.363,
01/01/2000,01:19:47.95,21.96,-60.02,-991.13,253.75,-796.25,-350.0,1,94.308,
01/01/2000,01:19:47.97,21.72,-59.54,-991.37,17.50,-831.25,-341.25,1,94.312,
01/01/2000,01:19:47.98,20.50,-59.29,-991.49,140.0,-726.25,-113.75,1,94.315,
01/01/2000,01:19:47.99,18.67,-58.93,-991.86,78.75,-621.25,-315.0,1,94.319,
01/01/2000,01:19:48.00,17.81,-59.17,-991.98,210.0,-726.25,-315.0,1,94.322,
01/01/2000,01:19:48.01,17.57,-59.29,-991.86,192.50,-673.75,-376.25,1,94.326,
01/01/2000,01:19:48.02,18.30,-59.29,-991.62,78.75,-708.75,-402.50,1,94.329,
01/01/2000,01:19:48.03,19.40,-59.41,-991.62,140.0,-612.50,-420.0,1,94.333,
01/01/2000,01:19:48.04,20.50,-59.66,-991.49,157.50,-612.50,-393.75,1,94.336,
01/01/2000,01:19:48.05,21.47,-59.66,-991.49,140.0,-708.75,-297.50,1,94.340,
01/01/2000,01:19:48.06,21.84,-59.54,-991.01,52.50,-796.25,-315.0,1,94.343,
01/01/2000,01:19:48.07,21.96,-59.54,-990.64,227.50,-682.50,-271.25,1,94.347,
01/01/2000,01:19:48.08,21.47,-59.78,-990.76,148.75,-743.75,-385.0,1,94.350,
01/01/2000,01:19:48.09,20.62,-59.41,-991.25,140.0,-770.0,-306.25,1,94.353,
01/01/2000,01:19:48.10,19.76,-59.54,-991.62,122.50,-726.25,-315.0,1,94.357,
01/01/2000,01:19:48.11,19.52,-59.41,-991.86,113.75,-805.0,-385.0,1,94.360,
01/01/2000,01:19:48.12,19.40,-59.05,-992.10,183.75,-621.25,-271.25,1,94.364,
01/01/2000,01:19:48.13,20.50,-59.29,-991.74,271.25,-612.50,-341.25,1,94.310,
01/01/2000,01:19:48.14,21.35,-59.54,-991.25,113.75,-717.50,-192.50,1,94.313,
01/01/2000,01:19:48.15,21.47,-60.02,-990.76,87.50,-796.25,-96.25,1,94.317,
01/01/2000,01:19:48.16,20.25,-60.15,-990.76,192.50,-778.75,-288.75,1,94.320,
01/01/2000,01:19:48.17,19.28,-60.27,-991.01,113.75,-743.75,-297.50,1,94.324,
01/01/2000,01:19:48.18,18.42,-60.02,-991.37,192.50,-831.25,-525.0,1,94.327,
01/01/2000,01:19:48.19,18.06,-59.41,-992.23,157.50,-577.50,-358.75,1,94.331,
01/01/2000,01:19:48.21,18.42,-58.56,-992.59,227.50,-700.0,-341.25,1,94.334,
01/01/2000,01:19:48.22,19.76,-58.80,-992.10,183.75,-682.50,-315.0,1,94.337,
01/01/2000,01:19:48.23,20.98,-59.17,-991.62,87.50,-726.25,-297.50,1,94.341,
01/01/2000,01:19:48.24,21.96,-60.02,-991.13,218.75,-717.50,-385.0,1,94.344,
01/01/2000,01:19:48.25,22.45,-60.27,-991.01,61.25,-743.75,-428.75,1,94.348,
01/01/2000,01:19:48.26,22.08,-60.27,-991.25,227.50,-796.25,-288.75,1,94.351,
01/01/2000,01:19:48.27,21.23,-59.66,-991.62,105.0,-586.25,-315.0,1,94.354,
01/01/2000,01:19:48.28,19.40,-59.05,-992.23,253.75,-673.75,-253.75,1,94.358,
01/01/2000,01:19:48.29,18.30,-58.56,-992.35,105.0,-647.50,-385.0,1,94.361,
01/01/2000,01:19:48.30,17.81,-58.93,-992.47,131.25,-665.0,-183.75,1,94.365,
01/01/2000,01:19:48.31,18.54,-59.29,-992.59,166.25,-726.25,-332.50,1,94.368,
01/01/2000,01:19:48.32,20.37,-59.54,-992.10,140.0,-630.0,-498.75,1,94.371,
01/01/2000,01:19:48.33,21.47,-59.78,-991.62,157.50,-875.0,-463.75,1,94.375,
01/01/2000,01:19:48.34,22.20,-59.78,-990.52,157.50,-708.75,-183.75,1,94.322,
01/01/2000,01:19:48.35,21.59,-59.78,-990.52,140.0,-901.25,-271.25,1,94.325,
