rtcDate,rtcTime,aX,aY,aZ,gX,gY,gZ,dataRdy,output_Hz,
01/01/2000,01:42:19.44,11.71,-65.64,-862.17,113.75,-612.50,-376.25,1,0.0,
01/01/2000,01:42:19.46,12.20,-68.08,-892.06,183.75,-752.50,-332.50,1,100.0,
01/01/2000,01:42:19.47,12.08,-69.05,-904.26,210.0,-656.25,-280.0,1,100.0,
01/01/2000,01:42:19.48,12.44,-69.66,-915.0,157.50,-691.25,-306.25,1,100.0,
01/01/2000,01:42:19.49,12.69,-70.27,-928.91,148.75,-673.75,-376.25,1,100.0,
01/01/2000,01:42:19.50,12.93,-71.00,-936.72,140.0,-673.75,-315.0,1,100.0,
01/01/2000,01:42:19.51,13.18,-71.61,-943.43,192.50,-647.50,-227.50,1,100.0,
01/01/2000,01:42:19.52,13.05,-72.59,-951.84,140.0,-673.75,-376.25,1,100.0,
01/01/2000,01:42:19.53,12.93,-72.96,-956.72,87.50,-630.0,-385.0,1,100.0,
01/01/2000,01:42:19.54,13.05,-73.08,-961.24,43.75,-700.0,-341.25,1,100.0,
01/01/2000,01:42:19.55,13.18,-73.20,-965.14,131.25,-778.75,-288.75,1,100.0,
01/01/2000,01:42:19.56,13.18,-73.32,-968.56,87.50,-673.75,-393.75,1,100.0,
01/01/2000,01:42:19.57,12.93,-73.93,-972.58,227.50,-691.25,-315.0,1,100.0,
01/01/2000,01:42:19.58,13.18,-74.18,-974.90,131.25,-752.50,-463.75,1,100.0,
01/01/2000,01:42:19.59,13.30,-74.42,-977.10,140.0,-612.50,-393.75,1,100.0,
01/01/2000,01:42:19.60,13.30,-74.54,-980.03,183.75,-682.50,-297.50,1,100.0,
01/01/2000,01:42:19.61,13.30,-74.66,-981.49,148.75,-682.50,-385.0,1,100.0,
01/01/2000,01:42:19.62,13.18,-74.79,-982.59,105.0,-647.50,-455.0,1,100.0,
01/01/2000,01:42:19.63,13.05,-74.91,-983.56,140.0,-708.75,-297.50,1,100.0,
01/01/2000,01:42:19.64,13.30,-74.66,-984.78,218.75,-682.50,-358.75,1,100.0,
01/01/2000,01:42:19.65,13.54,-74.91,-986.37,113.75,-612.50,-315.0,1,100.0,
01/01/2000,01:42:19.66,13.42,-75.15,-987.22,105.0,-752.50,-385.0,1,95.652,
01/01/2000,01:42:19.67,13.42,-75.27,-987.59,157.50,-700.0,-385.0,1,95.833,
01/01/2000,01:42:19.68,13.30,-75.15,-988.57,306.25,-673.75,-393.75,1,96.0,
01/01/2000,01:42:19.69,13.42,-75.15,-989.18,148.75,-595.0,-385.0,1,96.154,
01/01/2000,01:42:19.70,13.42,-75.15,-989.66,201.25,-691.25,-402.50,1,96.296,
01/01/2000,01:42:19.71,13.42,-75.27,-989.91,70.0,-691.25,-262.50,1,96.429,
01/01/2000,01:42:19.73,13.42,-75.64,-990.15,131.25,-673.75,-350.0,1,96.552,
01/01/2000,01:42:19.74,13.18,-75.64,-990.64,183.75,-717.50,-402.50,1,96.667,
01/01/2000,01:42:19.75,13.30,-75.40,-991.25,96.25,-647.50,-358.75,1,96.774,
01/01/2000,01:42:19.76,13.42,-75.15,-991.37,-8.75,-682.50,-358.75,1,96.875,
01/01/2000,01:42:19.77,13.30,-75.27,-991.49,96.25,-638.75,-306.25,1,96.970,
01/01/2000,01:42:19.78,13.18,-75.52,-991.49,122.50,-761.25,-358.75,1,97.059,
01/01/2000,01:42:19.79,13.18,-75.64,-991.49,113.75,-630.0,-306.25,1,97.143,
01/01/2000,01:42:19.80,13.54,-75.52,-991.98,227.50,-761.25,-306.25,1,97.222,
01/01/2000,01:42:19.81,13.54,-75.52,-991.98,105.0,-700.0,-341.25,1,97.297,
01/01/2000,01:42:19.82,13.42,-75.52,-991.86,131.25,-726.25,-350.0,1,97.368,
01/01/2000,01:42:19.83,13.30,-75.52,-991.86,218.75,-586.25,-341.25,1,97.436,
01/01/2000,01:42:19.84,13.42,-75.52,-991.86,113.75,-638.75,-271.25,1,97.500,
01/01/2000,01:42:19.85,13.54,-75.52,-992.10,183.75,-717.50,-323.75,1,97.561,
01/01/2000,01:42:19.86,13.66,-75.40,-992.10,175.0,-743.75,-402.50,1,95.349,
01/01/2000,01:42:19.87,13.66,-75.52,-992.23,183.75,-647.50,-411.25,1,95.455,
01/01/2000,01:42:19.88,13.66,-75.52,-992.23,61.25,-647.50,-385.0,1,95.556,
01/01/2000,01:42:19.89,13.54,-75.40,-992.35,271.25,-691.25,-332.50,1,95.652,
01/01/2000,01:42:19.90,13.66,-75.52,-992.10,183.75,-647.50,-323.75,1,95.745,
01/01/2000,01:42:19.91,13.79,-75.64,-991.86,140.0,-717.50,-306.25,1,95.833,
01/01/2000,01:42:19.92,13.66,-75.64,-991.98,183.75,-682.50,-271.25,1,95.918,
01/01/2000,01:42:19.94,13.42,-75.76,-991.98,201.25,-700.0,-332.50,1,96.0,
01/01/2000,01:42:19.95,13.42,-75.64,-991.98,245.0,-665.0,-376.25,1,96.078,
01/01/2000,01:42:19.96,13.42,-75.52,-992.23,70.0,-778.75,-420.0,1,94.340,
01/01/2000,01:42:19.97,13.42,-75.40,-992.10,96.25,-682.50,-280.0,1,94.444,
01/01/2000,01:42:19.98,13.54,-75.27,-992.10,122.50,-595.0,-306.25,1,94.545,
01/01/2000,01:42:19.99,13.54,-75.40,-991.98,157.50,-682.50,-271.25,1,94.643,
01/01/2000,01:42:20.00,13.42,-75.40,-991.86,175.0,-717.50,-411.25,1,94.737,
01/01/2000,01:42:20.01,13.66,-75.40,-992.10,236.25,-743.75,-236.25,1,94.828,
01/01/2000,01:42:20.02,13.79,-75.40,-992.35,131.25,-822.50,-245.0,1,94.915,
01/01/2000,01:42:20.04,13.66,-75.40,-992.10,227.50,-586.25,-332.50,1,95.0,
01/01/2000,01:42:20.04,13.66,-75.40,-991.98,148.75,-647.50,-288.75,1,95.082,
01/01/2000,01:42:20.06,13.79,-75.27,-992.10,140.0,-682.50,-411.25,1,95.161,
01/01/2000,01:42:20.07,13.91,-75.27,-992.10,157.50,-691.25,-393.75,1,95.238,
01/01/2000,01:42:20.08,13.66,-75.40,-991.98,78.75,-656.25,-306.25,1,95.313,
01/01/2000,01:42:20.09,13.42,-75.40,-991.86,105.0,-656.25,-402.50,1,95.385,
01/01/2000,01:42:20.10,13.42,-75.27,-991.86,192.50,-630.0,-315.0,1,95.455,
01/01/2000,01:42:20.11,13.42,-75.27,-991.86,122.50,-682.50,-315.0,1,95.522,
01/01/2000,01:42:20.12,13.42,-75.27,-991.98,148.75,-761.25,-341.25,1,95.588,
01/01/2000,01:42:20.13,13.66,-75.40,-991.98,105.0,-656.25,-271.25,1,95.652,
01/01/2000,01:42:20.14,13.42,-75.40,-991.86,96.25,-638.75,-437.50,1,95.714,
01/01/2000,01:42:20.15,13.42,-75.40,-991.86,175.0,-673.75,-315.0,1,95.775,
01/01/2000,01:42:20.16,13.42,-75.27,-991.86,218.75,-796.25,-350.0,1,95.833,
01/01/2000,01:42:20.17,13.54,-75.27,-992.10,26.25,-612.50,-350.0,1,95.890,
01/01/2000,01:42:20.18,13.54,-75.52,-992.10,78.75,-586.25,-306.25,1,95.946,
01/01/2000,01:42:20.19,13.42,-75.52,-991.98,70.0,-682.50,-332.50,1,96.0,
01/01/2000,01:42:20.20,13.42,-75.40,-991.86,131.25,-691.25,-341.25,1,96.053,
01/01/2000,01:42:20.21,13.54,-75.52,-992.10,61.25,-612.50,-262.50,1,94.872,
01/01/2000,01:42:20.22,13.66,-75.40,-992.10,218.75,-682.50,-306.25,1,94.937,
01/01/2000,01:42:20.23,13.54,-75.52,-992.10,280.0,-717.50,-358.75,1,95.0,
01/01/2000,01:42:20.25,13.42,-75.64,-991.86,227.50,-647.50,-446.25,1,95.062,
01/01/2000,01:42:20.25,13.42,-75.64,-991.86,105.0,-726.25,-323.75,1,95.122,
01/01/2000,01:42:20.27,13.42,-75.52,-991.98,122.50,-656.25,-306.25,1,95.181,
01/01/2000,01:42:20.28,13.54,-75.40,-991.98,87.50,-656.25,-332.50,1,95.238,
01/01/2000,01:42:20.29,13.42,-75.52,-991.86,271.25,-700.0,-341.25,1,95.294,
01/01/2000,01:42:20.30,13.30,-75.40,-991.62,201.25,-603.75,-393.75,1,95.349,
01/01/2000,01:42:20.31,13.42,-75.52,-991.74,52.50,-673.75,-393.75,1,95.402,
01/01/2000,01:42:20.32,13.42,-75.40,-991.86,323.75,-743.75,-227.50,1,95.455,
01/01/2000,01:42:20.33,13.42,-75.40,-992.10,148.75,-700.0,-350.0,1,95.506,
01/01/2000,01:42:20.34,13.42,-75.64,-992.10,210.0,-665.0,-376.25,1,95.556,
01/01/2000,01:42:20.35,13.42,-75.64,-991.86,183.75,-673.75,-411.25,1,95.604,
01/01/2000,01:42:20.36,13.54,-75.52,-991.74,192.50,-717.50,-411.25,1,94.624,
01/01/2000,01:42:20.37,13.54,-75.40,-991.86,122.50,-691.25,-323.75,1,94.681,
01/01/2000,01:42:20.38,13.54,-75.40,-992.10,87.50,-726.25,-297.50,1,94.737,
01/01/2000,01:42:20.39,13.42,-75.64,-992.23,227.50,-708.75,-350.0,1,94.792,
01/01/2000,01:42:20.40,13.30,-75.64,-991.98,78.75,-577.50,-323.75,1,94.845,
01/01/2000,01:42:20.41,13.18,-75.64,-991.74,175.0,-638.75,-332.50,1,94.898,
01/01/2000,01:42:20.43,13.42,-75.40,-991.86,253.75,-761.25,-245.0,1,94.949,
01/01/2000,01:42:20.44,13.42,-75.40,-991.86,306.25,-831.25,-367.50,1,95.0,
01/01/2000,01:42:20.45,13.30,-75.64,-991.98,157.50,-726.25,-280.0,1,95.050,
01/01/2000,01:42:20.46,13.18,-75.64,-991.98,96.25,-665.0,-350.0,1,95.098,
01/01/2000,01:42:20.47,13.30,-75.40,-991.86,-35.0,-743.75,-306.25,1,95.146,
01/01/2000,01:42:20.48,13.42,-75.40,-991.86,148.75,-700.0,-393.75,1,94.286,
01/01/2000,01:42:20.49,13.42,-75.40,-991.86,52.50,-691.25,-218.75,1,94.340,
01/01/2000,01:42:20.50,13.42,-75.64,-991.86,201.25,-700.0,-332.50,1,94.393,
01/01/2000,01:42:20.51,13.66,-75.52,-991.98,26.25,-656.25,-446.25,1,94.444,
01/01/2000,01:42:20.52,13.66,-75.52,-992.10,175.0,-665.0,-358.75,1,94.495,
01/01/2000,01:42:20.53,13.91,-75.27,-992.23,201.25,-752.50,-367.50,1,94.545,
01/01/2000,01:42:20.54,13.79,-75.27,-992.23,17.50,-752.50,-323.75,1,94.595,
01/01/2000,01:42:20.55,13.54,-75.52,-992.10,210.0,-761.25,-350.0,1,94.643,
01/01/2000,01:42:20.56,13.66,-75.52,-992.10,306.25,-656.25,-358.75,1,94.690,
01/01/2000,01:42:20.58,13.79,-75.27,-992.23,218.75,-708.75,-323.75,1,94.737,
01/01/2000,01:42:20.59,13.91,-75.40,-992.10,210.0,-787.50,-350.0,1,94.783,
01/01/2000,01:42:20.60,13.66,-75.40,-991.86,227.50,-656.25,-350.0,1,94.828,
01/01/2000,01:42:20.61,13.54,-75.64,-991.62,306.25,-700.0,-358.75,1,94.872,
01/01/2000,01:42:20.62,13.54,-75.64,-991.74,210.0,-621.25,-393.75,1,94.915,
01/01/2000,01:42:20.63,13.66,-75.52,-991.86,218.75,-726.25,-288.75,1,94.958,
01/01/2000,01:42:20.64,13.66,-75.40,-991.86,113.75,-647.50,-385.0,1,95.0,
01/01/2000,01:42:20.65,13.54,-75.27,-991.86,210.0,-691.25,-280.0,1,95.041,
01/01/2000,01:42:20.66,13.54,-75.40,-991.74,183.75,-796.25,-306.25,1,95.082,
01/01/2000,01:42:20.67,13.54,-75.40,-991.86,210.0,-691.25,-323.75,1,95.122,
01/01/2000,01:42:20.68,13.79,-75.40,-992.10,87.50,-647.50,-323.75,1,95.161,
01/01/2000,01:42:20.69,13.79,-75.40,-992.23,131.25,-647.50,-402.50,1,95.200,
01/01/2000,01:42:20.70,13.66,-75.40,-992.10,157.50,-761.25,-280.0,1,95.238,
01/01/2000,01:42:20.71,13.42,-75.52,-991.62,87.50,-665.0,-341.25,1,95.276,
01/01/2000,01:42:20.72,13.42,-75.40,-991.74,175.0,-691.25,-358.75,1,95.313,
01/01/2000,01:42:20.73,13.66,-75.40,-991.86,288.75,-805.0,-393.75,1,95.349,
01/01/2000,01:42:20.74,13.66,-75.27,-991.86,140.0,-691.25,-332.50,1,95.385,
01/01/2000,01:42:20.75,13.66,-75.40,-991.86,210.0,-752.50,-332.50,1,95.420,
01/01/2000,01:42:20.76,13.42,-75.52,-991.74,262.50,-700.0,-358.75,1,95.455,
01/01/2000,01:42:20.77,13.54,-75.40,-991.86,113.75,-647.50,-323.75,1,94.776,
01/01/2000,01:42:20.79,13.66,-75.40,-991.98,26.25,-735.0,-350.0,1,94.815,
01/01/2000,01:42:20.79,13.66,-75.40,-991.86,61.25,-665.0,-315.0,1,94.853,
01/01/2000,01:42:20.81,13.42,-75.64,-991.62,122.50,-630.0,-376.25,1,94.891,
01/01/2000,01:42:20.82,13.42,-75.64,-991.37,218.75,-708.75,-411.25,1,94.928,
01/01/2000,01:42:20.83,13.66,-75.40,-991.86,140.0,-603.75,-341.25,1,94.964,
01/01/2000,01:42:20.84,13.79,-75.27,-991.86,70.0,-761.25,-376.25,1,95.0,
01/01/2000,01:42:20.85,13.66,-75.52,-991.86,43.75,-726.25,-350.0,1,95.035,
01/01/2000,01:42:20.86,13.66,-75.64,-991.62,288.75,-612.50,-306.25,1,95.070,
01/01/2000,01:42:20.87,13.66,-75.76,-991.62,87.50,-638.75,-393.75,1,95.105,
01/01/2000,01:42:20.88,13.66,-75.64,-991.62,122.50,-673.75,-358.75,1,95.139,
01/01/2000,01:42:20.89,13.79,-75.27,-991.74,113.75,-691.25,-437.50,1,95.172,
01/01/2000,01:42:20.90,13.66,-75.15,-991.74,131.25,-630.0,-280.0,1,95.205,
01/01/2000,01:42:20.91,13.42,-75.27,-991.62,201.25,-595.0,-498.75,1,95.238,
01/01/2000,01:42:20.92,13.42,-75.40,-991.37,166.25,-673.75,-306.25,1,94.631,
01/01/2000,01:42:20.93,13.66,-75.27,-991.62,148.75,-735.0,-315.0,1,94.667,
01/01/2000,01:42:20.94,13.91,-75.15,-991.86,70.0,-743.75,-262.50,1,94.702,
01/01/2000,01:42:20.95,13.54,-75.40,-991.86,122.50,-665.0,-358.75,1,94.737,
01/01/2000,01:42:20.96,12.93,-75.40,-991.62,192.50,-673.75,-288.75,1,94.771,
01/01/2000,01:42:20.97,13.05,-75.40,-991.62,122.50,-656.25,-525.0,1,94.805,
01/01/2000,01:42:20.99,13.66,-74.91,-991.74,96.25,-665.0,-245.0,1,94.839,
01/01/2000,01:42:21.00,13.42,-75.27,-991.74,87.50,-656.25,-306.25,1,94.872,
01/01/2000,01:42:21.01,13.30,-75.52,-991.62,166.25,-682.50,-350.0,1,94.304,
01/01/2000,01:42:21.02,13.18,-75.52,-991.74,218.75,-700.0,-472.50,1,94.937,
01/01/2000,01:42:21.03,13.42,-75.40,-991.86,201.25,-612.50,-332.50,1,94.375,
01/01/2000,01:42:21.04,13.66,-75.15,-992.10,17.50,-682.50,-288.75,1,94.410,
01/01/2000,01:42:21.05,13.66,-75.15,-991.62,323.75,-691.25,-166.25,1,94.444,
01/01/2000,01:42:21.06,13.42,-75.52,-991.37,166.25,-735.0,-350.0,1,94.479,
01/01/2000,01:42:21.07,13.18,-75.76,-991.49,218.75,-630.0,-568.75,1,94.512,
01/01/2000,01:42:21.08,13.66,-75.64,-991.98,140.0,-691.25,-332.50,1,94.545,
01/01/2000,01:42:21.09,13.91,-75.40,-992.10,201.25,-691.25,-297.50,1,94.578,
01/01/2000,01:42:21.10,13.79,-75.40,-991.62,43.75,-673.75,-297.50,1,94.611,
01/01/2000,01:42:21.11,13.42,-75.64,-991.25,148.75,-612.50,-280.0,1,94.643,
01/01/2000,01:42:21.12,13.42,-75.76,-991.37,166.25,-743.75,-297.50,1,94.675,
01/01/2000,01:42:21.14,13.66,-75.64,-991.86,218.75,-743.75,-297.50,1,94.706,
01/01/2000,01:42:21.15,13.91,-75.40,-992.23,70.0,-673.75,-297.50,1,94.737,
01/01/2000,01:42:21.16,13.66,-75.40,-991.86,122.50,-840.0,-428.75,1,94.767,
01/01/2000,01:42:21.17,13.18,-75.40,-991.37,105.0,-700.0,-332.50,1,94.798,
01/01/2000,01:42:21.18,13.18,-75.52,-991.37,350.0,-656.25,-350.0,1,94.828,
01/01/2000,01:42:21.19,13.42,-75.40,-991.74,70.0,-700.0,-280.0,1,94.857,
01/01/2000,01:42:21.20,13.66,-75.27,-991.98,43.75,-726.25,-192.50,1,94.886,
01/01/2000,01:42:21.21,13.66,-75.27,-991.62,183.75,-700.0,-402.50,1,94.915,
01/01/2000,01:42:21.22,13.42,-75.64,-991.01,315.0,-735.0,-358.75,1,94.944,
01/01/2000,01:42:21.23,13.42,-75.52,-991.13,192.50,-612.50,-402.50,1,94.972,
01/01/2000,01:42:21.24,13.42,-75.40,-991.49,253.75,-665.0,-358.75,1,95.0,
01/01/2000,01:42:21.25,13.54,-75.15,-991.86,87.50,-691.25,-376.25,1,95.028,
01/01/2000,01:42:21.26,13.42,-75.27,-991.62,87.50,-603.75,-385.0,1,95.055,
01/01/2000,01:42:21.27,13.30,-75.27,-991.13,52.50,-770.0,-288.75,1,94.565,
01/01/2000,01:42:21.28,13.42,-75.52,-990.88,245.0,-630.0,-411.25,1,94.595,
01/01/2000,01:42:21.29,13.42,-75.52,-991.37,227.50,-717.50,-367.50,1,94.624,
01/01/2000,01:42:21.30,13.54,-75.40,-991.62,131.25,-682.50,-420.0,1,94.652,
01/01/2000,01:42:21.31,13.42,-75.40,-991.74,96.25,-630.0,-402.50,1,94.681,
01/01/2000,01:42:21.32,13.30,-75.40,-991.25,43.75,-673.75,-411.25,1,94.709,
01/01/2000,01:42:21.33,13.30,-75.40,-991.13,52.50,-621.25,-402.50,1,94.737,
01/01/2000,01:42:21.35,13.66,-75.27,-991.13,113.75,-717.50,-227.50,1,94.764,
01/01/2000,01:42:21.36,13.66,-75.40,-991.37,131.25,-761.25,-288.75,1,94.792,
01/01/2000,01:42:21.37,13.42,-75.64,-991.25,236.25,-568.75,-323.75,1,94.819,
01/01/2000,01:42:21.38,13.18,-75.40,-991.13,87.50,-761.25,-341.25,1,94.845,
01/01/2000,01:42:21.39,13.18,-75.15,-991.25,271.25,-743.75,-358.75,1,94.872,
01/01/2000,01:42:21.40,13.42,-75.15,-991.37,140.0,-717.50,-271.25,1,94.898,
01/01/2000,01:42:21.41,13.54,-75.40,-991.37,87.50,-796.25,-350.0,1,94.924,
01/01/2000,01:42:21.42,13.42,-75.52,-991.37,105.0,-665.0,-376.25,1,94.949,
01/01/2000,01:42:21.43,13.30,-75.52,-991.25,70.0,-595.0,-463.75,1,94.975,
01/01/2000,01:42:21.44,13.18,-75.40,-991.37,280.0,-630.0,-323.75,1,95.0,
01/01/2000,01:42:21.45,13.42,-74.91,-991.62,131.25,-691.25,-271.25,1,95.025,
01/01/2000,01:42:21.46,13.54,-75.03,-991.49,192.50,-586.25,-201.25,1,95.050,
01/01/2000,01:42:21.47,13.42,-75.15,-991.37,96.25,-682.50,-376.25,1,95.074,
01/01/2000,01:42:21.49,13.54,-75.64,-991.25,131.25,-770.0,-411.25,1,94.634,
01/01/2000,01:42:21.50,13.54,-75.64,-991.37,61.25,-761.25,-332.50,1,94.660,
01/01/2000,01:42:21.51,13.42,-75.15,-991.62,105.0,-743.75,-297.50,1,94.686,
01/01/2000,01:42:21.52,13.30,-75.27,-991.49,315.0,-691.25,-446.25,1,94.712,
01/01/2000,01:42:21.53,13.30,-75.15,-991.13,227.50,-700.0,-367.50,1,94.737,
01/01/2000,01:42:21.54,13.42,-75.40,-991.13,201.25,-708.75,-463.75,1,94.762,
01/01/2000,01:42:21.55,13.91,-75.40,-991.13,-8.75,-647.50,-297.50,1,94.787,
01/01/2000,01:42:21.56,13.91,-75.64,-991.13,122.50,-612.50,-323.75,1,94.811,
01/01/2000,01:42:21.57,13.54,-75.76,-991.13,140.0,-682.50,-280.0,1,94.393,
01/01/2000,01:42:21.58,13.30,-75.52,-991.13,183.75,-700.0,-420.0,1,94.419,
01/01/2000,01:42:21.59,13.54,-75.15,-991.13,87.50,-647.50,-332.50,1,94.444,
01/01/2000,01:42:21.60,13.66,-75.15,-991.37,61.25,-726.25,-192.50,1,94.470,
01/01/2000,01:42:21.61,13.66,-75.27,-991.25,245.0,-595.0,-280.0,1,94.495,
01/01/2000,01:42:21.62,13.42,-75.76,-991.25,245.0,-612.50,-455.0,1,94.521,
01/01/2000,01:42:21.63,13.54,-75.64,-991.37,131.25,-656.25,-446.25,1,94.545,
01/01/2000,01:42:21.64,13.66,-75.52,-991.49,113.75,-735.0,-332.50,1,94.570,
01/01/2000,01:42:21.65,13.66,-75.15,-991.49,148.75,-708.75,-315.0,1,94.595,
01/01/2000,01:42:21.66,13.54,-75.15,-991.25,236.25,-682.50,-271.25,1,94.619,
01/01/2000,01:42:21.67,13.42,-75.15,-991.13,253.75,-770.0,-358.75,1,94.643,
01/01/2000,01:42:21.68,13.30,-75.40,-991.13,236.25,-778.75,-323.75,1,94.667,
01/01/2000,01:42:21.70,13.42,-75.27,-991.25,78.75,-612.50,-297.50,1,94.690,
01/01/2000,01:42:21.71,13.66,-75.27,-991.49,113.75,-621.25,-358.75,1,94.714,
01/01/2000,01:42:21.72,13.66,-75.15,-991.49,8.75,-752.50,-306.25,1,94.737,
01/01/2000,01:42:21.73,13.42,-75.27,-991.37,227.50,-726.25,-385.0,1,94.760,
01/01/2000,01:42:21.74,13.42,-75.15,-991.49,175.0,-638.75,-358.75,1,94.783,
01/01/2000,01:42:21.75,13.54,-75.15,-991.49,280.0,-682.50,-376.25,1,94.805,
01/01/2000,01:42:21.76,13.66,-75.27,-991.62,157.50,-656.25,-306.25,1,94.828,
01/01/2000,01:42:21.77,13.54,-75.27,-991.25,210.0,-752.50,-393.75,1,94.850,
01/01/2000,01:42:21.78,13.42,-75.15,-991.25,61.25,-700.0,-402.50,1,94.872,
01/01/2000,01:42:21.79,13.42,-75.15,-991.37,315.0,-761.25,-323.75,1,94.894,
01/01/2000,01:42:21.80,13.42,-75.15,-991.86,175.0,-691.25,-315.0,1,94.915,
01/01/2000,01:42:21.81,13.54,-75.03,-991.86,87.50,-656.25,-280.0,1,94.937,
01/01/2000,01:42:21.82,13.42,-75.15,-991.62,96.25,-691.25,-262.50,1,94.958,
01/01/2000,01:42:21.83,13.18,-75.27,-991.25,0.0,-621.25,-420.0,1,94.583,
01/01/2000,01:42:21.84,13.30,-75.27,-991.37,166.25,-665.0,-315.0,1,94.606,
01/01/2000,01:42:21.85,13.54,-75.03,-991.49,52.50,-743.75,-253.75,1,94.628,
01/01/2000,01:42:21.86,13.42,-75.15,-991.62,157.50,-630.0,-210.0,1,94.650,
01/01/2000,01:42:21.87,13.30,-75.15,-991.37,26.25,-673.75,-341.25,1,94.672,
01/01/2000,01:42:21.88,13.18,-75.27,-991.01,183.75,-752.50,-420.0,1,94.694,
01/01/2000,01:42:21.89,13.18,-75.27,-991.01,148.75,-595.0,-288.75,1,94.715,
01/01/2000,01:42:21.91,13.42,-75.40,-991.37,218.75,-638.75,-332.50,1,94.737,
01/01/2000,01:42:21.92,13.42,-75.27,-991.37,43.75,-656.25,-297.50,1,94.758,
01/01/2000,01:42:21.93,13.18,-75.64,-991.13,245.0,-726.25,-490.0,1,94.779,
01/01/2000,01:42:21.94,13.05,-75.40,-991.13,122.50,-796.25,-393.75,1,94.800,
01/01/2000,01:42:21.95,13.18,-75.40,-991.49,358.75,-673.75,-323.75,1,94.821,
01/01/2000,01:42:21.96,13.42,-75.15,-991.86,148.75,-752.50,-367.50,1,94.841,
01/01/2000,01:42:21.97,13.42,-75.15,-991.49,52.50,-735.0,-253.75,1,94.862,
01/01/2000,01:42:21.98,13.42,-75.27,-991.25,87.50,-752.50,-437.50,1,94.882,
01/01/2000,01:42:21.99,13.42,-75.40,-991.37,157.50,-647.50,-376.25,1,94.902,
01/01/2000,01:42:22.00,13.54,-75.15,-991.62,52.50,-630.0,-385.0,1,94.922,
01/01/2000,01:42:22.02,13.66,-75.15,-991.74,306.25,-673.75,-323.75,1,94.574,
01/01/2000,01:42:22.03,13.54,-75.27,-991.25,157.50,-656.25,-271.25,1,94.595,
01/01/2000,01:42:22.04,13.42,-75.52,-991.13,166.25,-752.50,-376.25,1,94.615,
01/01/2000,01:42:22.05,13.54,-75.64,-991.25,105.0,-691.25,-393.75,1,94.636,
01/01/2000,01:42:22.06,13.66,-75.40,-991.49,105.0,-735.0,-341.25,1,94.656,
01/01/2000,01:42:22.07,13.66,-75.27,-991.62,113.75,-691.25,-218.75,1,94.677,
01/01/2000,01:42:22.08,13.66,-75.15,-991.49,271.25,-647.50,-446.25,1,94.697,
01/01/2000,01:42:22.09,13.30,-75.27,-991.49,175.0,-577.50,-192.50,1,94.717,
01/01/2000,01:42:22.10,13.42,-75.27,-991.49,87.50,-656.25,-393.75,1,94.737,
01/01/2000,01:42:22.11,13.91,-75.15,-991.74,192.50,-673.75,-367.50,1,94.757,
01/01/2000,01:42:22.12,13.79,-75.15,-991.62,105.0,-735.0,-288.75,1,94.776,
01/01/2000,01:42:22.13,13.54,-75.15,-991.37,227.50,-691.25,-481.25,1,94.796,
01/01/2000,01:42:22.14,13.66,-75.03,-991.37,262.50,-630.0,-315.0,1,94.815,
01/01/2000,01:42:22.15,13.79,-75.03,-991.49,245.0,-813.75,-385.0,1,94.834,
01/01/2000,01:42:22.16,13.66,-75.15,-991.86,131.25,-612.50,-358.75,1,94.853,
01/01/2000,01:42:22.17,13.66,-75.40,-991.86,70.0,-743.75,-358.75,1,94.872,
01/01/2000,01:42:22.18,13.54,-75.40,-991.62,35.0,-708.75,-315.0,1,94.891,
01/01/2000,01:42:22.19,13.66,-75.27,-991.37,87.50,-691.25,-341.25,1,94.565,
01/01/2000,01:42:22.20,13.91,-75.15,-991.37,140.0,-761.25,-323.75,1,94.585,
01/01/2000,01:42:22.21,14.03,-75.27,-991.49,210.0,-682.50,-280.0,1,94.604,
01/01/2000,01:42:22.22,13.91,-75.40,-991.62,78.75,-717.50,-411.25,1,94.624,
01/01/2000,01:42:22.23,13.66,-75.52,-991.49,218.75,-743.75,-393.75,1,94.643,
01/01/2000,01:42:22.24,13.66,-75.40,-991.49,183.75,-770.0,-411.25,1,94.662,
01/01/2000,01:42:22.26,13.91,-75.03,-991.37,105.0,-787.50,-262.50,1,94.681,
01/01/2000,01:42:22.27,13.66,-75.27,-991.37,52.50,-630.0,-227.50,1,94.700,
01/01/2000,01:42:22.28,13.66,-75.40,-991.25,280.0,-603.75,-323.75,1,94.718,
01/01/2000,01:42:22.29,13.54,-75.52,-991.13,87.50,-726.25,-297.50,1,94.737,
01/01/2000,01:42:22.30,13.66,-75.64,-991.13,61.25,-665.0,-367.50,1,94.755,
01/01/2000,01:42:22.31,13.66,-75.27,-991.13,26.25,-682.50,-393.75,1,94.774,
01/01/2000,01:42:22.32,13.54,-75.27,-991.13,113.75,-551.25,-245.0,1,94.792,
01/01/2000,01:42:22.33,13.42,-75.40,-991.13,175.0,-682.50,-358.75,1,94.810,
01/01/2000,01:42:22.34,13.42,-75.52,-991.37,35.0,-743.75,-367.50,1,94.828,
01/01/2000,01:42:22.35,13.42,-75.52,-991.49,253.75,-708.75,-341.25,1,94.845,
01/01/2000,01:42:22.36,13.42,-75.15,-991.37,175.0,-665.0,-306.25,1,94.539,
01/01/2000,01:42:22.37,13.42,-75.15,-991.13,131.25,-708.75,-332.50,1,94.881,
01/01/2000,01:42:22.38,13.30,-75.15,-991.13,166.25,-805.0,-350.0,1,94.576,
01/01/2000,01:42:22.39,13.18,-75.40,-991.13,227.50,-630.0,-280.0,1,94.595,
01/01/2000,01:42:22.41,13.42,-75.27,-991.37,-8.75,-673.75,-411.25,1,94.613,
01/01/2000,01:42:22.42,13.30,-75.40,-991.62,253.75,-743.75,-490.0,1,94.631,
01/01/2000,01:42:22.43,13.30,-75.27,-991.62,122.50,-700.0,-227.50,1,94.649,
01/01/2000,01:42:22.44,13.30,-75.27,-991.49,253.75,-638.75,-420.0,1,94.667,
01/01/2000,01:42:22.45,13.30,-75.27,-991.37,105.0,-770.0,-306.25,1,94.684,
01/01/2000,01:42:22.46,13.05,-75.27,-991.37,210.0,-743.75,-376.25,1,94.702,
01/01/2000,01:42:22.47,13.18,-75.27,-991.74,148.75,-813.75,-367.50,1,94.719,
01/01/2000,01:42:22.48,13.18,-75.27,-991.74,157.50,-665.0,-297.50,1,94.737,
01/01/2000,01:42:22.49,13.30,-75.03,-991.62,166.25,-691.25,-341.25,1,94.754,
01/01/2000,01:42:22.50,13.18,-74.91,-991.37,175.0,-700.0,-411.25,1,94.771,
01/01/2000,01:42:22.51,13.42,-75.03,-991.13,140.0,-682.50,-245.0,1,94.788,
01/01/2000,01:42:22.52,13.42,-75.15,-991.37,218.75,-813.75,-376.25,1,94.498,
01/01/2000,01:42:22.54,13.42,-75.03,-991.49,271.25,-700.0,-402.50,1,94.516,
01/01/2000,01:42:22.55,13.54,-74.91,-991.62,245.0,-735.0,-358.75,1,94.534,
01/01/2000,01:42:22.56,13.66,-75.03,-991.62,157.50,-735.0,-280.0,1,94.551,
01/01/2000,01:42:22.57,13.66,-75.15,-991.62,218.75,-630.0,-323.75,1,94.569,
01/01/2000,01:42:22.58,13.66,-75.40,-991.62,288.75,-735.0,-288.75,1,94.586,
01/01/2000,01:42:22.59,13.66,-75.52,-991.62,131.25,-708.75,-341.25,1,94.603,
01/01/2000,01:42:22.60,13.42,-75.52,-991.62,113.75,-612.50,-376.25,1,94.620,
01/01/2000,01:42:22.61,13.42,-75.52,-991.37,87.50,-595.0,-376.25,1,94.637,
01/01/2000,01:42:22.62,13.42,-75.27,-991.37,253.75,-787.50,-315.0,1,94.654,
01/01/2000,01:42:22.63,13.54,-75.27,-991.37,122.50,-665.0,-393.75,1,94.671,
01/01/2000,01:42:22.64,13.42,-75.52,-991.37,183.75,-551.25,-341.25,1,94.688,
01/01/2000,01:42:22.65,13.54,-75.52,-991.37,148.75,-682.50,-332.50,1,94.704,
01/01/2000,01:42:22.66,13.66,-75.52,-991.37,52.50,-682.50,-376.25,1,94.720,
01/01/2000,01:42:22.67,13.66,-75.40,-991.37,166.25,-682.50,-350.0,1,94.737,
01/01/2000,01:42:22.68,13.54,-75.40,-991.62,201.25,-708.75,-402.50,1,94.462,
01/01/2000,01:42:22.69,13.42,-75.27,-991.49,105.0,-603.75,-350.0,1,94.479,
01/01/2000,01:42:22.70,13.54,-75.40,-991.37,245.0,-691.25,-420.0,1,94.495,
01/01/2000,01:42:22.71,13.66,-75.40,-991.37,175.0,-630.0,-280.0,1,94.512,
01/01/2000,01:42:22.72,13.54,-75.52,-991.25,166.25,-770.0,-402.50,1,94.529,
01/01/2000,01:42:22.73,13.54,-75.40,-991.13,122.50,-735.0,-315.0,1,94.545,
01/01/2000,01:42:22.74,13.42,-75.40,-991.13,87.50,-700.0,-297.50,1,94.562,
01/01/2000,01:42:22.76,13.54,-75.40,-991.25,131.25,-577.50,-350.0,1,94.578,
01/01/2000,01:42:22.77,13.66,-75.27,-991.37,70.0,-630.0,-341.25,1,94.595,
01/01/2000,01:42:22.78,13.66,-75.40,-991.13,140.0,-630.0,-341.25,1,94.611,
01/01/2000,01:42:22.79,13.54,-75.40,-991.01,166.25,-726.25,-376.25,1,94.627,
01/01/2000,01:42:22.80,13.54,-75.52,-991.13,218.75,-770.0,-411.25,1,94.643,
01/01/2000,01:42:22.81,13.42,-75.52,-991.37,43.75,-708.75,-481.25,1,94.659,
01/01/2000,01:42:22.82,13.42,-75.27,-991.62,227.50,-708.75,-455.0,1,94.675,
01/01/2000,01:42:22.83,13.42,-75.15,-991.62,183.75,-577.50,-420.0,1,94.690,
01/01/2000,01:42:22.84,13.42,-75.15,-991.37,192.50,-726.25,-323.75,1,94.706,
01/01/2000,01:42:22.85,13.54,-75.27,-991.13,105.0,-630.0,-315.0,1,94.721,
01/01/2000,01:42:22.86,13.54,-75.40,-991.13,210.0,-708.75,-385.0,1,94.737,
01/01/2000,01:42:22.87,13.30,-75.27,-991.13,140.0,-577.50,-481.25,1,94.752,
01/01/2000,01:42:22.88,13.30,-75.15,-991.13,245.0,-612.50,-288.75,1,94.767,
01/01/2000,01:42:22.89,13.18,-74.91,-991.37,245.0,-630.0,-376.25,1,94.509,
01/01/2000,01:42:22.90,13.30,-75.15,-991.25,131.25,-647.50,-227.50,1,94.524,
01/01/2000,01:42:22.91,13.30,-75.40,-991.25,192.50,-612.50,-376.25,1,94.540,
01/01/2000,01:42:22.92,13.42,-75.52,-991.25,236.25,-665.0,-376.25,1,94.556,
01/01/2000,01:42:22.93,13.42,-75.40,-991.37,148.75,-603.75,-332.50,1,94.571,
01/01/2000,01:42:22.94,13.66,-75.27,-991.37,78.75,-612.50,-376.25,1,94.587,
01/01/2000,01:42:22.95,13.54,-75.15,-991.25,262.50,-700.0,-288.75,1,94.602,
01/01/2000,01:42:22.97,13.30,-75.27,-991.25,166.25,-682.50,-262.50,1,94.618,
01/01/2000,01:42:22.98,13.54,-75.40,-991.13,26.25,-770.0,-262.50,1,94.633,
01/01/2000,01:42:22.99,13.66,-75.27,-991.13,140.0,-682.50,-551.25,1,94.648,
01/01/2000,01:42:23.00,13.54,-75.40,-991.01,105.0,-638.75,-253.75,1,94.663,
01/01/2000,01:42:23.01,13.54,-75.27,-991.13,175.0,-612.50,-507.50,1,94.678,
01/01/2000,01:42:23.02,13.42,-75.27,-991.37,105.0,-708.75,-288.75,1,94.693,
01/01/2000,01:42:23.04,13.42,-75.03,-991.49,70.0,-673.75,-332.50,1,94.444,
01/01/2000,01:42:23.05,13.54,-74.79,-991.37,8.75,-656.25,-297.50,1,94.460,
01/01/2000,01:42:23.06,13.54,-75.03,-991.13,78.75,-805.0,-323.75,1,94.475,
01/01/2000,01:42:23.07,13.66,-75.15,-991.01,131.25,-673.75,-332.50,1,94.490,
01/01/2000,01:42:23.08,13.42,-75.03,-991.13,122.50,-621.25,-385.0,1,94.505,
01/01/2000,01:42:23.09,13.42,-74.79,-991.37,210.0,-656.25,-385.0,1,94.521,
01/01/2000,01:42:23.10,13.42,-74.79,-991.49,140.0,-656.25,-245.0,1,94.536,
01/01/2000,01:42:23.11,13.54,-74.79,-991.37,78.75,-735.0,-315.0,1,94.550,
01/01/2000,01:42:23.12,13.54,-74.91,-991.13,78.75,-822.50,-376.25,1,94.565,
01/01/2000,01:42:23.13,13.79,-75.15,-991.13,175.0,-691.25,-332.50,1,94.580,
01/01/2000,01:42:23.14,13.66,-75.03,-991.13,131.25,-673.75,-332.50,1,94.595,
01/01/2000,01:42:23.15,13.42,-75.15,-991.13,166.25,-735.0,-332.50,1,94.609,
01/01/2000,01:42:23.16,13.42,-75.15,-991.25,175.0,-735.0,-306.25,1,94.624,
01/01/2000,01:42:23.17,13.42,-74.91,-991.37,253.75,-638.75,-367.50,1,94.638,
01/01/2000,01:42:23.18,13.66,-75.03,-991.37,183.75,-665.0,-262.50,1,94.652,
01/01/2000,01:42:23.19,13.54,-75.27,-991.25,175.0,-700.0,-306.25,1,94.667,
01/01/2000,01:42:23.20,13.42,-75.40,-991.13,105.0,-770.0,-297.50,1,94.681,
01/01/2000,01:42:23.21,13.42,-75.15,-991.13,183.75,-717.50,-367.50,1,94.695,
01/01/2000,01:42:23.22,13.42,-75.15,-991.13,227.50,-743.75,-385.0,1,94.709,
01/01/2000,01:42:23.23,13.30,-75.03,-991.25,166.25,-735.0,-376.25,1,94.723,
01/01/2000,01:42:23.24,13.30,-75.15,-991.25,201.25,-717.50,-323.75,1,94.737,
01/01/2000,01:42:23.25,13.30,-75.27,-991.25,183.75,-708.75,-280.0,1,94.503,
01/01/2000,01:42:23.27,13.42,-75.40,-991.01,131.25,-743.75,-332.50,1,94.517,
01/01/2000,01:42:23.28,13.42,-75.40,-991.13,201.25,-612.50,-385.0,1,94.531,
01/01/2000,01:42:23.29,13.42,-75.27,-991.13,140.0,-647.50,-315.0,1,94.545,
01/01/2000,01:42:23.30,13.42,-75.15,-991.25,192.50,-717.50,-385.0,1,94.560,
01/01/2000,01:42:23.31,13.54,-75.15,-991.13,175.0,-647.50,-393.75,1,94.574,
01/01/2000,01:42:23.32,13.54,-75.27,-991.01,96.25,-630.0,-288.75,1,94.588,
01/01/2000,01:42:23.33,13.54,-75.40,-990.88,245.0,-673.75,-402.50,1,94.602,
01/01/2000,01:42:23.34,13.54,-75.40,-990.88,148.75,-612.50,-323.75,1,94.615,
01/01/2000,01:42:23.35,13.54,-75.52,-991.13,43.75,-673.75,-350.0,1,94.629,
01/01/2000,01:42:23.36,13.54,-75.40,-991.25,113.75,-700.0,-350.0,1,94.643,
01/01/2000,01:42:23.37,13.42,-75.03,-991.37,113.75,-778.75,-323.75,1,94.656,
01/01/2000,01:42:23.38,13.54,-75.15,-991.25,96.25,-682.50,-183.75,1,94.670,
01/01/2000,01:42:23.39,13.54,-75.15,-991.13,105.0,-638.75,-385.0,1,94.444,
01/01/2000,01:42:23.40,13.66,-75.40,-990.88,140.0,-752.50,-350.0,1,94.458,
01/01/2000,01:42:23.41,13.54,-75.40,-991.01,157.50,-595.0,-455.0,1,94.472,
01/01/2000,01:42:23.42,13.42,-75.40,-991.01,236.25,-665.0,-350.0,1,94.486,
01/01/2000,01:42:23.43,13.42,-75.15,-991.25,148.75,-656.25,-332.50,1,94.500,
01/01/2000,01:42:23.44,13.54,-75.15,-991.25,201.25,-708.75,-218.75,1,94.514,
01/01/2000,01:42:23.45,13.54,-75.27,-991.25,113.75,-577.50,-288.75,1,94.527,
01/01/2000,01:42:23.47,13.42,-75.52,-991.01,218.75,-700.0,-315.0,1,94.541,
01/01/2000,01:42:23.48,13.42,-75.64,-991.13,157.50,-673.75,-315.0,1,94.554,
01/01/2000,01:42:23.49,13.42,-75.40,-991.37,236.25,-691.25,-332.50,1,94.568,
01/01/2000,01:42:23.50,13.42,-75.15,-991.37,122.50,-752.50,-253.75,1,94.581,
01/01/2000,01:42:23.51,13.54,-75.15,-991.25,140.0,-647.50,-288.75,1,94.595,
01/01/2000,01:42:23.52,13.54,-75.27,-991.01,210.0,-848.75,-332.50,1,94.608,
01/01/2000,01:42:23.53,13.66,-75.27,-991.01,148.75,-778.75,-385.0,1,94.621,
01/01/2000,01:42:23.55,13.54,-75.15,-991.01,96.25,-708.75,-393.75,1,94.404,
01/01/2000,01:42:23.56,13.42,-75.15,-991.25,61.25,-656.25,-262.50,1,94.417,
01/01/2000,01:42:23.57,13.42,-75.15,-991.01,201.25,-813.75,-341.25,1,94.431,
01/01/2000,01:42:23.58,13.42,-75.03,-991.01,236.25,-621.25,-323.75,1,94.444,
01/01/2000,01:42:23.59,13.66,-75.03,-991.37,175.0,-726.25,-332.50,1,94.458,
01/01/2000,01:42:23.60,13.66,-75.27,-991.37,166.25,-621.25,-332.50,1,94.471,
01/01/2000,01:42:23.61,13.54,-75.40,-991.13,175.0,-726.25,-376.25,1,94.484,
01/01/2000,01:42:23.62,13.66,-75.27,-990.88,236.25,-752.50,-350.0,1,94.498,
01/01/2000,01:42:23.63,13.66,-75.03,-990.88,157.50,-708.75,-297.50,1,94.511,
01/01/2000,01:42:23.64,13.66,-74.91,-991.13,35.0,-612.50,-402.50,1,94.524,
01/01/2000,01:42:23.65,13.66,-75.03,-991.13,280.0,-717.50,-393.75,1,94.537,
01/01/2000,01:42:23.66,13.66,-75.03,-991.01,113.75,-691.25,-323.75,1,94.550,
01/01/2000,01:42:23.67,13.66,-75.15,-991.13,70.0,-673.75,-367.50,1,94.563,
01/01/2000,01:42:23.68,13.66,-74.91,-991.25,253.75,-796.25,-463.75,1,94.575,
01/01/2000,01:42:23.69,13.54,-75.03,-991.37,96.25,-761.25,-297.50,1,94.588,
01/01/2000,01:42:23.70,13.66,-74.91,-991.01,70.0,-682.50,-236.25,1,94.601,
01/01/2000,01:42:23.71,13.42,-74.91,-991.01,148.75,-647.50,-358.75,1,94.614,
01/01/2000,01:42:23.72,13.42,-75.15,-991.01,131.25,-708.75,-367.50,1,94.626,
01/01/2000,01:42:23.73,13.66,-75.27,-991.25,201.25,-603.75,-341.25,1,94.639,
01/01/2000,01:42:23.74,13.66,-75.15,-991.25,183.75,-700.0,-280.0,1,94.651,
01/01/2000,01:42:23.75,13.66,-75.15,-991.37,8.75,-691.25,-411.25,1,94.664,
01/01/2000,01:42:23.76,13.54,-75.03,-991.13,131.25,-717.50,-350.0,1,94.676,
01/01/2000,01:42:23.77,13.42,-75.15,-991.01,113.75,-726.25,-245.0,1,94.688,
01/01/2000,01:42:23.78,13.42,-75.15,-991.01,271.25,-761.25,-420.0,1,94.483,
01/01/2000,01:42:23.79,13.42,-75.15,-991.13,140.0,-770.0,-280.0,1,94.713,
01/01/2000,01:42:23.80,13.42,-75.03,-991.13,17.50,-717.50,-385.0,1,94.508,
01/01/2000,01:42:23.82,13.42,-75.27,-990.88,210.0,-560.0,-367.50,1,94.521,
01/01/2000,01:42:23.83,13.30,-75.15,-990.88,157.50,-656.25,-341.25,1,94.533,
01/01/2000,01:42:23.84,13.42,-75.15,-991.01,183.75,-796.25,-367.50,1,94.545,
01/01/2000,01:42:23.85,13.79,-75.15,-991.37,166.25,-752.50,-218.75,1,94.558,
01/01/2000,01:42:23.86,13.79,-75.27,-991.25,183.75,-743.75,-446.25,1,94.570,
01/01/2000,01:42:23.87,13.66,-75.40,-991.01,192.50,-682.50,-315.0,1,94.582,
01/01/2000,01:42:23.88,13.42,-75.15,-990.88,148.75,-603.75,-376.25,1,94.595,
01/01/2000,01:42:23.89,13.66,-75.15,-991.13,175.0,-735.0,-332.50,1,94.607,
01/01/2000,01:42:23.90,13.79,-75.15,-991.25,157.50,-691.25,-175.0,1,94.619,
01/01/2000,01:42:23.91,13.91,-75.52,-991.13,271.25,-752.50,-385.0,1,94.631,
01/01/2000,01:42:23.92,13.79,-75.64,-990.88,78.75,-726.25,-341.25,1,94.643,
01/01/2000,01:42:23.93,13.91,-75.52,-990.76,166.25,-630.0,-455.0,1,94.655,
01/01/2000,01:42:23.94,13.91,-75.40,-990.88,148.75,-735.0,-420.0,1,94.667,
01/01/2000,01:42:23.95,14.15,-75.15,-991.13,113.75,-630.0,-192.50,1,94.469,
01/01/2000,01:42:23.96,14.03,-75.15,-991.13,122.50,-726.25,-385.0,1,94.481,
01/01/2000,01:42:23.97,13.91,-75.40,-990.88,122.50,-752.50,-306.25,1,94.493,
01/01/2000,01:42:23.98,13.91,-75.40,-990.88,245.0,-857.50,-420.0,1,94.505,
01/01/2000,01:42:23.99,13.91,-75.40,-991.01,236.25,-665.0,-393.75,1,94.518,
01/01/2000,01:42:24.00,14.03,-75.27,-991.25,105.0,-682.50,-376.25,1,94.530,
01/01/2000,01:42:24.01,13.91,-75.27,-991.13,210.0,-665.0,-358.75,1,94.541,
01/01/2000,01:42:24.03,13.66,-75.27,-991.13,148.75,-577.50,-411.25,1,94.553,
01/01/2000,01:42:24.04,13.79,-75.40,-990.88,201.25,-647.50,-428.75,1,94.565,
01/01/2000,01:42:24.05,14.15,-75.27,-991.13,131.25,-726.25,-315.0,1,94.372,
01/01/2000,01:42:24.07,14.03,-75.40,-991.13,183.75,-717.50,-332.50,1,94.384,
01/01/2000,01:42:24.08,13.91,-75.27,-991.01,297.50,-595.0,-288.75,1,94.397,
01/01/2000,01:42:24.09,13.66,-75.27,-990.64,280.0,-682.50,-367.50,1,94.409,
01/01/2000,01:42:24.10,13.79,-75.03,-990.88,122.50,-708.75,-262.50,1,94.421,
01/01/2000,01:42:24.11,13.91,-75.15,-991.01,-8.75,-682.50,-288.75,1,94.433,
01/01/2000,01:42:24.12,13.79,-75.40,-991.13,218.75,-691.25,-350.0,1,94.444,
01/01/2000,01:42:24.13,13.79,-75.64,-991.01,210.0,-638.75,-341.25,1,94.456,
01/01/2000,01:42:24.14,13.79,-75.64,-990.88,227.50,-603.75,-367.50,1,94.468,
01/01/2000,01:42:24.15,13.79,-75.40,-991.01,175.0,-656.25,-367.50,1,94.480,
01/01/2000,01:42:24.16,13.91,-75.15,-991.01,140.0,-708.75,-323.75,1,94.492,
01/01/2000,01:42:24.17,13.79,-75.15,-990.76,122.50,-743.75,-236.25,1,94.503,
01/01/2000,01:42:24.18,13.66,-75.40,-990.76,105.0,-700.0,-306.25,1,94.515,
01/01/2000,01:42:24.19,13.66,-75.64,-990.88,175.0,-665.0,-507.50,1,94.526,
01/01/2000,01:42:24.20,13.66,-75.40,-991.13,175.0,-700.0,-332.50,1,94.538,
01/01/2000,01:42:24.21,13.54,-75.15,-991.13,8.75,-761.25,-315.0,1,94.549,
01/01/2000,01:42:24.22,13.42,-75.15,-990.88,201.25,-691.25,-227.50,1,94.561,
01/01/2000,01:42:24.23,13.30,-75.27,-991.01,262.50,-752.50,-367.50,1,94.572,
01/01/2000,01:42:24.24,13.42,-75.52,-991.13,113.75,-673.75,-297.50,1,94.387,
01/01/2000,01:42:24.25,13.54,-75.52,-991.13,157.50,-638.75,-358.75,1,94.398,
01/01/2000,01:42:24.26,13.42,-75.27,-990.88,218.75,-743.75,-297.50,1,94.410,
01/01/2000,01:42:24.27,13.42,-75.15,-990.88,70.0,-743.75,-323.75,1,94.421,
01/01/2000,01:42:24.28,13.42,-74.91,-990.88,175.0,-647.50,-227.50,1,94.433,
01/01/2000,01:42:24.29,13.42,-75.03,-990.88,192.50,-708.75,-253.75,1,94.444,
01/01/2000,01:42:24.31,13.54,-75.03,-991.13,131.25,-665.0,-271.25,1,94.456,
01/01/2000,01:42:24.32,13.42,-75.27,-991.13,210.0,-621.25,-428.75,1,94.467,
01/01/2000,01:42:24.33,13.42,-75.27,-990.88,157.50,-682.50,-306.25,1,94.479,
01/01/2000,01:42:24.34,13.66,-75.40,-990.88,288.75,-796.25,-358.75,1,94.490,
01/01/2000,01:42:24.35,12.69,-75.27,-991.25,-175.0,-577.50,-52.50,1,94.501,
01/01/2000,01:42:24.36,13.66,-75.40,-991.13,-52.50,-638.75,-1093.75,1,94.512,
01/01/2000,01:42:24.37,14.15,-75.40,-990.88,656.25,-778.75,0.0,1,94.523,
01/01/2000,01:42:24.38,13.18,-75.64,-990.76,26.25,-805.0,105.0,1,94.534,
01/01/2000,01:42:24.39,12.81,-75.64,-991.13,105.0,-586.25,-498.75,1,94.545,
01/01/2000,01:42:24.40,13.66,-75.40,-991.37,253.75,-708.75,-1286.25,1,94.556,
01/01/2000,01:42:24.41,14.15,-74.91,-991.37,271.25,-612.50,8.75,1,94.567,
01/01/2000,01:42:24.42,13.66,-74.91,-991.13,350.0,-708.75,402.50,1,94.578,
01/01/2000,01:42:24.43,13.66,-75.03,-990.64,-52.50,-770.0,-656.25,1,94.589,
01/01/2000,01:42:24.44,13.54,-75.40,-990.64,376.25,-673.75,-621.25,1,94.600,
01/01/2000,01:42:24.46,13.91,-75.40,-991.37,131.25,-700.0,-148.75,1,94.422,
01/01/2000,01:42:24.46,13.91,-75.27,-991.49,166.25,-665.0,-437.50,1,94.433,
01/01/2000,01:42:24.48,13.91,-75.15,-991.13,218.75,-761.25,-183.75,1,94.444,
01/01/2000,01:42:24.49,13.54,-75.03,-990.52,78.75,-726.25,-315.0,1,94.455,
01/01/2000,01:42:24.50,13.42,-75.27,-990.64,245.0,-656.25,-393.75,1,94.466,
01/01/2000,01:42:24.51,13.66,-75.27,-991.13,105.0,-743.75,-341.25,1,94.477,
01/01/2000,01:42:24.52,13.91,-75.40,-991.37,122.50,-691.25,-367.50,1,94.488,
01/01/2000,01:42:24.53,13.54,-75.40,-991.13,131.25,-761.25,-323.75,1,94.499,
01/01/2000,01:42:24.54,13.42,-75.40,-990.76,113.75,-735.0,-428.75,1,94.510,
01/01/2000,01:42:24.55,13.54,-75.15,-991.01,245.0,-665.0,-262.50,1,94.521,
01/01/2000,01:42:24.56,13.66,-75.40,-991.37,52.50,-647.50,-280.0,1,94.347,
01/01/2000,01:42:24.57,13.79,-75.27,-991.25,148.75,-691.25,-332.50,1,94.358,
01/01/2000,01:42:24.58,13.66,-75.40,-990.64,262.50,-708.75,-376.25,1,94.369,
01/01/2000,01:42:24.60,13.42,-75.15,-990.64,245.0,-743.75,-323.75,1,94.380,
01/01/2000,01:42:24.61,13.66,-75.03,-990.88,323.75,-700.0,-297.50,1,94.391,
01/01/2000,01:42:24.62,13.79,-75.15,-991.13,218.75,-717.50,-498.75,1,94.402,
01/01/2000,01:42:24.63,13.66,-75.40,-991.37,131.25,-691.25,-297.50,1,94.412,
01/01/2000,01:42:24.64,13.30,-75.52,-991.13,105.0,-656.25,-402.50,1,94.423,
01/01/2000,01:42:24.65,13.30,-75.52,-990.88,288.75,-752.50,-542.50,1,94.434,
01/01/2000,01:42:24.66,13.54,-75.15,-990.88,192.50,-700.0,-350.0,1,94.444,
01/01/2000,01:42:24.67,13.66,-75.40,-990.88,227.50,-831.25,-358.75,1,94.455,
01/01/2000,01:42:24.68,13.42,-75.40,-990.88,183.75,-717.50,-280.0,1,94.466,
01/01/2000,01:42:24.69,13.30,-75.64,-990.76,166.25,-656.25,-411.25,1,94.476,
01/01/2000,01:42:24.70,13.42,-75.64,-990.52,96.25,-708.75,-385.0,1,94.487,
01/01/2000,01:42:24.71,13.42,-75.27,-990.64,113.75,-717.50,-218.75,1,94.497,
01/01/2000,01:42:24.72,13.54,-75.15,-990.76,78.75,-735.0,-411.25,1,94.508,
01/01/2000,01:42:24.73,13.42,-75.15,-990.88,218.75,-735.0,-280.0,1,94.518,
01/01/2000,01:42:24.74,13.54,-75.27,-991.01,140.0,-822.50,-341.25,1,94.528,
01/01/2000,01:42:24.75,13.42,-75.40,-991.13,70.0,-638.75,-341.25,1,94.539,
01/01/2000,01:42:24.76,13.66,-75.40,-991.01,131.25,-743.75,-315.0,1,94.549,
01/01/2000,01:42:24.77,13.66,-75.27,-990.88,35.0,-682.50,-350.0,1,94.559,
01/01/2000,01:42:24.78,13.66,-75.40,-990.64,201.25,-813.75,-262.50,1,94.569,
01/01/2000,01:42:24.79,13.42,-75.64,-990.64,131.25,-647.50,-315.0,1,94.579,
01/01/2000,01:42:24.80,13.42,-75.40,-991.13,105.0,-708.75,-358.75,1,94.413,
01/01/2000,01:42:24.81,13.66,-75.03,-991.37,227.50,-752.50,-385.0,1,94.424,
01/01/2000,01:42:24.82,13.79,-75.03,-991.37,166.25,-691.25,-288.75,1,94.434,
01/01/2000,01:42:24.83,13.66,-75.15,-991.25,245.0,-743.75,-280.0,1,94.444,
01/01/2000,01:42:24.84,13.66,-75.40,-990.88,157.50,-708.75,-297.50,1,94.455,
01/01/2000,01:42:24.85,13.66,-75.40,-990.88,166.25,-551.25,-393.75,1,94.465,
01/01/2000,01:42:24.87,13.66,-75.15,-991.01,78.75,-638.75,-315.0,1,94.475,
01/01/2000,01:42:24.88,13.66,-75.03,-990.88,140.0,-717.50,-385.0,1,94.485,
01/01/2000,01:42:24.89,13.42,-74.91,-990.88,140.0,-595.0,-332.50,1,94.495,
01/01/2000,01:42:24.90,13.42,-75.15,-990.88,87.50,-638.75,-315.0,1,94.505,
01/01/2000,01:42:24.91,13.66,-75.40,-991.13,253.75,-735.0,-341.25,1,94.516,
01/01/2000,01:42:24.92,13.79,-75.40,-991.13,183.75,-708.75,-481.25,1,94.526,
01/01/2000,01:42:24.93,13.66,-75.40,-991.13,8.75,-665.0,-323.75,1,94.536,
01/01/2000,01:42:24.94,13.66,-75.15,-990.88,262.50,-647.50,-332.50,1,94.545,
01/01/2000,01:42:24.95,13.54,-74.91,-990.88,201.25,-630.0,-306.25,1,94.555,
01/01/2000,01:42:24.96,13.42,-75.27,-991.13,148.75,-612.50,-271.25,1,94.565,
01/01/2000,01:42:24.97,13.66,-75.40,-991.25,96.25,-647.50,-280.0,1,94.575,
01/01/2000,01:42:24.98,13.66,-75.40,-991.25,35.0,-691.25,-297.50,1,94.585,
01/01/2000,01:42:24.99,13.66,-75.15,-991.13,201.25,-682.50,-385.0,1,94.595,
01/01/2000,01:42:25.00,13.66,-75.15,-991.01,201.25,-691.25,-376.25,1,94.604,
01/01/2000,01:42:25.02,13.54,-75.27,-991.13,227.50,-665.0,-393.75,1,94.444,
01/01/2000,01:42:25.03,13.42,-75.40,-991.13,122.50,-682.50,-315.0,1,94.454,
01/01/2000,01:42:25.04,13.30,-75.40,-991.13,175.0,-577.50,-420.0,1,94.464,
01/01/2000,01:42:25.05,13.42,-75.40,-990.88,183.75,-770.0,-385.0,1,94.474,
01/01/2000,01:42:25.06,13.66,-75.27,-991.01,140.0,-647.50,-358.75,1,94.484,
01/01/2000,01:42:25.07,13.66,-75.40,-991.13,236.25,-638.75,-455.0,1,94.494,
01/01/2000,01:42:25.08,13.30,-75.15,-990.88,113.75,-630.0,-315.0,1,94.336,
01/01/2000,01:42:25.09,13.42,-75.15,-990.76,166.25,-656.25,-350.0,1,94.346,
01/01/2000,01:42:25.10,13.66,-75.15,-990.64,148.75,-691.25,-245.0,1,94.356,
01/01/2000,01:42:25.11,13.66,-75.27,-990.52,227.50,-603.75,-332.50,1,94.366,
01/01/2000,01:42:25.12,13.54,-75.40,-990.40,131.25,-708.75,-376.25,1,94.376,
01/01/2000,01:42:25.13,13.42,-75.40,-990.64,52.50,-717.50,-402.50,1,94.386,
01/01/2000,01:42:25.14,13.54,-75.27,-991.01,201.25,-630.0,-253.75,1,94.396,
01/01/2000,01:42:25.15,13.54,-75.27,-991.13,113.75,-743.75,-288.75,1,94.406,
01/01/2000,01:42:25.16,13.66,-75.27,-991.13,271.25,-708.75,-367.50,1,94.415,
01/01/2000,01:42:25.17,13.66,-75.15,-990.88,210.0,-638.75,-385.0,1,94.425,
01/01/2000,01:42:25.18,13.79,-75.15,-990.76,122.50,-831.25,-393.75,1,94.435,
01/01/2000,01:42:25.19,13.66,-75.40,-991.01,183.75,-708.75,-323.75,1,94.444,
01/01/2000,01:42:25.20,13.66,-75.40,-991.13,52.50,-708.75,-280.0,1,94.454,
01/01/2000,01:42:25.21,13.66,-75.27,-991.13,192.50,-691.25,-367.50,1,94.464,
01/01/2000,01:42:25.23,13.79,-75.03,-991.13,131.25,-778.75,-350.0,1,94.473,
01/01/2000,01:42:25.24,13.66,-75.15,-991.13,166.25,-717.50,-315.0,1,94.483,
01/01/2000,01:42:25.25,13.54,-75.15,-991.13,210.0,-673.75,-306.25,1,94.492,
01/01/2000,01:42:25.26,13.66,-75.27,-991.13,297.50,-577.50,-350.0,1,94.502,
01/01/2000,01:42:25.27,13.79,-75.27,-991.37,148.75,-761.25,-358.75,1,94.511,
01/01/2000,01:42:25.28,13.66,-75.15,-991.25,288.75,-691.25,-306.25,1,94.521,
01/01/2000,01:42:25.29,13.42,-75.15,-991.01,113.75,-761.25,-341.25,1,94.369,
01/01/2000,01:42:25.30,13.42,-75.15,-991.13,218.75,-691.25,-376.25,1,94.378,
01/01/2000,01:42:25.31,13.66,-75.40,-991.37,183.75,-638.75,-332.50,1,94.388,
01/01/2000,01:42:25.32,13.54,-75.40,-991.37,148.75,-735.0,-411.25,1,94.397,
01/01/2000,01:42:25.33,13.54,-75.40,-991.25,140.0,-621.25,-315.0,1,94.407,
01/01/2000,01:42:25.34,13.54,-75.15,-990.88,52.50,-831.25,-227.50,1,94.416,
01/01/2000,01:42:25.35,13.42,-75.15,-991.13,70.0,-612.50,-271.25,1,94.426,
01/01/2000,01:42:25.37,13.42,-75.15,-991.37,96.25,-665.0,-280.0,1,94.435,
01/01/2000,01:42:25.38,13.66,-75.15,-991.62,210.0,-691.25,-402.50,1,94.444,
01/01/2000,01:42:25.39,13.91,-75.27,-991.49,131.25,-673.75,-315.0,1,94.454,
01/01/2000,01:42:25.40,13.79,-75.27,-991.13,122.50,-638.75,-376.25,1,94.463,
01/01/2000,01:42:25.41,13.66,-75.27,-991.01,245.0,-612.50,-376.25,1,94.472,
01/01/2000,01:42:25.42,13.66,-75.15,-991.13,157.50,-708.75,-350.0,1,94.482,
01/01/2000,01:42:25.43,13.66,-75.15,-991.25,140.0,-638.75,-323.75,1,94.491,
01/01/2000,01:42:25.44,13.54,-75.15,-991.25,175.0,-665.0,-297.50,1,94.500,
01/01/2000,01:42:25.45,13.42,-75.27,-991.01,227.50,-700.0,-297.50,1,94.509,
01/01/2000,01:42:25.46,13.42,-75.27,-990.88,105.0,-787.50,-411.25,1,94.518,
01/01/2000,01:42:25.47,13.54,-75.27,-991.13,113.75,-682.50,-245.0,1,94.527,
01/01/2000,01:42:25.48,13.42,-75.40,-991.13,52.50,-665.0,-332.50,1,94.536,
01/01/2000,01:42:25.49,13.30,-75.15,-991.25,105.0,-647.50,-297.50,1,94.545,
01/01/2000,01:42:25.50,13.42,-75.15,-991.13,105.0,-682.50,-323.75,1,94.399,
01/01/2000,01:42:25.51,13.42,-75.15,-990.88,122.50,-673.75,-323.75,1,94.408,
01/01/2000,01:42:25.52,13.42,-75.27,-991.13,148.75,-787.50,-350.0,1,94.417,
01/01/2000,01:42:25.53,13.42,-75.27,-991.37,105.0,-700.0,-385.0,1,94.426,
01/01/2000,01:42:25.54,13.42,-75.27,-991.25,166.25,-708.75,-332.50,1,94.435,
01/01/2000,01:42:25.55,13.30,-75.15,-991.37,157.50,-577.50,-315.0,1,94.444,
01/01/2000,01:42:25.56,13.30,-75.03,-991.13,131.25,-586.25,-306.25,1,94.454,
01/01/2000,01:42:25.58,13.42,-75.27,-991.25,201.25,-647.50,-428.75,1,94.309,
01/01/2000,01:42:25.59,13.42,-75.40,-991.25,52.50,-752.50,-437.50,1,94.318,
01/01/2000,01:42:25.60,13.30,-75.52,-991.37,140.0,-673.75,-490.0,1,94.327,
01/01/2000,01:42:25.61,13.42,-75.15,-991.25,113.75,-708.75,-420.0,1,94.337,
01/01/2000,01:42:25.62,13.54,-75.15,-991.25,131.25,-647.50,-306.25,1,94.346,
01/01/2000,01:42:25.63,13.42,-75.15,-991.37,131.25,-673.75,-332.50,1,94.355,
01/01/2000,01:42:25.64,13.42,-75.40,-991.37,8.75,-875.0,-148.75,1,94.364,
01/01/2000,01:42:25.66,13.42,-75.52,-991.13,113.75,-708.75,-411.25,1,94.373,
01/01/2000,01:42:25.67,13.42,-75.40,-991.13,192.50,-752.50,-472.50,1,94.382,
01/01/2000,01:42:25.68,13.54,-75.15,-991.13,61.25,-665.0,-306.25,1,94.391,
01/01/2000,01:42:25.69,13.54,-75.15,-991.13,157.50,-726.25,-271.25,1,94.400,
01/01/2000,01:42:25.70,13.54,-75.15,-991.25,175.0,-778.75,-218.75,1,94.409,
01/01/2000,01:42:25.71,13.42,-75.27,-991.13,61.25,-700.0,-428.75,1,94.418,
01/01/2000,01:42:25.72,13.42,-75.52,-991.13,210.0,-656.25,-297.50,1,94.427,
01/01/2000,01:42:25.73,13.54,-75.40,-991.13,175.0,-691.25,-358.75,1,94.436,
01/01/2000,01:42:25.74,13.66,-75.15,-991.37,201.25,-717.50,-367.50,1,94.444,
01/01/2000,01:42:25.75,13.66,-75.03,-991.37,148.75,-691.25,-262.50,1,94.453,
01/01/2000,01:42:25.76,13.54,-75.15,-991.25,245.0,-638.75,-463.75,1,94.462,
01/01/2000,01:42:25.77,13.42,-75.15,-991.13,166.25,-805.0,-350.0,1,94.471,
01/01/2000,01:42:25.78,13.66,-75.03,-991.01,227.50,-691.25,-210.0,1,94.479,
01/01/2000,01:42:25.79,13.66,-75.15,-990.88,175.0,-735.0,-332.50,1,94.488,
01/01/2000,01:42:25.80,13.42,-75.15,-991.13,0.0,-726.25,-376.25,1,94.497,
01/01/2000,01:42:25.81,13.30,-75.15,-991.13,43.75,-717.50,-367.50,1,94.505,
01/01/2000,01:42:25.82,13.54,-75.15,-991.37,201.25,-682.50,-332.50,1,94.514,
01/01/2000,01:42:25.83,13.42,-75.15,-991.13,87.50,-735.0,-341.25,1,94.523,
01/01/2000,01:42:25.84,13.30,-75.15,-991.01,96.25,-595.0,-297.50,1,94.531,
01/01/2000,01:42:25.85,13.30,-75.15,-990.76,157.50,-770.0,-350.0,1,94.540,
01/01/2000,01:42:25.86,13.30,-75.15,-990.88,183.75,-621.25,-288.75,1,94.401,
01/01/2000,01:42:25.87,13.30,-75.15,-991.13,87.50,-796.25,-323.75,1,94.410,
01/01/2000,01:42:25.88,13.30,-75.15,-991.13,166.25,-673.75,-428.75,1,94.419,
01/01/2000,01:42:25.89,13.05,-75.03,-991.13,262.50,-691.25,-358.75,1,94.427,
01/01/2000,01:42:25.90,13.30,-75.03,-991.25,105.0,-735.0,-315.0,1,94.436,
01/01/2000,01:42:25.91,13.42,-75.03,-991.37,96.25,-813.75,-323.75,1,94.444,
01/01/2000,01:42:25.93,13.66,-75.27,-991.49,210.0,-770.0,-297.50,1,94.453,
01/01/2000,01:42:25.94,13.66,-75.27,-991.49,140.0,-752.50,-323.75,1,94.462,
01/01/2000,01:42:25.95,13.42,-75.40,-991.37,148.75,-735.0,-411.25,1,94.470,
01/01/2000,01:42:25.96,13.42,-75.15,-991.25,87.50,-612.50,-411.25,1,94.479,
01/01/2000,01:42:25.97,13.42,-75.15,-991.13,201.25,-691.25,-323.75,1,94.487,
01/01/2000,01:42:25.98,13.30,-75.15,-991.37,96.25,-691.25,-271.25,1,94.495,
01/01/2000,01:42:25.99,13.30,-75.40,-991.49,358.75,-656.25,-393.75,1,94.504,
01/01/2000,01:42:26.00,13.54,-75.64,-991.62,218.75,-770.0,-367.50,1,94.512,
01/01/2000,01:42:26.01,13.54,-75.64,-991.25,105.0,-673.75,-385.0,1,94.521,
01/01/2000,01:42:26.02,13.42,-75.27,-991.13,245.0,-735.0,-306.25,1,94.529,
01/01/2000,01:42:26.03,13.42,-75.15,-991.13,253.75,-761.25,-350.0,1,94.537,
01/01/2000,01:42:26.04,13.66,-74.91,-991.37,70.0,-621.25,-288.75,1,94.545,
01/01/2000,01:42:26.05,13.66,-75.15,-991.49,201.25,-647.50,-192.50,1,94.554,
01/01/2000,01:42:26.06,13.66,-75.40,-991.49,61.25,-691.25,-385.0,1,94.562,
01/01/2000,01:42:26.07,13.66,-75.64,-991.13,113.75,-708.75,-350.0,1,94.428,
01/01/2000,01:42:26.08,15.49,-75.03,-988.44,-3491.25,1023.75,-455.0,1,94.436,
01/01/2000,01:42:26.10,0.49,-72.96,-942.33,2231.25,-1373.75,3228.75,1,94.444,
01/01/2000,01:42:26.11,4.39,-72.35,-960.87,1198.75,-1995.0,-3780.0,1,94.453,
01/01/2000,01:42:26.12,15.49,-79.91,-999.55,2135.0,-1356.25,-4908.75,1,94.461,
01/01/2000,01:42:26.13,25.13,-79.79,-1034.44,-2248.75,253.75,2073.75,1,94.469,
01/01/2000,01:42:26.14,24.64,-76.25,-1040.90,-796.25,253.75,3333.75,1,94.337,
01/01/2000,01:42:26.15,20.74,-71.13,-1019.19,-1102.50,-323.75,-472.50,1,94.345,
01/01/2000,01:42:26.16,14.64,-70.64,-991.98,367.50,-936.25,-446.25,1,94.354,
01/01/2000,01:42:26.17,9.52,-74.18,-968.44,848.75,-1120.0,1496.25,1,94.362,
01/01/2000,01:42:26.18,10.86,-79.30,-973.44,1583.75,-1286.25,35.0,1,94.370,
01/01/2000,01:42:26.19,14.40,-81.01,-989.30,288.75,-840.0,-2668.75,1,94.379,
01/01/2000,01:42:26.20,16.96,-79.79,-1003.33,-201.25,-420.0,-1067.50,1,94.387,
01/01/2000,01:42:26.21,15.74,-72.10,-1004.67,-393.75,-332.50,927.50,1,94.395,
01/01/2000,01:42:26.22,13.30,-68.81,-996.25,-210.0,-481.25,796.25,1,94.404,
01/01/2000,01:42:26.23,11.83,-69.66,-986.98,481.25,-612.50,420.0,1,94.412,
01/01/2000,01:42:26.24,11.59,-76.13,-981.49,735.0,-883.75,-26.25,1,94.420,
01/01/2000,01:42:26.25,14.27,-80.28,-985.52,595.0,-901.25,-1050.0,1,94.428,
01/01/2000,01:42:26.26,15.86,-81.01,-991.86,183.75,-761.25,-1811.25,1,94.436,
01/01/2000,01:42:26.28,15.01,-75.76,-995.40,-192.50,-603.75,-665.0,1,94.444,
01/01/2000,01:42:26.29,12.93,-71.49,-992.71,-131.25,-586.25,533.75,1,94.453,
01/01/2000,01:42:26.30,11.47,-69.54,-988.32,148.75,-595.0,910.0,1,94.461,
01/01/2000,01:42:26.31,11.71,-72.96,-987.83,350.0,-682.50,1032.50,1,94.469,
01/01/2000,01:42:26.32,13.18,-77.10,-989.54,218.75,-691.25,-166.25,1,94.477,
01/01/2000,01:42:26.33,14.76,-79.54,-991.49,52.50,-770.0,-1452.50,1,94.485,
01/01/2000,01:42:26.34,15.25,-79.30,-991.98,-8.75,-787.50,-1356.25,1,94.493,
01/01/2000,01:42:26.35,13.66,-74.66,-990.15,52.50,-603.75,70.0,1,94.364,
01/01/2000,01:42:26.36,12.32,-71.49,-989.54,271.25,-691.25,455.0,1,94.372,
01/01/2000,01:42:26.37,12.20,-72.22,-990.64,166.25,-682.50,656.25,1,94.380,
01/01/2000,01:42:26.38,12.69,-74.91,-991.98,-26.25,-612.50,-113.75,1,94.388,
01/01/2000,01:42:26.39,13.42,-77.71,-992.10,35.0,-665.0,-980.0,1,94.397,
01/01/2000,01:42:26.40,14.03,-78.32,-990.64,0.0,-682.50,-840.0,1,94.405,
01/01/2000,01:42:26.41,13.91,-76.49,-989.54,288.75,-673.75,-428.75,1,94.413,
01/01/2000,01:42:26.43,13.18,-73.93,-990.15,210.0,-586.25,-8.75,1,94.421,
01/01/2000,01:42:26.44,12.81,-73.69,-991.62,105.0,-726.25,245.0,1,94.429,
01/01/2000,01:42:26.45,12.69,-74.30,-992.59,-26.25,-498.75,0.0,1,94.437,
01/01/2000,01:42:26.46,12.93,-75.40,-992.35,52.50,-630.0,-735.0,1,94.444,
01/01/2000,01:42:26.47,13.42,-76.62,-990.40,105.0,-691.25,-586.25,1,94.452,
01/01/2000,01:42:26.48,13.66,-76.37,-989.54,288.75,-735.0,-271.25,1,94.460,
01/01/2000,01:42:26.49,13.42,-75.27,-990.27,61.25,-813.75,-245.0,1,94.468,
01/01/2000,01:42:26.50,12.93,-74.66,-991.74,315.0,-726.25,-271.25,1,94.476,
01/01/2000,01:42:26.51,12.69,-74.42,-992.59,131.25,-647.50,-166.25,1,94.484,
01/01/2000,01:42:26.52,12.44,-74.54,-991.86,113.75,-603.75,-280.0,1,94.492,
01/01/2000,01:42:26.53,13.18,-75.03,-990.64,210.0,-717.50,-175.0,1,94.499,
01/01/2000,01:42:26.54,13.54,-75.40,-990.03,323.75,-848.75,-148.75,1,94.507,
01/01/2000,01:42:26.55,13.91,-76.01,-990.15,201.25,-682.50,-367.50,1,94.515,
01/01/2000,01:42:26.56,13.66,-75.88,-991.37,192.50,-656.25,-525.0,1,94.390,
01/01/2000,01:42:26.57,13.05,-75.15,-991.74,236.25,-612.50,-420.0,1,94.398,
01/01/2000,01:42:26.58,12.81,-74.18,-991.13,148.75,-630.0,-218.75,1,94.406,
01/01/2000,01:42:26.60,12.93,-74.42,-990.88,78.75,-630.0,-148.75,1,94.413,
01/01/2000,01:42:26.61,13.66,-75.27,-991.01,175.0,-691.25,-227.50,1,94.421,
01/01/2000,01:42:26.62,14.15,-76.01,-991.37,218.75,-673.75,-350.0,1,94.429,
01/01/2000,01:42:26.63,13.79,-76.13,-991.49,61.25,-682.50,-490.0,1,94.437,
01/01/2000,01:42:26.64,13.42,-75.40,-991.25,183.75,-647.50,-411.25,1,94.444,
01/01/2000,01:42:26.65,13.30,-74.42,-990.88,96.25,-743.75,-262.50,1,94.452,
01/01/2000,01:42:26.66,13.18,-74.42,-990.88,122.50,-630.0,0.0,1,94.329,
01/01/2000,01:42:26.67,13.42,-75.15,-991.37,61.25,-735.0,-183.75,1,94.467,
01/01/2000,01:42:26.68,13.66,-75.88,-991.49,175.0,-778.75,-516.25,1,94.345,
01/01/2000,01:42:26.69,13.66,-76.37,-991.37,148.75,-726.25,-498.75,1,94.353,
01/01/2000,01:42:26.70,13.66,-75.76,-990.88,96.25,-735.0,-507.50,1,94.360,
01/01/2000,01:42:26.71,13.54,-75.15,-990.88,-70.0,-726.25,-280.0,1,94.368,
01/01/2000,01:42:26.72,13.54,-74.91,-991.13,271.25,-621.25,-297.50,1,94.376,
01/01/2000,01:42:26.73,13.42,-75.03,-991.49,96.25,-708.75,-297.50,1,94.384,
01/01/2000,01:42:26.74,13.42,-75.64,-991.25,218.75,-735.0,-323.75,1,94.391,
01/01/2000,01:42:26.75,13.30,-75.76,-990.88,87.50,-656.25,-490.0,1,94.399,
01/01/2000,01:42:26.76,13.42,-75.76,-990.64,157.50,-761.25,-411.25,1,94.407,
01/01/2000,01:42:26.77,13.42,-75.15,-990.88,148.75,-700.0,-288.75,1,94.414,
01/01/2000,01:42:26.79,13.42,-75.03,-991.49,70.0,-691.25,-280.0,1,94.422,
01/01/2000,01:42:26.80,13.42,-75.40,-991.74,113.75,-673.75,-236.25,1,94.429,
01/01/2000,01:42:26.81,13.30,-75.40,-991.62,26.25,-700.0,-455.0,1,94.437,
01/01/2000,01:42:26.82,13.42,-75.40,-991.13,192.50,-630.0,-350.0,1,94.444,
01/01/2000,01:42:26.83,13.66,-75.40,-990.52,122.50,-752.50,-420.0,1,94.452,
01/01/2000,01:42:26.84,13.66,-75.40,-990.88,52.50,-700.0,-271.25,1,94.459,
01/01/2000,01:42:26.85,13.42,-75.40,-991.37,210.0,-691.25,-393.75,1,94.467,
01/01/2000,01:42:26.86,13.42,-75.40,-991.49,157.50,-691.25,-350.0,1,94.474,
01/01/2000,01:42:26.87,13.18,-75.40,-991.13,26.25,-647.50,-288.75,1,94.482,
01/01/2000,01:42:26.88,13.42,-75.15,-990.76,96.25,-761.25,-315.0,1,94.489,
01/01/2000,01:42:26.89,13.66,-75.52,-990.64,113.75,-735.0,-262.50,1,94.497,
01/01/2000,01:42:26.90,13.79,-75.40,-990.76,166.25,-813.75,-271.25,1,94.504,
01/01/2000,01:42:26.91,13.66,-75.52,-991.13,78.75,-770.0,-420.0,1,94.385,
01/01/2000,01:42:26.92,13.42,-75.64,-991.13,113.75,-673.75,-306.25,1,94.393,
01/01/2000,01:42:26.93,13.18,-75.15,-991.13,192.50,-691.25,-315.0,1,94.400,
01/01/2000,01:42:26.94,13.54,-75.03,-991.13,113.75,-568.75,-323.75,1,94.407,
01/01/2000,01:42:26.95,13.66,-75.27,-991.13,183.75,-752.50,-315.0,1,94.415,
01/01/2000,01:42:26.96,13.66,-75.27,-991.25,-43.75,-717.50,-271.25,1,94.422,
01/01/2000,01:42:26.97,13.54,-75.76,-991.13,218.75,-586.25,-358.75,1,94.430,
01/01/2000,01:42:26.99,13.54,-75.40,-990.88,131.25,-761.25,-350.0,1,94.437,
01/01/2000,01:42:27.00,13.66,-75.03,-991.01,341.25,-595.0,-262.50,1,94.444,
01/01/2000,01:42:27.01,13.54,-74.91,-991.13,113.75,-840.0,-271.25,1,94.452,
01/01/2000,01:42:27.02,13.42,-75.15,-991.37,227.50,-673.75,-315.0,1,94.459,
01/01/2000,01:42:27.03,13.54,-75.27,-991.37,131.25,-726.25,-315.0,1,94.466,
01/01/2000,01:42:27.04,13.42,-75.52,-991.37,105.0,-612.50,-350.0,1,94.474,
01/01/2000,01:42:27.05,13.66,-75.40,-991.25,131.25,-525.0,-498.75,1,94.481,
01/01/2000,01:42:27.06,13.42,-75.15,-991.25,157.50,-665.0,-245.0,1,94.488,
01/01/2000,01:42:27.07,13.54,-75.15,-991.25,175.0,-656.25,-288.75,1,94.495,
01/01/2000,01:42:27.08,13.42,-75.27,-991.13,175.0,-612.50,-280.0,1,94.503,
01/01/2000,01:42:27.09,13.42,-75.40,-991.37,218.75,-612.50,-341.25,1,94.510,
01/01/2000,01:42:27.10,13.66,-75.64,-991.37,306.25,-595.0,-393.75,1,94.517,
01/01/2000,01:42:27.12,13.79,-75.40,-991.49,96.25,-673.75,-420.0,1,94.401,
01/01/2000,01:42:27.13,13.54,-75.27,-991.49,227.50,-848.75,-236.25,1,94.408,
01/01/2000,01:42:27.14,13.54,-75.52,-991.37,96.25,-726.25,-280.0,1,94.416,
01/01/2000,01:42:27.15,13.66,-75.40,-991.37,52.50,-603.75,-402.50,1,94.423,
01/01/2000,01:42:27.16,13.79,-75.40,-991.25,201.25,-647.50,-420.0,1,94.430,
01/01/2000,01:42:27.17,13.66,-75.40,-991.37,192.50,-603.75,-306.25,1,94.437,
01/01/2000,01:42:27.18,13.54,-75.40,-991.37,131.25,-665.0,-420.0,1,94.444,
01/01/2000,01:42:27.19,13.42,-75.15,-991.37,227.50,-630.0,-288.75,1,94.452,
01/01/2000,01:42:27.20,13.54,-75.40,-991.37,210.0,-603.75,-315.0,1,94.459,
01/01/2000,01:42:27.21,13.30,-75.40,-991.37,175.0,-691.25,-367.50,1,94.466,
01/01/2000,01:42:27.22,13.42,-75.27,-991.25,140.0,-708.75,-332.50,1,94.473,
01/01/2000,01:42:27.23,13.54,-75.52,-991.25,140.0,-813.75,-376.25,1,94.480,
01/01/2000,01:42:27.24,13.42,-75.40,-991.25,70.0,-656.25,-288.75,1,94.487,
01/01/2000,01:42:27.25,13.30,-75.64,-991.37,166.25,-665.0,-402.50,1,94.494,
01/01/2000,01:42:27.26,13.42,-75.64,-991.37,113.75,-770.0,-315.0,1,94.501,
01/01/2000,01:42:27.27,13.30,-75.40,-991.25,183.75,-542.50,-341.25,1,94.388,
01/01/2000,01:42:27.28,13.42,-75.40,-991.37,87.50,-673.75,-218.75,1,94.395,
01/01/2000,01:42:27.29,13.42,-75.40,-991.13,131.25,-656.25,-341.25,1,94.402,
01/01/2000,01:42:27.30,13.66,-75.40,-991.13,113.75,-735.0,-323.75,1,94.409,
01/01/2000,01:42:27.31,13.54,-75.52,-991.13,-8.75,-752.50,-315.0,1,94.416,
01/01/2000,01:42:27.32,13.30,-75.40,-991.25,297.50,-586.25,-402.50,1,94.423,
01/01/2000,01:42:27.34,13.42,-75.27,-991.25,175.0,-673.75,-323.75,1,94.430,
01/01/2000,01:42:27.35,13.42,-75.15,-991.37,113.75,-708.75,-306.25,1,94.437,
01/01/2000,01:42:27.36,13.30,-75.15,-991.37,131.25,-796.25,-236.25,1,94.444,
01/01/2000,01:42:27.37,13.42,-75.64,-991.37,262.50,-708.75,-297.50,1,94.451,
01/01/2000,01:42:27.38,13.54,-75.64,-991.49,183.75,-708.75,-402.50,1,94.458,
01/01/2000,01:42:27.39,13.54,-75.64,-991.49,61.25,-656.25,-358.75,1,94.465,
01/01/2000,01:42:27.40,13.54,-75.64,-991.49,131.25,-630.0,-280.0,1,94.472,
01/01/2000,01:42:27.41,13.54,-75.52,-991.37,122.50,-752.50,-358.75,1,94.361,
01/01/2000,01:42:27.42,13.54,-75.40,-991.25,227.50,-682.50,-323.75,1,94.368,
01/01/2000,01:42:27.43,13.54,-75.52,-991.13,227.50,-612.50,-455.0,1,94.375,
01/01/2000,01:42:27.44,13.66,-75.64,-991.37,192.50,-665.0,-341.25,1,94.382,
01/01/2000,01:42:27.45,13.66,-75.64,-991.37,297.50,-805.0,-420.0,1,94.389,
01/01/2000,01:42:27.46,13.79,-75.52,-991.37,131.25,-717.50,-183.75,1,94.396,
01/01/2000,01:42:27.47,13.79,-75.52,-991.25,183.75,-700.0,-315.0,1,94.403,
01/01/2000,01:42:27.49,13.66,-75.52,-991.13,236.25,-726.25,-428.75,1,94.410,
01/01/2000,01:42:27.50,13.66,-75.40,-991.25,271.25,-682.50,-323.75,1,94.417,
01/01/2000,01:42:27.51,13.79,-75.40,-991.37,78.75,-682.50,-271.25,1,94.424,
01/01/2000,01:42:27.52,13.79,-75.40,-991.25,315.0,-708.75,-420.0,1,94.431,
01/01/2000,01:42:27.53,13.66,-75.40,-991.13,245.0,-638.75,-402.50,1,94.438,
01/01/2000,01:42:27.54,13.66,-75.40,-991.13,192.50,-682.50,-393.75,1,94.444,
01/01/2000,01:42:27.55,13.66,-75.40,-991.13,253.75,-787.50,-332.50,1,94.451,
01/01/2000,01:42:27.56,13.66,-75.52,-991.37,253.75,-752.50,-428.75,1,94.458,
01/01/2000,01:42:27.57,13.66,-75.52,-991.37,105.0,-752.50,-297.50,1,94.465,
01/01/2000,01:42:27.58,13.66,-75.40,-991.25,-26.25,-673.75,-402.50,1,94.472,
01/01/2000,01:42:27.59,13.66,-75.40,-991.01,227.50,-691.25,-253.75,1,94.479,
01/01/2000,01:42:27.60,13.54,-75.27,-990.88,140.0,-708.75,-367.50,1,94.485,
01/01/2000,01:42:27.61,13.42,-75.40,-991.13,140.0,-656.25,-271.25,1,94.492,
01/01/2000,01:42:27.63,13.42,-75.64,-991.37,262.50,-726.25,-376.25,1,94.383,
01/01/2000,01:42:27.64,13.54,-75.40,-991.37,218.75,-813.75,-122.50,1,94.390,
01/01/2000,01:42:27.65,13.66,-75.64,-991.37,280.0,-735.0,-350.0,1,94.397,
01/01/2000,01:42:27.66,13.42,-75.52,-991.13,122.50,-770.0,-297.50,1,94.404,
01/01/2000,01:42:27.67,13.42,-75.64,-991.13,218.75,-796.25,-490.0,1,94.411,
01/01/2000,01:42:27.68,13.30,-75.40,-991.25,210.0,-708.75,-411.25,1,94.417,
01/01/2000,01:42:27.69,13.30,-75.40,-991.13,288.75,-612.50,-393.75,1,94.424,
01/01/2000,01:42:27.70,13.30,-75.27,-991.25,43.75,-717.50,-297.50,1,94.431,
01/01/2000,01:42:27.71,13.30,-75.40,-991.25,245.0,-673.75,-323.75,1,94.438,
01/01/2000,01:42:27.72,13.42,-75.52,-991.01,227.50,-743.75,-297.50,1,94.444,
01/01/2000,01:42:27.73,13.42,-75.64,-991.01,218.75,-577.50,-306.25,1,94.451,
01/01/2000,01:42:27.74,13.54,-75.52,-991.13,26.25,-778.75,-218.75,1,94.458,
01/01/2000,01:42:27.75,13.54,-75.40,-991.37,271.25,-743.75,-376.25,1,94.465,
01/01/2000,01:42:27.76,13.54,-75.27,-991.25,52.50,-717.50,-297.50,1,94.358,
01/01/2000,01:42:27.77,13.66,-75.40,-991.01,175.0,-665.0,-306.25,1,94.365,
01/01/2000,01:42:27.78,13.79,-75.52,-991.01,192.50,-708.75,-472.50,1,94.371,
01/01/2000,01:42:27.79,13.91,-75.64,-991.01,87.50,-708.75,-332.50,1,94.378,
01/01/2000,01:42:27.80,13.91,-75.64,-991.37,175.0,-726.25,-358.75,1,94.385,
01/01/2000,01:42:27.81,14.15,-75.64,-991.62,218.75,-656.25,-262.50,1,94.391,
01/01/2000,01:42:27.82,13.91,-75.15,-991.37,113.75,-770.0,-393.75,1,94.398,
01/01/2000,01:42:27.84,13.79,-75.15,-991.01,105.0,-700.0,-210.0,1,94.405,
01/01/2000,01:42:27.85,13.79,-75.15,-991.13,183.75,-700.0,-350.0,1,94.411,
01/01/2000,01:42:27.86,13.79,-75.40,-991.25,192.50,-603.75,-481.25,1,94.418,
01/01/2000,01:42:27.87,13.66,-75.15,-991.62,78.75,-708.75,-262.50,1,94.425,
01/01/2000,01:42:27.88,13.79,-75.27,-991.74,78.75,-691.25,-358.75,1,94.431,
01/01/2000,01:42:27.89,13.79,-75.40,-991.74,280.0,-665.0,-306.25,1,94.438,
01/01/2000,01:42:27.90,13.66,-75.40,-991.49,315.0,-647.50,-411.25,1,94.444,
01/01/2000,01:42:27.91,13.66,-75.40,-991.37,140.0,-717.50,-323.75,1,94.451,
01/01/2000,01:42:27.92,13.66,-75.64,-991.37,236.25,-656.25,-227.50,1,94.458,
01/01/2000,01:42:27.93,13.66,-75.64,-991.37,17.50,-735.0,-332.50,1,94.464,
01/01/2000,01:42:27.94,13.66,-75.52,-991.37,192.50,-647.50,-350.0,1,94.471,
01/01/2000,01:42:27.95,13.54,-75.52,-991.37,87.50,-656.25,-341.25,1,94.477,
01/01/2000,01:42:27.96,13.42,-75.40,-991.49,245.0,-612.50,-350.0,1,94.484,
01/01/2000,01:42:27.98,13.54,-75.64,-991.37,262.50,-533.75,-332.50,1,94.379,
01/01/2000,01:42:27.99,13.54,-75.64,-991.37,166.25,-761.25,-376.25,1,94.386,
01/01/2000,01:42:28.00,13.54,-75.76,-991.25,113.75,-717.50,-341.25,1,94.393,
01/01/2000,01:42:28.01,13.54,-75.52,-991.37,87.50,-647.50,-358.75,1,94.399,
01/01/2000,01:42:28.02,13.54,-75.40,-991.49,245.0,-603.75,-455.0,1,94.406,
01/01/2000,01:42:28.03,13.54,-75.40,-991.62,105.0,-700.0,-315.0,1,94.412,
01/01/2000,01:42:28.04,13.42,-75.40,-991.49,183.75,-822.50,-385.0,1,94.419,
01/01/2000,01:42:28.05,13.42,-75.64,-991.13,315.0,-708.75,-306.25,1,94.425,
01/01/2000,01:42:28.06,13.54,-75.64,-991.13,157.50,-691.25,-420.0,1,94.432,
01/01/2000,01:42:28.07,13.54,-75.64,-991.25,201.25,-665.0,-358.75,1,94.438,
01/01/2000,01:42:28.08,13.42,-75.64,-991.37,183.75,-682.50,-315.0,1,94.444,
01/01/2000,01:42:28.09,13.30,-75.40,-991.37,61.25,-700.0,-437.50,1,94.451,
01/01/2000,01:42:28.10,13.42,-75.52,-991.25,70.0,-726.25,-402.50,1,94.457,
01/01/2000,01:42:28.11,13.54,-75.52,-991.25,183.75,-542.50,-350.0,1,94.355,
01/01/2000,01:42:28.12,13.66,-75.64,-991.37,140.0,-568.75,-358.75,1,94.361,
01/01/2000,01:42:28.14,13.54,-75.40,-991.37,227.50,-603.75,-428.75,1,94.368,
01/01/2000,01:42:28.15,13.42,-75.27,-991.37,166.25,-612.50,-315.0,1,94.374,
01/01/2000,01:42:28.16,13.42,-75.27,-991.13,201.25,-717.50,-420.0,1,94.381,
01/01/2000,01:42:28.17,13.42,-75.27,-991.37,35.0,-726.25,-175.0,1,94.387,
01/01/2000,01:42:28.18,13.42,-75.64,-991.37,306.25,-717.50,-306.25,1,94.394,
01/01/2000,01:42:28.19,13.66,-75.64,-991.37,175.0,-656.25,-358.75,1,94.400,
01/01/2000,01:42:28.20,13.79,-75.52,-991.25,175.0,-743.75,-358.75,1,94.406,
01/01/2000,01:42:28.21,13.66,-75.52,-991.13,-35.0,-673.75,-315.0,1,94.413,
01/01/2000,01:42:28.22,13.54,-75.52,-991.25,201.25,-656.25,-315.0,1,94.419,
01/01/2000,01:42:28.23,13.42,-75.52,-991.25,218.75,-621.25,-323.75,1,94.425,
01/01/2000,01:42:28.24,13.54,-75.52,-991.25,306.25,-752.50,-350.0,1,94.432,
01/01/2000,01:42:28.25,13.42,-75.40,-991.13,166.25,-595.0,-341.25,1,94.438,
01/01/2000,01:42:28.26,13.42,-75.40,-991.13,236.25,-682.50,-323.75,1,94.337,
01/01/2000,01:42:28.27,13.30,-75.40,-991.13,122.50,-735.0,-245.0,1,94.451,
01/01/2000,01:42:28.28,13.30,-75.40,-991.37,376.25,-682.50,-385.0,1,94.350,
01/01/2000,01:42:28.29,13.42,-75.40,-991.37,61.25,-682.50,-350.0,1,94.357,
01/01/2000,01:42:28.30,13.54,-75.40,-991.62,227.50,-691.25,-350.0,1,94.363,
01/01/2000,01:42:28.31,13.66,-75.27,-991.37,210.0,-621.25,-148.75,1,94.369,
01/01/2000,01:42:28.33,13.66,-75.40,-991.13,183.75,-700.0,-455.0,1,94.376,
01/01/2000,01:42:28.34,13.54,-75.64,-991.13,61.25,-673.75,-192.50,1,94.382,
01/01/2000,01:42:28.35,13.66,-75.52,-991.13,192.50,-568.75,-420.0,1,94.388,
01/01/2000,01:42:28.36,13.54,-75.52,-991.01,236.25,-612.50,-358.75,1,94.395,
01/01/2000,01:42:28.37,13.42,-75.52,-991.13,297.50,-630.0,-393.75,1,94.401,
01/01/2000,01:42:28.38,13.42,-75.52,-991.13,113.75,-735.0,-271.25,1,94.407,
01/01/2000,01:42:28.39,13.42,-75.52,-991.37,166.25,-682.50,-385.0,1,94.413,
01/01/2000,01:42:28.40,13.66,-75.64,-991.49,210.0,-665.0,-481.25,1,94.420,
01/01/2000,01:42:28.41,13.66,-75.64,-991.37,245.0,-717.50,-376.25,1,94.426,
01/01/2000,01:42:28.42,13.66,-75.52,-991.37,8.75,-717.50,-332.50,1,94.432,
01/01/2000,01:42:28.43,13.66,-75.40,-991.13,105.0,-717.50,-367.50,1,94.438,
01/01/2000,01:42:28.44,13.54,-75.40,-991.49,70.0,-700.0,-402.50,1,94.444,
01/01/2000,01:42:28.45,13.66,-75.40,-991.62,148.75,-682.50,-358.75,1,94.451,
01/01/2000,01:42:28.46,13.66,-75.52,-991.74,183.75,-761.25,-367.50,1,94.457,
01/01/2000,01:42:28.47,13.66,-75.40,-991.37,70.0,-778.75,-358.75,1,94.358,
01/01/2000,01:42:28.48,13.66,-75.40,-991.25,201.25,-621.25,-350.0,1,94.365,
01/01/2000,01:42:28.49,13.66,-75.52,-991.25,140.0,-621.25,-428.75,1,94.371,
01/01/2000,01:42:28.50,13.66,-75.52,-991.37,245.0,-673.75,-253.75,1,94.377,
01/01/2000,01:42:28.51,13.54,-75.40,-991.37,236.25,-840.0,-341.25,1,94.383,
01/01/2000,01:42:28.52,13.54,-75.27,-991.37,157.50,-656.25,-262.50,1,94.389,
01/01/2000,01:42:28.54,13.54,-75.40,-991.37,175.0,-743.75,-323.75,1,94.396,
01/01/2000,01:42:28.55,13.54,-75.40,-991.13,175.0,-717.50,-402.50,1,94.402,
01/01/2000,01:42:28.56,13.42,-75.27,-991.13,166.25,-630.0,-350.0,1,94.408,
01/01/2000,01:42:28.57,13.54,-75.27,-991.13,210.0,-595.0,-420.0,1,94.414,
01/01/2000,01:42:28.58,13.42,-75.15,-991.25,140.0,-726.25,-271.25,1,94.420,
01/01/2000,01:42:28.59,13.30,-75.27,-991.13,253.75,-673.75,-472.50,1,94.426,
01/01/2000,01:42:28.60,13.30,-75.40,-991.25,210.0,-638.75,-315.0,1,94.432,
01/01/2000,01:42:28.61,13.42,-75.27,-991.37,0.0,-691.25,-332.50,1,94.336,
01/01/2000,01:42:28.62,13.66,-75.52,-991.37,201.25,-656.25,-341.25,1,94.444,
01/01/2000,01:42:28.63,13.42,-75.40,-991.37,26.25,-673.75,-376.25,1,94.348,
01/01/2000,01:42:28.65,13.30,-75.40,-991.13,70.0,-805.0,-315.0,1,94.354,
01/01/2000,01:42:28.66,13.18,-75.40,-991.37,262.50,-700.0,-420.0,1,94.360,
01/01/2000,01:42:28.67,13.42,-75.52,-991.37,332.50,-647.50,-411.25,1,94.366,
01/01/2000,01:42:28.68,13.42,-75.64,-991.13,87.50,-700.0,-367.50,1,94.372,
01/01/2000,01:42:28.69,13.42,-75.52,-991.13,96.25,-717.50,-271.25,1,94.378,
01/01/2000,01:42:28.70,13.54,-75.64,-991.13,148.75,-665.0,-411.25,1,94.384,
01/01/2000,01:42:28.71,13.42,-75.40,-991.37,183.75,-656.25,-262.50,1,94.391,
01/01/2000,01:42:28.72,13.42,-75.27,-991.37,367.50,-708.75,-463.75,1,94.295,
01/01/2000,01:42:28.73,13.42,-75.15,-991.25,131.25,-682.50,-315.0,1,94.403,
01/01/2000,01:42:28.74,13.42,-75.03,-991.13,113.75,-735.0,-428.75,1,94.307,
01/01/2000,01:42:28.75,13.54,-74.91,-991.13,227.50,-726.25,-113.75,1,94.313,
01/01/2000,01:42:28.76,13.54,-74.79,-991.13,236.25,-560.0,341.25,1,94.319,
01/01/2000,01:42:28.77,13.54,-74.42,-991.25,35.0,-673.75,770.0,1,94.325,
01/01/2000,01:42:28.78,13.42,-74.30,-991.25,262.50,-586.25,1610.0,1,94.332,
01/01/2000,01:42:28.79,13.18,-73.93,-991.13,-17.50,-516.25,2073.75,1,94.338,
01/01/2000,01:42:28.80,13.18,-73.93,-991.13,201.25,-481.25,2266.25,1,94.344,
01/01/2000,01:42:28.81,13.30,-74.18,-991.13,175.0,-560.0,2633.75,1,94.350,
01/01/2000,01:42:28.82,13.30,-74.30,-991.13,201.25,-437.50,4103.75,1,94.356,
01/01/2000,01:42:28.83,13.54,-74.66,-991.13,35.0,-350.0,5136.25,1,94.362,
01/01/2000,01:42:28.85,13.54,-74.54,-991.13,192.50,-332.50,5635.0,1,94.368,
01/01/2000,01:42:28.85,13.66,-73.69,-991.25,-17.50,-402.50,6685.0,1,94.374,
01/01/2000,01:42:28.87,13.42,-73.44,-991.37,175.0,-183.75,9590.0,1,94.380,
01/01/2000,01:42:28.88,13.05,-72.71,-991.37,192.50,-157.50,12328.75,1,94.386,
01/01/2000,01:42:28.89,13.18,-72.22,-991.49,-52.50,0.0,14910.0,1,94.392,
01/01/2000,01:42:28.90,13.30,-72.71,-991.37,-157.50,105.0,16913.75,1,94.397,
01/01/2000,01:42:28.91,13.42,-73.69,-991.37,105.0,166.25,16528.75,1,94.403,
01/01/2000,01:42:28.92,13.54,-75.40,-991.13,411.25,-8.75,14577.50,1,94.409,
01/01/2000,01:42:28.93,13.54,-75.64,-991.37,8.75,-183.75,10386.25,1,94.415,
01/01/2000,01:42:28.94,13.91,-75.52,-991.13,183.75,-280.0,8391.25,1,94.421,
01/01/2000,01:42:28.95,13.42,-73.81,-991.25,0.0,-481.25,8111.25,1,94.427,
01/01/2000,01:42:28.96,12.93,-73.08,-991.49,-192.50,-280.0,10307.50,1,94.334,
01/01/2000,01:42:28.97,12.93,-73.81,-991.37,656.25,113.75,13011.25,1,94.340,
01/01/2000,01:42:28.98,13.05,-74.66,-991.37,17.50,131.25,16292.50,1,94.346,
01/01/2000,01:42:28.99,13.30,-74.66,-991.13,-43.75,87.50,17342.50,1,94.351,
01/01/2000,01:42:29.00,13.66,-74.91,-990.76,-17.50,245.0,17727.50,1,94.357,
01/01/2000,01:42:29.01,13.66,-75.03,-990.64,236.25,210.0,17500.0,1,94.363,
01/01/2000,01:42:29.02,13.30,-74.54,-991.01,-78.75,157.50,16747.50,1,94.369,
01/01/2000,01:42:29.04,12.93,-74.42,-991.37,420.0,105.0,15163.75,1,94.375,
01/01/2000,01:42:29.05,12.93,-74.66,-991.37,367.50,-43.75,13466.25,1,94.381,
01/01/2000,01:42:29.06,13.42,-75.40,-990.76,17.50,8.75,13195.0,1,94.387,
01/01/2000,01:42:29.07,13.42,-75.88,-990.40,70.0,-87.50,13326.25,1,94.393,
01/01/2000,01:42:29.08,13.54,-75.64,-990.52,236.25,61.25,13868.75,1,94.398,
01/01/2000,01:42:29.09,13.42,-75.64,-990.88,236.25,-52.50,14533.75,1,94.404,
01/01/2000,01:42:29.10,13.18,-74.91,-991.49,-87.50,192.50,14927.50,1,94.410,
01/01/2000,01:42:29.11,13.18,-74.66,-991.49,131.25,96.25,15487.50,1,94.416,
01/01/2000,01:42:29.12,13.18,-75.52,-991.13,183.75,148.75,15592.50,1,94.421,
01/01/2000,01:42:29.13,13.18,-76.13,-990.88,-43.75,0.0,15548.75,1,94.427,
01/01/2000,01:42:29.14,13.42,-76.13,-990.64,227.50,61.25,15023.75,1,94.433,
01/01/2000,01:42:29.16,13.42,-76.01,-990.88,262.50,-52.50,14656.25,1,94.342,
01/01/2000,01:42:29.17,13.18,-75.76,-991.25,280.0,-17.50,14700.0,1,94.347,
01/01/2000,01:42:29.18,12.81,-75.15,-991.37,35.0,26.25,14542.50,1,94.353,
01/01/2000,01:42:29.19,12.93,-75.64,-991.37,87.50,113.75,14481.25,1,94.359,
01/01/2000,01:42:29.20,13.18,-76.62,-991.01,-131.25,-61.25,13912.50,1,94.365,
01/01/2000,01:42:29.21,13.18,-77.23,-990.88,166.25,-148.75,13046.25,1,94.371,
01/01/2000,01:42:29.22,13.42,-77.96,-990.88,280.0,-113.75,11620.0,1,94.376,
01/01/2000,01:42:29.23,13.66,-76.86,-990.88,-35.0,-297.50,7883.75,1,94.382,
01/01/2000,01:42:29.24,13.42,-76.01,-991.13,288.75,-306.25,6676.25,1,94.388,
01/01/2000,01:42:29.25,13.18,-75.52,-991.37,175.0,-236.25,7393.75,1,94.393,
01/01/2000,01:42:29.26,13.05,-75.15,-991.37,-78.75,-70.0,9721.25,1,94.399,
01/01/2000,01:42:29.27,13.18,-75.27,-991.25,-105.0,-113.75,10946.25,1,94.405,
01/01/2000,01:42:29.28,13.42,-75.88,-991.13,175.0,-43.75,11576.25,1,94.411,
01/01/2000,01:42:29.29,13.66,-76.62,-990.88,297.50,-166.25,10605.0,1,94.416,
01/01/2000,01:42:29.30,13.79,-76.62,-990.88,183.75,-253.75,8872.50,1,94.422,
01/01/2000,01:42:29.31,13.54,-77.10,-990.88,428.75,-367.50,6037.50,1,94.428,
01/01/2000,01:42:29.32,13.30,-76.86,-991.01,78.75,-525.0,4602.50,1,94.433,
01/01/2000,01:42:29.33,13.30,-77.35,-991.01,105.0,-490.0,3158.75,1,94.439,
01/01/2000,01:42:29.34,13.42,-77.35,-990.88,280.0,-568.75,1697.50,1,94.444,
01/01/2000,01:42:29.35,13.42,-77.23,-990.88,236.25,-586.25,1417.50,1,94.450,
01/01/2000,01:42:29.36,13.42,-76.98,-990.76,236.25,-568.75,1505.0,1,94.456,
01/01/2000,01:42:29.37,13.42,-76.62,-990.88,43.75,-577.50,1855.0,1,94.461,
01/01/2000,01:42:29.38,13.05,-76.13,-991.01,35.0,-463.75,2458.75,1,94.372,
01/01/2000,01:42:29.40,13.30,-76.49,-990.88,341.25,-533.75,2563.75,1,94.378,
01/01/2000,01:42:29.41,13.18,-76.01,-990.76,8.75,-542.50,2152.50,1,94.383,
01/01/2000,01:42:29.42,13.30,-76.74,-990.64,192.50,-577.50,1706.25,1,94.389,
01/01/2000,01:42:29.43,13.42,-76.98,-990.76,227.50,-507.50,1251.25,1,94.394,
01/01/2000,01:42:29.44,13.42,-77.10,-991.01,166.25,-673.75,691.25,1,94.400,
01/01/2000,01:42:29.45,13.42,-77.10,-991.01,253.75,-708.75,-87.50,1,94.406,
01/01/2000,01:42:29.46,13.18,-76.37,-990.88,131.25,-735.0,-201.25,1,94.411,
01/01/2000,01:42:29.47,13.18,-75.88,-990.88,70.0,-700.0,-96.25,1,94.417,
01/01/2000,01:42:29.48,13.18,-76.01,-991.13,245.0,-665.0,0.0,1,94.422,
01/01/2000,01:42:29.49,13.30,-76.25,-991.25,70.0,-752.50,-131.25,1,94.428,
01/01/2000,01:42:29.50,13.30,-76.37,-991.25,306.25,-708.75,-332.50,1,94.433,
01/01/2000,01:42:29.51,13.42,-76.13,-991.13,87.50,-682.50,-306.25,1,94.439,
01/01/2000,01:42:29.52,13.30,-75.88,-991.01,183.75,-708.75,-332.50,1,94.444,
01/01/2000,01:42:29.53,13.30,-75.52,-991.13,148.75,-647.50,-358.75,1,94.356,
01/01/2000,01:42:29.54,13.18,-75.40,-991.25,70.0,-647.50,-227.50,1,94.362,
01/01/2000,01:42:29.55,13.05,-75.64,-991.13,166.25,-656.25,-402.50,1,94.368,
01/01/2000,01:42:29.56,13.05,-75.76,-991.13,201.25,-682.50,-358.75,1,94.373,
01/01/2000,01:42:29.57,13.18,-75.64,-991.01,-43.75,-682.50,-376.25,1,94.379,
01/01/2000,01:42:29.58,13.30,-75.76,-991.13,140.0,-673.75,-402.50,1,94.384,
01/01/2000,01:42:29.60,13.18,-75.64,-991.25,245.0,-586.25,-341.25,1,94.390,
01/01/2000,01:42:29.61,13.30,-75.64,-991.37,192.50,-743.75,-446.25,1,94.395,
01/01/2000,01:42:29.62,13.42,-75.64,-991.25,192.50,-778.75,-385.0,1,94.401,
01/01/2000,01:42:29.63,13.42,-75.64,-991.13,87.50,-717.50,-420.0,1,94.406,
01/01/2000,01:42:29.64,13.66,-75.64,-991.01,131.25,-682.50,-490.0,1,94.412,
01/01/2000,01:42:29.65,13.66,-75.64,-991.13,262.50,-656.25,-297.50,1,94.417,
01/01/2000,01:42:29.66,13.66,-75.52,-991.25,201.25,-630.0,-280.0,1,94.330,
01/01/2000,01:42:29.68,13.54,-75.52,-991.13,210.0,-612.50,-280.0,1,94.336,
01/01/2000,01:42:29.69,13.54,-75.40,-991.13,131.25,-630.0,-411.25,1,94.341,
01/01/2000,01:42:29.70,13.66,-75.64,-991.13,140.0,-638.75,-393.75,1,94.347,
01/01/2000,01:42:29.71,13.66,-75.64,-991.25,201.25,-586.25,-350.0,1,94.352,
01/01/2000,01:42:29.72,13.42,-75.64,-991.13,175.0,-656.25,-332.50,1,94.358,
01/01/2000,01:42:29.73,13.30,-75.76,-991.13,262.50,-638.75,-385.0,1,94.363,
01/01/2000,01:42:29.74,13.30,-75.64,-991.13,148.75,-822.50,-411.25,1,94.369,
01/01/2000,01:42:29.75,13.30,-75.64,-991.13,52.50,-708.75,-385.0,1,94.374,
01/01/2000,01:42:29.76,13.18,-75.64,-991.01,122.50,-796.25,-376.25,1,94.380,
01/01/2000,01:42:29.77,13.18,-75.76,-991.13,201.25,-656.25,-332.50,1,94.385,
01/01/2000,01:42:29.78,13.05,-75.64,-991.13,175.0,-612.50,-367.50,1,94.391,
01/01/2000,01:42:29.79,13.05,-75.40,-991.13,105.0,-665.0,-376.25,1,94.396,
01/01/2000,01:42:29.80,13.18,-75.40,-991.13,210.0,-700.0,-376.25,1,94.402,
01/01/2000,01:42:29.81,13.18,-75.52,-991.13,245.0,-691.25,-393.75,1,94.407,
01/01/2000,01:42:29.82,13.18,-75.64,-991.37,52.50,-708.75,-306.25,1,94.412,
01/01/2000,01:42:29.83,13.18,-75.64,-991.37,148.75,-691.25,-350.0,1,94.418,
01/01/2000,01:42:29.84,13.05,-75.88,-991.49,210.0,-717.50,-463.75,1,94.423,
01/01/2000,01:42:29.85,13.18,-75.64,-991.37,192.50,-787.50,-385.0,1,94.428,
01/01/2000,01:42:29.86,13.18,-75.64,-991.25,96.25,-673.75,-367.50,1,94.434,
01/01/2000,01:42:29.87,13.05,-75.40,-991.25,113.75,-647.50,-376.25,1,94.439,
01/01/2000,01:42:29.88,13.05,-75.64,-991.25,166.25,-638.75,-367.50,1,94.354,
01/01/2000,01:42:29.89,13.05,-75.52,-991.37,122.50,-673.75,-490.0,1,94.359,
01/01/2000,01:42:29.90,13.42,-75.52,-991.25,201.25,-787.50,-437.50,1,94.365,
01/01/2000,01:42:29.91,13.54,-75.64,-990.88,245.0,-735.0,-218.75,1,94.370,
01/01/2000,01:42:29.92,12.93,-75.40,-991.01,183.75,-787.50,-280.0,1,94.376,
01/01/2000,01:42:29.93,12.81,-75.52,-991.13,245.0,-638.75,-446.25,1,94.381,
01/01/2000,01:42:29.95,13.30,-75.15,-990.88,96.25,-621.25,-446.25,1,94.386,
01/01/2000,01:42:29.96,13.42,-75.15,-990.88,87.50,-507.50,-43.75,1,94.392,
01/01/2000,01:42:29.97,13.18,-75.40,-991.01,192.50,-743.75,-402.50,1,94.397,
01/01/2000,01:42:29.98,13.30,-75.64,-991.01,157.50,-638.75,-472.50,1,94.402,
01/01/2000,01:42:29.99,13.30,-75.40,-991.01,262.50,-612.50,-481.25,1,94.408,
01/01/2000,01:42:30.00,13.30,-75.27,-991.25,166.25,-743.75,-402.50,1,94.413,
01/01/2000,01:42:30.01,13.18,-75.03,-991.37,87.50,-638.75,-280.0,1,94.418,
01/01/2000,01:42:30.02,13.42,-75.15,-991.13,61.25,-691.25,-253.75,1,94.423,
01/01/2000,01:42:30.03,13.30,-75.40,-990.88,262.50,-700.0,-402.50,1,94.340,
01/01/2000,01:42:30.04,13.18,-75.64,-990.88,218.75,-673.75,-420.0,1,94.434,
01/01/2000,01:42:30.05,13.18,-75.64,-990.88,385.0,-682.50,-350.0,1,94.350,
01/01/2000,01:42:30.06,13.42,-75.40,-991.01,271.25,-647.50,-455.0,1,94.356,
01/01/2000,01:42:30.07,13.42,-75.03,-991.01,157.50,-665.0,-253.75,1,94.361,
01/01/2000,01:42:30.08,13.30,-75.03,-991.01,113.75,-691.25,-455.0,1,94.366,
01/01/2000,01:42:30.10,13.18,-75.27,-991.13,26.25,-691.25,-306.25,1,94.371,
01/01/2000,01:42:30.11,13.18,-75.64,-991.13,306.25,-665.0,-341.25,1,94.377,
01/01/2000,01:42:30.12,13.18,-75.52,-991.25,192.50,-700.0,-472.50,1,94.382,
01/01/2000,01:42:30.13,13.30,-75.27,-991.37,236.25,-656.25,-376.25,1,94.387,
01/01/2000,01:42:30.14,13.18,-75.15,-991.25,131.25,-708.75,-288.75,1,94.393,
01/01/2000,01:42:30.15,13.05,-75.27,-991.25,148.75,-708.75,-218.75,1,94.398,
01/01/2000,01:42:30.16,13.30,-75.40,-991.13,-43.75,-586.25,-367.50,1,94.403,
01/01/2000,01:42:30.17,13.30,-75.52,-991.13,140.0,-726.25,-306.25,1,94.320,
01/01/2000,01:42:30.19,13.42,-75.88,-991.13,280.0,-700.0,-507.50,1,94.326,
01/01/2000,01:42:30.20,13.42,-75.64,-991.13,8.75,-691.25,-332.50,1,94.331,
01/01/2000,01:42:30.21,13.18,-75.64,-991.13,105.0,-743.75,-262.50,1,94.336,
01/01/2000,01:42:30.22,13.18,-75.64,-991.25,253.75,-752.50,-472.50,1,94.341,
01/01/2000,01:42:30.23,13.18,-75.52,-991.25,236.25,-708.75,-350.0,1,94.347,
01/01/2000,01:42:30.24,13.42,-75.40,-991.13,122.50,-726.25,-376.25,1,94.352,
01/01/2000,01:42:30.25,13.54,-75.64,-990.88,192.50,-586.25,-332.50,1,94.357,
01/01/2000,01:42:30.26,13.42,-75.76,-991.01,210.0,-857.50,-315.0,1,94.362,
01/01/2000,01:42:30.27,13.42,-75.76,-991.13,192.50,-665.0,-481.25,1,94.368,
01/01/2000,01:42:30.28,13.42,-75.88,-991.37,393.75,-656.25,-306.25,1,94.373,
01/01/2000,01:42:30.29,13.30,-75.64,-991.37,105.0,-621.25,-332.50,1,94.378,
01/01/2000,01:42:30.30,13.30,-75.64,-991.13,192.50,-700.0,-367.50,1,94.383,
01/01/2000,01:42:30.31,13.42,-75.52,-991.13,227.50,-735.0,-402.50,1,94.388,
01/01/2000,01:42:30.32,13.42,-75.52,-991.13,140.0,-621.25,-306.25,1,94.393,
01/01/2000,01:42:30.33,13.42,-75.40,-991.37,105.0,-743.75,-271.25,1,94.399,
01/01/2000,01:42:30.34,13.42,-75.52,-991.49,297.50,-612.50,-288.75,1,94.404,
01/01/2000,01:42:30.35,13.54,-75.40,-991.49,306.25,-638.75,-393.75,1,94.409,
01/01/2000,01:42:30.36,13.42,-75.27,-991.49,96.25,-752.50,-297.50,1,94.414,
01/01/2000,01:42:30.37,13.42,-75.40,-991.37,210.0,-682.50,-315.0,1,94.333,
01/01/2000,01:42:30.38,13.42,-75.40,-991.37,61.25,-665.0,-385.0,1,94.338,
01/01/2000,01:42:30.39,13.42,-75.76,-991.37,332.50,-682.50,-323.75,1,94.343,
01/01/2000,01:42:30.40,13.30,-75.76,-991.25,192.50,-708.75,-332.50,1,94.348,
01/01/2000,01:42:30.41,13.42,-75.40,-991.13,113.75,-621.25,-402.50,1,94.353,
01/01/2000,01:42:30.42,13.42,-75.27,-990.88,96.25,-761.25,-341.25,1,94.359,
01/01/2000,01:42:30.43,13.54,-75.40,-990.88,262.50,-665.0,-262.50,1,94.364,
01/01/2000,01:42:30.45,13.42,-75.40,-991.01,210.0,-717.50,-332.50,1,94.369,
01/01/2000,01:42:30.46,13.42,-75.88,-991.13,280.0,-700.0,-437.50,1,94.374,
01/01/2000,01:42:30.47,13.30,-75.64,-991.13,262.50,-717.50,-437.50,1,94.379,
01/01/2000,01:42:30.48,13.42,-75.27,-990.88,96.25,-595.0,-411.25,1,94.384,
01/01/2000,01:42:30.49,13.30,-75.15,-990.88,61.25,-551.25,-297.50,1,94.389,
01/01/2000,01:42:30.50,13.30,-75.27,-990.88,175.0,-630.0,-166.25,1,94.394,
01/01/2000,01:42:30.51,13.54,-75.64,-991.01,157.50,-568.75,-455.0,1,94.399,
01/01/2000,01:42:30.52,13.54,-75.76,-991.01,105.0,-673.75,-420.0,1,94.404,
01/01/2000,01:42:30.53,13.66,-75.64,-990.88,35.0,-665.0,-288.75,1,94.409,
01/01/2000,01:42:30.54,13.66,-75.15,-990.88,148.75,-700.0,-463.75,1,94.414,
01/01/2000,01:42:30.55,13.42,-75.15,-990.88,157.50,-638.75,-271.25,1,94.419,
01/01/2000,01:42:30.56,13.42,-75.03,-991.01,288.75,-691.25,-236.25,1,94.424,
01/01/2000,01:42:30.57,13.30,-75.40,-991.01,332.50,-603.75,-367.50,1,94.429,
01/01/2000,01:42:30.58,13.18,-75.64,-991.13,262.50,-691.25,-402.50,1,94.350,
01/01/2000,01:42:30.59,13.30,-75.52,-991.13,131.25,-665.0,-420.0,1,94.355,
01/01/2000,01:42:30.60,13.42,-75.40,-991.25,157.50,-691.25,-385.0,1,94.360,
01/01/2000,01:42:30.62,13.42,-75.40,-991.37,192.50,-595.0,-262.50,1,94.365,
01/01/2000,01:42:30.62,13.30,-75.27,-991.37,113.75,-743.75,-385.0,1,94.370,
01/01/2000,01:42:30.64,13.18,-75.40,-991.25,227.50,-700.0,-253.75,1,94.375,
01/01/2000,01:42:30.65,13.42,-75.27,-991.01,122.50,-761.25,-358.75,1,94.380,
01/01/2000,01:42:30.66,13.54,-75.40,-991.01,166.25,-778.75,-358.75,1,94.385,
01/01/2000,01:42:30.67,13.42,-75.40,-991.13,-26.25,-638.75,-288.75,1,94.390,
01/01/2000,01:42:30.68,13.18,-75.15,-991.13,96.25,-691.25,-358.75,1,94.311,
01/01/2000,01:42:30.69,12.93,-75.03,-991.13,201.25,-822.50,-420.0,1,94.316,
01/01/2000,01:42:30.70,13.05,-75.03,-991.25,166.25,-682.50,-315.0,1,94.321,
01/01/2000,01:42:30.71,13.18,-75.15,-991.13,262.50,-717.50,-297.50,1,94.326,
01/01/2000,01:42:30.73,13.42,-75.40,-991.01,26.25,-612.50,-332.50,1,94.331,
01/01/2000,01:42:30.74,13.30,-75.64,-991.01,253.75,-682.50,-411.25,1,94.336,
01/01/2000,01:42:30.75,13.18,-75.15,-990.88,96.25,-787.50,-315.0,1,94.341,
01/01/2000,01:42:30.76,13.05,-75.15,-991.01,262.50,-665.0,-262.50,1,94.346,
01/01/2000,01:42:30.77,12.93,-74.91,-990.88,113.75,-682.50,-315.0,1,94.351,
01/01/2000,01:42:30.78,13.18,-75.15,-991.13,288.75,-691.25,-376.25,1,94.356,
01/01/2000,01:42:30.79,13.30,-75.15,-991.25,17.50,-673.75,-367.50,1,94.361,
01/01/2000,01:42:30.80,13.30,-75.40,-991.37,52.50,-761.25,-402.50,1,94.366,
01/01/2000,01:42:30.81,13.18,-75.64,-991.13,341.25,-656.25,-323.75,1,94.371,
01/01/2000,01:42:30.82,12.93,-75.40,-991.13,-43.75,-743.75,-420.0,1,94.376,
01/01/2000,01:42:30.83,12.93,-75.15,-991.01,157.50,-647.50,-385.0,1,94.381,
01/01/2000,01:42:30.84,12.81,-75.15,-991.13,297.50,-770.0,-446.25,1,94.386,
01/01/2000,01:42:30.85,12.93,-75.15,-991.37,87.50,-673.75,-332.50,1,94.391,
01/01/2000,01:42:30.86,13.05,-75.40,-991.25,148.75,-761.25,-306.25,1,94.396,
01/01/2000,01:42:30.87,13.18,-75.64,-991.13,157.50,-717.50,-288.75,1,94.401,
01/01/2000,01:42:30.88,13.18,-75.64,-991.13,105.0,-752.50,-463.75,1,94.406,
01/01/2000,01:42:30.89,13.18,-75.52,-991.13,227.50,-647.50,-472.50,1,94.328,
01/01/2000,01:42:30.90,13.05,-75.27,-991.37,218.75,-603.75,-201.25,1,94.333,
01/01/2000,01:42:30.91,13.05,-75.03,-991.49,-183.75,-691.25,-245.0,1,94.338,
01/01/2000,01:42:30.92,13.05,-75.40,-991.37,297.50,-700.0,-245.0,1,94.343,
01/01/2000,01:42:30.94,13.05,-75.64,-991.13,175.0,-656.25,-288.75,1,94.348,
01/01/2000,01:42:30.95,13.18,-75.64,-991.13,253.75,-761.25,-411.25,1,94.353,
01/01/2000,01:42:30.96,13.18,-75.64,-991.01,122.50,-691.25,-446.25,1,94.358,
01/01/2000,01:42:30.97,13.30,-75.40,-991.13,227.50,-857.50,-297.50,1,94.363,
01/01/2000,01:42:30.98,13.18,-75.52,-991.37,210.0,-656.25,-315.0,1,94.367,
01/01/2000,01:42:30.99,13.05,-75.64,-991.13,70.0,-638.75,-236.25,1,94.372,
01/01/2000,01:42:31.00,13.05,-75.76,-991.13,105.0,-735.0,-210.0,1,94.377,
01/01/2000,01:42:31.01,13.30,-75.88,-990.76,192.50,-726.25,-428.75,1,94.382,
01/01/2000,01:42:31.02,13.30,-75.64,-990.88,192.50,-752.50,-385.0,1,94.387,
01/01/2000,01:42:31.03,13.30,-75.40,-991.13,227.50,-647.50,-393.75,1,94.392,
01/01/2000,01:42:31.04,13.30,-75.40,-991.37,227.50,-708.75,-280.0,1,94.397,
01/01/2000,01:42:31.05,13.30,-75.40,-991.49,8.75,-700.0,-306.25,1,94.401,
01/01/2000,01:42:31.06,13.30,-75.40,-991.25,113.75,-700.0,-341.25,1,94.406,
01/01/2000,01:42:31.07,13.30,-75.52,-990.88,192.50,-638.75,-385.0,1,94.411,
01/01/2000,01:42:31.08,13.30,-75.64,-990.64,131.25,-717.50,-271.25,1,94.335,
01/01/2000,01:42:31.09,13.30,-75.52,-990.88,236.25,-770.0,-367.50,1,94.340,
01/01/2000,01:42:31.10,13.30,-75.52,-991.13,148.75,-621.25,-245.0,1,94.344,
01/01/2000,01:42:31.11,13.30,-75.15,-991.25,210.0,-700.0,-437.50,1,94.349,
01/01/2000,01:42:31.12,13.30,-75.40,-991.37,183.75,-595.0,-358.75,1,94.354,
01/01/2000,01:42:31.13,13.42,-75.52,-991.25,306.25,-735.0,-271.25,1,94.359,
01/01/2000,01:42:31.15,13.54,-75.40,-991.01,78.75,-778.75,-262.50,1,94.364,
01/01/2000,01:42:31.16,13.42,-75.27,-991.13,306.25,-638.75,-411.25,1,94.369,
01/01/2000,01:42:31.17,13.42,-75.40,-991.13,227.50,-656.25,-210.0,1,94.373,
01/01/2000,01:42:31.18,13.42,-75.40,-991.13,87.50,-630.0,-367.50,1,94.378,
01/01/2000,01:42:31.19,13.30,-75.52,-991.25,210.0,-638.75,-516.25,1,94.303,
01/01/2000,01:42:31.20,13.54,-75.64,-991.37,140.0,-691.25,-472.50,1,94.308,
01/01/2000,01:42:31.21,13.79,-75.40,-991.49,96.25,-673.75,-402.50,1,94.312,
01/01/2000,01:42:31.22,13.66,-75.64,-991.62,105.0,-770.0,-358.75,1,94.317,
01/01/2000,01:42:31.23,13.42,-75.52,-991.49,210.0,-638.75,-332.50,1,94.322,
01/01/2000,01:42:31.24,13.54,-75.52,-991.25,297.50,-630.0,-385.0,1,94.327,
01/01/2000,01:42:31.25,13.54,-75.40,-991.25,96.25,-708.75,-393.75,1,94.332,
01/01/2000,01:42:31.27,13.42,-75.40,-991.37,96.25,-778.75,-253.75,1,94.336,
01/01/2000,01:42:31.27,13.42,-75.40,-991.37,96.25,-682.50,-306.25,1,94.341,
01/01/2000,01:42:31.29,13.42,-75.76,-991.49,131.25,-717.50,-332.50,1,94.346,
01/01/2000,01:42:31.30,13.54,-75.64,-991.37,306.25,-647.50,-385.0,1,94.351,
01/01/2000,01:42:31.31,13.66,-75.52,-991.37,262.50,-805.0,-367.50,1,94.356,
01/01/2000,01:42:31.32,13.54,-75.27,-991.37,201.25,-612.50,-350.0,1,94.360,
01/01/2000,01:42:31.33,13.66,-75.40,-991.37,140.0,-612.50,-402.50,1,94.365,
01/01/2000,01:42:31.34,13.54,-75.40,-991.37,105.0,-673.75,-210.0,1,94.370,
01/01/2000,01:42:31.35,13.42,-75.52,-991.37,315.0,-595.0,-332.50,1,94.374,
01/01/2000,01:42:31.36,13.42,-75.52,-991.13,236.25,-682.50,-350.0,1,94.379,
01/01/2000,01:42:31.37,13.54,-75.52,-991.01,175.0,-691.25,-315.0,1,94.384,
01/01/2000,01:42:31.38,13.66,-75.64,-991.01,210.0,-717.50,-297.50,1,94.389,
01/01/2000,01:42:31.39,13.54,-75.64,-991.13,148.75,-700.0,-341.25,1,94.393,
01/01/2000,01:42:31.40,13.66,-75.40,-991.13,78.75,-638.75,-280.0,1,94.398,
01/01/2000,01:42:31.41,13.30,-75.52,-991.13,271.25,-708.75,-341.25,1,94.403,
01/01/2000,01:42:31.42,13.42,-75.40,-991.01,-26.25,-621.25,-367.50,1,94.407,
01/01/2000,01:42:31.43,13.42,-75.52,-990.76,122.50,-708.75,-332.50,1,94.333,
01/01/2000,01:42:31.44,13.30,-75.52,-990.88,140.0,-586.25,-385.0,1,94.338,
01/01/2000,01:42:31.45,13.18,-75.40,-990.88,122.50,-621.25,-297.50,1,94.343,
01/01/2000,01:42:31.46,13.05,-75.03,-991.13,70.0,-770.0,-245.0,1,94.347,
01/01/2000,01:42:31.48,13.05,-75.27,-991.25,201.25,-665.0,-288.75,1,94.352,
01/01/2000,01:42:31.48,13.05,-75.15,-991.25,140.0,-586.25,-315.0,1,94.357,
01/01/2000,01:42:31.50,13.18,-75.40,-991.13,87.50,-682.50,-315.0,1,94.362,
01/01/2000,01:42:31.51,13.18,-75.76,-991.37,271.25,-691.25,-411.25,1,94.366,
01/01/2000,01:42:31.52,13.05,-75.52,-991.37,236.25,-560.0,-332.50,1,94.371,
01/01/2000,01:42:31.53,12.93,-75.15,-991.13,35.0,-726.25,-332.50,1,94.376,
01/01/2000,01:42:31.54,12.81,-75.40,-991.01,350.0,-647.50,-245.0,1,94.380,
01/01/2000,01:42:31.55,12.93,-75.40,-991.13,70.0,-708.75,-323.75,1,94.385,
01/01/2000,01:42:31.56,13.05,-75.64,-991.13,253.75,-673.75,-481.25,1,94.389,
01/01/2000,01:42:31.57,13.42,-75.76,-991.25,192.50,-735.0,-297.50,1,94.316,
01/01/2000,01:42:31.58,13.54,-75.52,-991.13,113.75,-647.50,-472.50,1,94.321,
01/01/2000,01:42:31.59,13.30,-75.40,-991.13,52.50,-691.25,-288.75,1,94.326,
01/01/2000,01:42:31.60,13.30,-75.40,-991.25,78.75,-726.25,-358.75,1,94.330,
01/01/2000,01:42:31.61,13.18,-75.52,-991.25,166.25,-831.25,-367.50,1,94.335,
01/01/2000,01:42:31.62,13.18,-75.40,-991.25,105.0,-691.25,-297.50,1,94.340,
01/01/2000,01:42:31.63,13.42,-75.76,-991.13,402.50,-577.50,-490.0,1,94.344,
01/01/2000,01:42:31.65,13.42,-75.88,-991.13,175.0,-673.75,-385.0,1,94.349,
01/01/2000,01:42:31.66,13.42,-75.88,-991.13,131.25,-743.75,-192.50,1,94.354,
01/01/2000,01:42:31.67,13.18,-75.64,-991.37,227.50,-656.25,-350.0,1,94.358,
01/01/2000,01:42:31.68,13.18,-75.64,-991.37,236.25,-665.0,-428.75,1,94.363,
01/01/2000,01:42:31.69,13.30,-75.88,-991.37,140.0,-621.25,-376.25,1,94.367,
01/01/2000,01:42:31.70,13.42,-75.88,-991.37,96.25,-717.50,-341.25,1,94.372,
01/01/2000,01:42:31.71,13.54,-75.88,-991.25,157.50,-717.50,-271.25,1,94.300,
01/01/2000,01:42:31.72,13.30,-75.76,-991.13,87.50,-743.75,-358.75,1,94.304,
01/01/2000,01:42:31.73,13.30,-75.64,-991.13,122.50,-638.75,-245.0,1,94.309,
01/01/2000,01:42:31.74,13.30,-75.40,-991.13,43.75,-726.25,-472.50,1,94.314,
01/01/2000,01:42:31.75,13.18,-75.40,-991.13,157.50,-743.75,-183.75,1,94.318,
01/01/2000,01:42:31.76,13.42,-75.52,-991.13,201.25,-665.0,-306.25,1,94.323,
01/01/2000,01:42:31.77,13.42,-75.52,-991.13,87.50,-770.0,-341.25,1,94.327,
01/01/2000,01:42:31.79,13.54,-75.76,-991.37,183.75,-682.50,-341.25,1,94.332,
01/01/2000,01:42:31.80,13.42,-75.64,-991.37,166.25,-770.0,-472.50,1,94.337,
01/01/2000,01:42:31.81,13.42,-75.27,-991.49,113.75,-735.0,-385.0,1,94.341,
01/01/2000,01:42:31.82,13.42,-75.40,-991.62,218.75,-638.75,-323.75,1,94.346,
01/01/2000,01:42:31.83,13.42,-75.40,-991.62,218.75,-630.0,-437.50,1,94.350,
01/01/2000,01:42:31.84,13.54,-75.64,-991.49,288.75,-796.25,-428.75,1,94.355,
01/01/2000,01:42:31.85,13.54,-75.76,-991.25,105.0,-735.0,-271.25,1,94.359,
01/01/2000,01:42:31.86,13.54,-75.76,-991.01,271.25,-638.75,-411.25,1,94.364,
01/01/2000,01:42:31.87,13.42,-75.40,-991.13,210.0,-717.50,-245.0,1,94.368,
01/01/2000,01:42:31.88,13.42,-75.15,-991.37,148.75,-778.75,-271.25,1,94.373,
01/01/2000,01:42:31.89,13.42,-75.27,-991.49,227.50,-656.25,-288.75,1,94.378,
01/01/2000,01:42:31.90,13.42,-75.27,-991.62,87.50,-577.50,-358.75,1,94.382,
01/01/2000,01:42:31.91,13.66,-75.88,-991.62,192.50,-673.75,-402.50,1,94.387,
01/01/2000,01:42:31.92,13.66,-75.64,-991.37,210.0,-726.25,-428.75,1,94.315,
01/01/2000,01:42:31.93,13.66,-75.52,-991.13,157.50,-831.25,-315.0,1,94.320,
01/01/2000,01:42:31.94,13.66,-75.40,-991.01,420.0,-708.75,-350.0,1,94.325,
01/01/2000,01:42:31.95,13.30,-75.27,-991.13,87.50,-831.25,-367.50,1,94.329,
01/01/2000,01:42:31.96,13.42,-75.40,-991.37,210.0,-647.50,-402.50,1,94.334,
01/01/2000,01:42:31.97,13.42,-75.64,-991.49,201.25,-673.75,-306.25,1,94.338,
01/01/2000,01:42:31.98,13.42,-75.76,-991.62,96.25,-743.75,-428.75,1,94.343,
01/01/2000,01:42:32.00,13.66,-75.76,-991.62,140.0,-700.0,-358.75,1,94.347,
01/01/2000,01:42:32.01,13.66,-75.40,-991.37,288.75,-743.75,-271.25,1,94.352,
01/01/2000,01:42:32.02,13.42,-75.15,-991.13,376.25,-665.0,-315.0,1,94.356,
01/01/2000,01:42:32.03,13.18,-75.15,-991.13,105.0,-656.25,-376.25,1,94.361,
01/01/2000,01:42:32.04,13.18,-75.27,-991.37,96.25,-691.25,-271.25,1,94.365,
01/01/2000,01:42:32.05,13.42,-75.40,-991.37,140.0,-673.75,-367.50,1,94.370,
01/01/2000,01:42:32.06,13.30,-75.52,-991.37,140.0,-708.75,-376.25,1,94.374,
01/01/2000,01:42:32.07,13.42,-75.64,-991.37,210.0,-656.25,-420.0,1,94.378,
01/01/2000,01:42:32.08,13.42,-75.52,-991.13,253.75,-700.0,-402.50,1,94.383,
01/01/2000,01:42:32.09,13.42,-75.40,-991.13,148.75,-673.75,-245.0,1,94.387,
01/01/2000,01:42:32.10,13.42,-75.15,-991.25,183.75,-708.75,-393.75,1,94.392,
01/01/2000,01:42:32.11,13.42,-75.27,-991.25,236.25,-700.0,-201.25,1,94.322,
01/01/2000,01:42:32.12,13.30,-75.40,-991.25,96.25,-691.25,-402.50,1,94.401,
01/01/2000,01:42:32.14,13.42,-75.64,-991.25,96.25,-665.0,-358.75,1,94.331,
01/01/2000,01:42:32.15,13.30,-75.64,-991.25,218.75,-708.75,-341.25,1,94.335,
01/01/2000,01:42:32.16,13.18,-75.64,-991.25,35.0,-717.50,-367.50,1,94.340,
01/01/2000,01:42:32.17,13.18,-75.40,-991.37,148.75,-735.0,-315.0,1,94.344,
01/01/2000,01:42:32.18,13.18,-75.15,-991.37,96.25,-595.0,-218.75,1,94.349,
01/01/2000,01:42:32.19,13.18,-75.15,-991.37,43.75,-586.25,-393.75,1,94.353,
01/01/2000,01:42:32.20,13.30,-75.40,-991.37,52.50,-831.25,-341.25,1,94.357,
01/01/2000,01:42:32.21,13.30,-75.64,-991.37,148.75,-638.75,-358.75,1,94.288,
01/01/2000,01:42:32.23,13.42,-75.64,-991.37,192.50,-761.25,-341.25,1,94.292,
01/01/2000,01:42:32.24,13.30,-75.40,-991.62,87.50,-717.50,-280.0,1,94.297,
01/01/2000,01:42:32.25,13.42,-75.27,-991.49,245.0,-586.25,-393.75,1,94.301,
01/01/2000,01:42:32.26,13.42,-75.40,-991.49,166.25,-717.50,-306.25,1,94.306,
01/01/2000,01:42:32.27,13.42,-75.40,-991.49,87.50,-647.50,-271.25,1,94.310,
01/01/2000,01:42:32.28,13.30,-75.64,-991.37,192.50,-691.25,-376.25,1,94.315,
01/01/2000,01:42:32.29,13.30,-75.64,-991.25,166.25,-726.25,-288.75,1,94.319,
01/01/2000,01:42:32.30,13.42,-75.76,-991.25,166.25,-638.75,-411.25,1,94.323,
01/01/2000,01:42:32.31,13.42,-75.52,-991.37,245.0,-717.50,-323.75,1,94.328,
01/01/2000,01:42:32.32,13.54,-75.40,-991.62,210.0,-673.75,-227.50,1,94.332,
01/01/2000,01:42:32.33,13.42,-75.40,-991.49,201.25,-673.75,-358.75,1,94.337,
01/01/2000,01:42:32.34,13.54,-75.40,-991.49,-43.75,-603.75,-288.75,1,94.341,
01/01/2000,01:42:32.35,13.54,-75.52,-991.25,52.50,-682.50,-411.25,1,94.345,
01/01/2000,01:42:32.36,13.54,-75.52,-991.37,280.0,-673.75,-420.0,1,94.350,
01/01/2000,01:42:32.37,13.54,-75.40,-991.49,-8.75,-691.25,-393.75,1,94.354,
01/01/2000,01:42:32.38,13.42,-75.40,-991.49,253.75,-682.50,-315.0,1,94.359,
01/01/2000,01:42:32.39,13.30,-75.15,-991.37,148.75,-752.50,-332.50,1,94.363,
01/01/2000,01:42:32.40,13.30,-75.15,-991.37,131.25,-700.0,-358.75,1,94.367,
01/01/2000,01:42:32.41,13.42,-75.15,-991.25,183.75,-726.25,-472.50,1,94.372,
01/01/2000,01:42:32.42,13.42,-75.27,-991.13,218.75,-778.75,-358.75,1,94.376,
01/01/2000,01:42:32.43,13.42,-75.40,-991.13,192.50,-700.0,-358.75,1,94.380,
01/01/2000,01:42:32.44,13.30,-75.40,-991.13,166.25,-752.50,-367.50,1,94.385,
01/01/2000,01:42:32.45,13.30,-75.40,-991.37,210.0,-700.0,-358.75,1,94.389,
01/01/2000,01:42:32.46,13.30,-75.27,-991.37,175.0,-691.25,-463.75,1,94.393,
01/01/2000,01:42:32.47,13.30,-75.52,-991.37,140.0,-743.75,-385.0,1,94.398,
01/01/2000,01:42:32.49,13.30,-75.40,-991.37,218.75,-665.0,-376.25,1,94.329,
01/01/2000,01:42:32.50,13.18,-75.27,-991.37,227.50,-638.75,-446.25,1,94.334,
01/01/2000,01:42:32.51,13.18,-75.40,-991.37,218.75,-621.25,-498.75,1,94.338,
01/01/2000,01:42:32.52,13.18,-75.40,-991.49,271.25,-673.75,-236.25,1,94.343,
01/01/2000,01:42:32.53,13.18,-75.52,-991.37,192.50,-638.75,-446.25,1,94.347,
01/01/2000,01:42:32.54,13.05,-75.40,-991.37,131.25,-708.75,-306.25,1,94.351,
01/01/2000,01:42:32.55,13.18,-75.52,-991.37,350.0,-717.50,-498.75,1,94.355,
01/01/2000,01:42:32.56,13.18,-75.52,-991.37,201.25,-682.50,-358.75,1,94.360,
01/01/2000,01:42:32.57,13.42,-75.64,-991.37,245.0,-708.75,-288.75,1,94.364,
01/01/2000,01:42:32.58,13.30,-75.64,-991.37,175.0,-647.50,-332.50,1,94.368,
01/01/2000,01:42:32.59,13.30,-75.64,-991.37,96.25,-708.75,-402.50,1,94.373,
01/01/2000,01:42:32.60,13.30,-75.52,-991.25,131.25,-691.25,-358.75,1,94.377,
01/01/2000,01:42:32.61,13.30,-75.40,-991.13,140.0,-586.25,-376.25,1,94.310,
01/01/2000,01:42:32.62,13.30,-75.64,-991.25,175.0,-656.25,-315.0,1,94.385,
01/01/2000,01:42:32.64,13.30,-75.88,-991.37,105.0,-761.25,-341.25,1,94.318,
01/01/2000,01:42:32.65,13.18,-75.64,-991.25,175.0,-621.25,-271.25,1,94.322,
01/01/2000,01:42:32.66,13.30,-75.52,-991.13,245.0,-708.75,-393.75,1,94.327,
01/01/2000,01:42:32.67,13.30,-75.52,-991.01,201.25,-691.25,-271.25,1,94.331,
01/01/2000,01:42:32.68,13.42,-75.40,-991.13,183.75,-691.25,-288.75,1,94.335,
01/01/2000,01:42:32.69,13.42,-75.40,-991.37,192.50,-630.0,-236.25,1,94.340,
01/01/2000,01:42:32.70,13.30,-75.52,-991.25,210.0,-691.25,-262.50,1,94.344,
01/01/2000,01:42:32.71,13.30,-75.40,-991.25,35.0,-726.25,-367.50,1,94.348,
01/01/2000,01:42:32.72,13.30,-75.40,-990.88,297.50,-647.50,-297.50,1,94.281,
01/01/2000,01:42:32.73,13.54,-75.40,-990.88,288.75,-621.25,-297.50,1,94.286,
01/01/2000,01:42:32.75,13.54,-75.40,-991.13,105.0,-787.50,-385.0,1,94.290,
01/01/2000,01:42:32.76,13.54,-75.40,-991.25,297.50,-813.75,-481.25,1,94.294,
01/01/2000,01:42:32.77,13.42,-75.64,-991.37,78.75,-708.75,-446.25,1,94.299,
01/01/2000,01:42:32.78,13.54,-75.52,-991.25,140.0,-665.0,-411.25,1,94.303,
01/01/2000,01:42:32.79,13.42,-75.40,-991.37,61.25,-647.50,-271.25,1,94.307,
01/01/2000,01:42:32.80,13.66,-75.40,-991.37,122.50,-700.0,-341.25,1,94.311,
01/01/2000,01:42:32.81,13.66,-75.52,-991.37,262.50,-778.75,-472.50,1,94.316,
01/01/2000,01:42:32.82,13.30,-75.64,-991.37,78.75,-638.75,-420.0,1,94.320,
01/01/2000,01:42:32.83,13.18,-75.64,-991.13,122.50,-682.50,-428.75,1,94.324,
01/01/2000,01:42:32.84,13.42,-75.40,-991.13,148.75,-735.0,-253.75,1,94.328,
01/01/2000,01:42:32.85,13.30,-75.15,-991.13,52.50,-700.0,-271.25,1,94.333,
01/01/2000,01:42:32.86,13.42,-75.52,-991.13,218.75,-708.75,-332.50,1,94.337,
01/01/2000,01:42:32.87,13.30,-75.64,-991.13,113.75,-726.25,-358.75,1,94.341,
01/01/2000,01:42:32.88,13.18,-75.64,-991.25,253.75,-743.75,-428.75,1,94.345,
01/01/2000,01:42:32.89,13.42,-75.52,-991.37,43.75,-752.50,-385.0,1,94.349,
01/01/2000,01:42:32.90,13.42,-75.27,-991.25,157.50,-621.25,-358.75,1,94.354,
01/01/2000,01:42:32.91,13.18,-75.15,-991.13,192.50,-805.0,-297.50,1,94.288,
01/01/2000,01:42:32.92,13.18,-75.15,-991.13,210.0,-630.0,-332.50,1,94.292,
01/01/2000,01:42:32.93,13.18,-75.40,-991.13,323.75,-665.0,-323.75,1,94.296,
01/01/2000,01:42:32.94,13.30,-75.40,-991.37,131.25,-647.50,-315.0,1,94.301,
01/01/2000,01:42:32.95,13.42,-75.40,-991.37,96.25,-542.50,-341.25,1,94.305,
01/01/2000,01:42:32.96,13.42,-75.52,-991.37,140.0,-682.50,-446.25,1,94.309,
01/01/2000,01:42:32.97,13.18,-75.27,-991.37,148.75,-647.50,-420.0,1,94.313,
01/01/2000,01:42:32.99,13.18,-75.40,-991.49,-105.0,-682.50,-315.0,1,94.317,
01/01/2000,01:42:33.00,13.30,-75.52,-991.49,262.50,-743.75,-376.25,1,94.322,
01/01/2000,01:42:33.01,13.30,-75.64,-991.37,148.75,-665.0,-332.50,1,94.326,
01/01/2000,01:42:33.02,13.30,-75.76,-991.25,140.0,-656.25,-367.50,1,94.330,
01/01/2000,01:42:33.03,13.18,-75.88,-991.25,140.0,-761.25,-332.50,1,94.334,
01/01/2000,01:42:33.04,13.30,-75.88,-991.25,210.0,-796.25,-490.0,1,94.338,
01/01/2000,01:42:33.05,13.30,-75.88,-991.37,210.0,-761.25,-157.50,1,94.342,
01/01/2000,01:42:33.06,13.42,-75.64,-991.37,35.0,-778.75,-306.25,1,94.347,
01/01/2000,01:42:33.07,13.42,-75.88,-991.37,271.25,-691.25,-376.25,1,94.351,
01/01/2000,01:42:33.08,13.42,-75.76,-991.37,78.75,-630.0,-280.0,1,94.355,
01/01/2000,01:42:33.09,13.42,-76.01,-991.37,218.75,-752.50,-358.75,1,94.359,
01/01/2000,01:42:33.10,13.30,-75.76,-991.25,61.25,-813.75,-306.25,1,94.363,
01/01/2000,01:42:33.11,13.42,-75.52,-991.37,227.50,-595.0,-245.0,1,94.367,
01/01/2000,01:42:33.12,13.30,-75.27,-991.37,26.25,-691.25,-227.50,1,94.302,
01/01/2000,01:42:33.13,13.42,-75.64,-991.37,332.50,-577.50,-428.75,1,94.307,
01/01/2000,01:42:33.14,13.42,-75.64,-991.37,113.75,-621.25,-280.0,1,94.311,
01/01/2000,01:42:33.15,13.42,-75.76,-991.25,315.0,-647.50,-411.25,1,94.315,
01/01/2000,01:42:33.17,13.42,-75.64,-991.13,280.0,-708.75,-271.25,1,94.319,
01/01/2000,01:42:33.17,13.18,-75.40,-991.01,183.75,-630.0,-507.50,1,94.323,
01/01/2000,01:42:33.19,13.18,-75.15,-991.01,70.0,-708.75,-288.75,1,94.327,
01/01/2000,01:42:33.20,13.30,-75.40,-991.01,306.25,-665.0,-411.25,1,94.331,
01/01/2000,01:42:33.21,13.42,-75.40,-991.13,87.50,-665.0,-376.25,1,94.336,
01/01/2000,01:42:33.22,13.54,-75.64,-991.13,105.0,-700.0,-516.25,1,94.340,
01/01/2000,01:42:33.24,13.54,-75.52,-990.88,227.50,-787.50,-402.50,1,94.275,
01/01/2000,01:42:33.25,13.54,-75.27,-991.01,122.50,-752.50,-262.50,1,94.280,
01/01/2000,01:42:33.26,13.42,-75.15,-991.13,122.50,-621.25,-323.75,1,94.284,
01/01/2000,01:42:33.27,13.42,-75.27,-991.01,140.0,-717.50,-297.50,1,94.288,
01/01/2000,01:42:33.28,13.42,-75.52,-991.01,166.25,-568.75,-376.25,1,94.292,
01/01/2000,01:42:33.29,13.42,-75.40,-991.25,-8.75,-665.0,-297.50,1,94.296,
01/01/2000,01:42:33.30,13.42,-75.40,-991.13,140.0,-717.50,-315.0,1,94.300,
01/01/2000,01:42:33.31,13.18,-75.15,-991.13,61.25,-638.75,-358.75,1,94.304,
01/01/2000,01:42:33.32,13.18,-75.40,-991.13,113.75,-700.0,-358.75,1,94.308,
01/01/2000,01:42:33.33,13.05,-75.40,-991.13,131.25,-717.50,-288.75,1,94.312,
01/01/2000,01:42:33.34,13.05,-75.27,-991.25,148.75,-612.50,-411.25,1,94.317,
01/01/2000,01:42:33.35,13.18,-75.40,-991.25,227.50,-717.50,-350.0,1,94.321,
01/01/2000,01:42:33.36,13.18,-75.27,-991.25,140.0,-743.75,-262.50,1,94.325,
01/01/2000,01:42:33.37,13.30,-75.15,-991.37,140.0,-638.75,-253.75,1,94.329,
01/01/2000,01:42:33.38,13.30,-75.40,-991.37,183.75,-770.0,-376.25,1,94.333,
01/01/2000,01:42:33.39,13.30,-75.40,-991.62,8.75,-691.25,-262.50,1,94.337,
01/01/2000,01:42:33.40,13.30,-75.27,-991.86,78.75,-752.50,-245.0,1,94.341,
01/01/2000,01:42:33.41,13.30,-75.15,-991.86,78.75,-691.25,-140.0,1,94.278,
01/01/2000,01:42:33.42,13.30,-75.40,-991.74,367.50,-691.25,-428.75,1,94.349,
01/01/2000,01:42:33.43,13.30,-75.40,-991.62,96.25,-612.50,-376.25,1,94.286,
01/01/2000,01:42:33.44,13.42,-75.27,-991.37,113.75,-708.75,-420.0,1,94.290,
01/01/2000,01:42:33.45,13.42,-75.40,-991.37,61.25,-726.25,-271.25,1,94.294,
01/01/2000,01:42:33.46,13.42,-75.15,-991.37,140.0,-647.50,-350.0,1,94.298,
01/01/2000,01:42:33.48,13.42,-75.15,-991.62,166.25,-665.0,-297.50,1,94.302,
01/01/2000,01:42:33.49,13.42,-75.40,-991.37,280.0,-638.75,-306.25,1,94.306,
01/01/2000,01:42:33.50,13.42,-75.40,-991.37,245.0,-700.0,-437.50,1,94.310,
01/01/2000,01:42:33.51,13.42,-75.40,-991.25,96.25,-787.50,-245.0,1,94.314,
01/01/2000,01:42:33.52,13.54,-75.52,-991.37,210.0,-743.75,-385.0,1,94.318,
01/01/2000,01:42:33.53,13.30,-75.52,-991.37,87.50,-665.0,-315.0,1,94.322,
01/01/2000,01:42:33.54,13.30,-75.64,-991.37,70.0,-700.0,-367.50,1,94.326,
01/01/2000,01:42:33.55,13.30,-75.40,-991.37,122.50,-647.50,-323.75,1,94.330,
01/01/2000,01:42:33.56,13.30,-75.76,-991.25,140.0,-717.50,-315.0,1,94.334,
01/01/2000,01:42:33.57,13.18,-75.64,-991.37,96.25,-630.0,-288.75,1,94.338,
01/01/2000,01:42:33.58,13.18,-75.76,-991.37,17.50,-682.50,-332.50,1,94.342,
01/01/2000,01:42:33.59,13.18,-75.52,-991.49,236.25,-752.50,-525.0,1,94.346,
01/01/2000,01:42:33.60,13.05,-75.52,-991.37,297.50,-752.50,-393.75,1,94.350,
01/01/2000,01:42:33.61,13.05,-75.40,-991.49,87.50,-700.0,-332.50,1,94.354,
01/01/2000,01:42:33.62,13.30,-75.40,-991.37,201.25,-708.75,-341.25,1,94.292,
01/01/2000,01:42:33.63,13.30,-75.64,-991.37,201.25,-656.25,-455.0,1,94.296,
01/01/2000,01:42:33.64,13.30,-75.52,-991.25,122.50,-761.25,-420.0,1,94.300,
01/01/2000,01:42:33.65,13.18,-75.52,-991.13,122.50,-796.25,-227.50,1,94.304,
01/01/2000,01:42:33.66,13.18,-75.40,-991.13,175.0,-717.50,-411.25,1,94.308,
01/01/2000,01:42:33.67,12.93,-75.27,-991.13,78.75,-717.50,-271.25,1,94.312,
01/01/2000,01:42:33.68,12.93,-75.15,-991.25,367.50,-673.75,-358.75,1,94.316,
01/01/2000,01:42:33.70,13.18,-75.40,-991.25,376.25,-673.75,-253.75,1,94.320,
01/01/2000,01:42:33.71,13.42,-75.40,-991.13,26.25,-630.0,-315.0,1,94.324,
01/01/2000,01:42:33.72,13.30,-75.64,-991.01,192.50,-542.50,-271.25,1,94.328,
01/01/2000,01:42:33.73,13.18,-75.52,-991.01,8.75,-708.75,-420.0,1,94.332,
01/01/2000,01:42:33.74,13.18,-75.40,-991.37,262.50,-673.75,-446.25,1,94.270,
01/01/2000,01:42:33.75,13.30,-75.40,-991.37,175.0,-638.75,-271.25,1,94.274,
01/01/2000,01:42:33.76,13.42,-75.40,-991.37,175.0,-612.50,-315.0,1,94.278,
01/01/2000,01:42:33.77,13.30,-75.15,-991.25,87.50,-691.25,-332.50,1,94.282,
01/01/2000,01:42:33.79,13.30,-75.40,-991.13,148.75,-717.50,-306.25,1,94.286,
01/01/2000,01:42:33.79,13.42,-75.27,-991.37,148.75,-717.50,-376.25,1,94.290,
01/01/2000,01:42:33.81,13.42,-75.40,-991.49,52.50,-717.50,-358.75,1,94.294,
01/01/2000,01:42:33.81,13.42,-75.40,-991.49,166.25,-682.50,-385.0,1,94.298,
01/01/2000,01:42:33.83,13.42,-75.40,-991.37,236.25,-656.25,-376.25,1,94.302,
01/01/2000,01:42:33.84,13.30,-75.27,-991.37,26.25,-743.75,-306.25,1,94.306,
01/01/2000,01:42:33.85,13.42,-75.27,-991.37,201.25,-612.50,-315.0,1,94.310,
01/01/2000,01:42:33.86,13.42,-75.40,-991.49,350.0,-568.75,-385.0,1,94.313,
01/01/2000,01:42:33.87,13.42,-75.27,-991.62,140.0,-708.75,-367.50,1,94.317,
01/01/2000,01:42:33.88,13.30,-75.40,-991.37,78.75,-735.0,-385.0,1,94.321,
01/01/2000,01:42:33.89,13.42,-75.27,-991.13,61.25,-726.25,-253.75,1,94.325,
01/01/2000,01:42:33.90,13.30,-75.15,-991.13,122.50,-735.0,-420.0,1,94.329,
01/01/2000,01:42:33.91,13.30,-74.91,-991.13,280.0,-621.25,-262.50,1,94.333,
01/01/2000,01:42:33.92,13.18,-75.15,-991.25,288.75,-647.50,-332.50,1,94.337,
01/01/2000,01:42:33.93,13.30,-75.15,-991.37,122.50,-656.25,-481.25,1,94.341,
01/01/2000,01:42:33.94,13.30,-75.15,-991.37,140.0,-796.25,-367.50,1,94.345,
01/01/2000,01:42:33.95,13.42,-75.27,-991.37,-17.50,-752.50,-358.75,1,94.349,
01/01/2000,01:42:33.96,13.42,-75.27,-991.37,157.50,-630.0,-245.0,1,94.353,
01/01/2000,01:42:33.97,13.42,-75.40,-991.25,26.25,-682.50,-358.75,1,94.292,
01/01/2000,01:42:33.98,13.30,-75.64,-991.25,385.0,-708.75,-288.75,1,94.296,
01/01/2000,01:42:33.99,13.30,-75.40,-991.25,218.75,-708.75,-385.0,1,94.299,
01/01/2000,01:42:34.00,13.30,-75.40,-991.13,131.25,-726.25,-297.50,1,94.303,
01/01/2000,01:42:34.01,13.42,-75.40,-991.13,96.25,-743.75,-271.25,1,94.307,
01/01/2000,01:42:34.02,13.42,-75.52,-991.13,157.50,-612.50,-367.50,1,94.311,
01/01/2000,01:42:34.04,13.30,-75.40,-991.13,8.75,-708.75,-332.50,1,94.315,
01/01/2000,01:42:34.05,13.30,-75.40,-991.13,253.75,-726.25,-393.75,1,94.319,
01/01/2000,01:42:34.06,13.42,-75.40,-991.37,175.0,-682.50,-393.75,1,94.323,
01/01/2000,01:42:34.07,13.42,-75.40,-991.62,105.0,-630.0,-385.0,1,94.327,
01/01/2000,01:42:34.08,13.30,-75.64,-991.37,253.75,-726.25,-376.25,1,94.331,
01/01/2000,01:42:34.09,13.30,-75.52,-991.25,122.50,-638.75,-376.25,1,94.334,
01/01/2000,01:42:34.10,13.30,-75.40,-991.25,245.0,-691.25,-350.0,1,94.338,
01/01/2000,01:42:34.11,13.18,-75.64,-991.13,140.0,-787.50,-367.50,1,94.278,
01/01/2000,01:42:34.12,13.18,-75.64,-991.13,306.25,-700.0,-358.75,1,94.282,
01/01/2000,01:42:34.13,13.30,-75.64,-991.13,288.75,-726.25,-350.0,1,94.286,
01/01/2000,01:42:34.14,13.18,-75.64,-991.13,122.50,-630.0,-288.75,1,94.290,
01/01/2000,01:42:34.15,13.05,-75.52,-991.13,140.0,-717.50,-288.75,1,94.293,
01/01/2000,01:42:34.16,13.18,-75.40,-991.13,175.0,-813.75,-367.50,1,94.297,
01/01/2000,01:42:34.17,13.18,-75.40,-991.13,157.50,-770.0,-315.0,1,94.301,
01/01/2000,01:42:34.19,13.18,-75.40,-991.13,341.25,-682.50,-446.25,1,94.305,
01/01/2000,01:42:34.20,12.93,-75.40,-990.88,113.75,-673.75,-227.50,1,94.309,
01/01/2000,01:42:34.21,12.93,-75.76,-990.88,166.25,-673.75,-385.0,1,94.313,
01/01/2000,01:42:34.22,12.93,-75.40,-990.88,70.0,-735.0,-288.75,1,94.317,
01/01/2000,01:42:34.23,13.05,-75.64,-990.88,157.50,-726.25,-437.50,1,94.320,
01/01/2000,01:42:34.24,13.18,-75.40,-990.88,78.75,-691.25,-253.75,1,94.324,
01/01/2000,01:42:34.25,13.30,-75.52,-990.88,148.75,-630.0,-271.25,1,94.265,
01/01/2000,01:42:34.27,13.30,-75.52,-991.13,96.25,-656.25,-385.0,1,94.268,
01/01/2000,01:42:34.28,13.30,-75.40,-991.13,140.0,-708.75,-297.50,1,94.272,
01/01/2000,01:42:34.29,13.42,-75.40,-991.01,315.0,-735.0,-271.25,1,94.276,
01/01/2000,01:42:34.30,13.30,-75.40,-991.13,218.75,-813.75,-315.0,1,94.280,
01/01/2000,01:42:34.31,13.42,-75.64,-991.13,280.0,-665.0,-376.25,1,94.284,
01/01/2000,01:42:34.32,13.18,-75.52,-991.25,122.50,-752.50,-358.75,1,94.288,
01/01/2000,01:42:34.33,13.30,-75.76,-991.37,253.75,-656.25,-315.0,1,94.291,
01/01/2000,01:42:34.34,13.18,-75.40,-991.25,210.0,-770.0,-472.50,1,94.295,
01/01/2000,01:42:34.35,13.18,-75.52,-991.13,113.75,-691.25,-332.50,1,94.299,
01/01/2000,01:42:34.36,13.18,-75.40,-991.37,148.75,-752.50,-498.75,1,94.303,
01/01/2000,01:42:34.37,13.18,-75.40,-991.37,175.0,-708.75,-367.50,1,94.307,
01/01/2000,01:42:34.38,13.42,-75.52,-991.49,297.50,-743.75,-402.50,1,94.311,
01/01/2000,01:42:34.39,13.30,-75.40,-991.62,61.25,-665.0,-350.0,1,94.314,
01/01/2000,01:42:34.40,13.30,-75.27,-991.37,157.50,-682.50,-315.0,1,94.318,
01/01/2000,01:42:34.41,13.30,-75.15,-991.37,105.0,-673.75,-271.25,1,94.322,
01/01/2000,01:42:34.42,13.30,-75.40,-991.37,113.75,-673.75,-288.75,1,94.326,
01/01/2000,01:42:34.43,13.30,-75.40,-991.49,140.0,-700.0,-393.75,1,94.330,
01/01/2000,01:42:34.44,13.30,-75.64,-991.62,192.50,-752.50,-358.75,1,94.333,
01/01/2000,01:42:34.45,13.18,-75.40,-991.37,218.75,-673.75,-280.0,1,94.337,
01/01/2000,01:42:34.46,13.18,-75.27,-991.13,175.0,-691.25,-358.75,1,94.341,
01/01/2000,01:42:34.47,13.18,-75.15,-991.13,87.50,-603.75,-472.50,1,94.282,
01/01/2000,01:42:34.48,13.18,-75.40,-991.25,271.25,-665.0,-358.75,1,94.286,
01/01/2000,01:42:34.49,13.18,-75.40,-991.37,78.75,-638.75,-341.25,1,94.290,
01/01/2000,01:42:34.50,13.30,-75.64,-991.37,157.50,-761.25,-271.25,1,94.293,
01/01/2000,01:42:34.51,13.30,-75.64,-991.37,-43.75,-717.50,-306.25,1,94.297,
01/01/2000,01:42:34.52,13.42,-75.64,-991.37,122.50,-778.75,-227.50,1,94.301,
01/01/2000,01:42:34.54,13.42,-75.64,-991.37,245.0,-726.25,-455.0,1,94.305,
01/01/2000,01:42:34.55,13.18,-75.52,-991.49,78.75,-726.25,-367.50,1,94.308,
01/01/2000,01:42:34.56,13.18,-75.64,-991.37,52.50,-743.75,-455.0,1,94.312,
01/01/2000,01:42:34.57,13.18,-75.64,-991.25,113.75,-752.50,-420.0,1,94.316,
01/01/2000,01:42:34.58,13.30,-75.52,-991.37,183.75,-603.75,-341.25,1,94.320,
01/01/2000,01:42:34.59,13.30,-75.40,-991.37,43.75,-752.50,-192.50,1,94.323,
01/01/2000,01:42:34.60,13.18,-75.52,-991.37,105.0,-656.25,-288.75,1,94.327,
01/01/2000,01:42:34.61,13.05,-75.52,-991.37,122.50,-656.25,-437.50,1,94.331,
01/01/2000,01:42:34.62,13.18,-75.64,-991.25,262.50,-603.75,-446.25,1,94.335,
01/01/2000,01:42:34.63,13.18,-75.52,-991.37,87.50,-586.25,-341.25,1,94.338,
01/01/2000,01:42:34.64,13.30,-75.40,-991.25,288.75,-621.25,-376.25,1,94.280,
01/01/2000,01:42:34.65,13.42,-75.64,-991.25,113.75,-630.0,-323.75,1,94.346,
01/01/2000,01:42:34.66,13.18,-75.52,-991.37,78.75,-673.75,-306.25,1,94.288,
01/01/2000,01:42:34.67,13.18,-75.76,-991.25,227.50,-796.25,-350.0,1,94.291,
01/01/2000,01:42:34.69,13.05,-75.40,-991.13,105.0,-647.50,-323.75,1,94.295,
01/01/2000,01:42:34.70,13.18,-75.64,-991.13,210.0,-665.0,-332.50,1,94.299,
01/01/2000,01:42:34.71,13.05,-75.40,-991.13,26.25,-735.0,-402.50,1,94.303,
01/01/2000,01:42:34.72,13.05,-75.40,-991.25,183.75,-752.50,-253.75,1,94.306,
01/01/2000,01:42:34.73,12.93,-75.40,-991.37,323.75,-717.50,-341.25,1,94.310,
01/01/2000,01:42:34.74,13.05,-75.40,-991.49,105.0,-726.25,-280.0,1,94.314,
01/01/2000,01:42:34.75,13.18,-75.52,-991.37,105.0,-717.50,-271.25,1,94.317,
01/01/2000,01:42:34.76,13.18,-75.40,-991.13,70.0,-708.75,-367.50,1,94.260,
01/01/2000,01:42:34.77,13.18,-75.40,-991.25,157.50,-752.50,-428.75,1,94.263,
01/01/2000,01:42:34.78,13.18,-75.40,-991.37,210.0,-726.25,-245.0,1,94.267,
01/01/2000,01:42:34.79,13.18,-75.27,-991.37,227.50,-665.0,-358.75,1,94.271,
01/01/2000,01:42:34.80,13.18,-75.52,-991.25,140.0,-630.0,-463.75,1,94.275,
01/01/2000,01:42:34.81,13.05,-75.52,-991.25,201.25,-813.75,-428.75,1,94.278,
01/01/2000,01:42:34.83,13.30,-75.52,-991.37,131.25,-778.75,-297.50,1,94.282,
01/01/2000,01:42:34.84,13.30,-75.64,-991.49,183.75,-778.75,-367.50,1,94.286,
01/01/2000,01:42:34.85,13.18,-75.52,-991.37,52.50,-682.50,-253.75,1,94.289,
01/01/2000,01:42:34.86,13.18,-75.64,-991.37,201.25,-761.25,-350.0,1,94.293,
01/01/2000,01:42:34.87,13.18,-75.64,-991.49,17.50,-708.75,-367.50,1,94.297,
01/01/2000,01:42:34.88,13.18,-75.52,-991.49,192.50,-691.25,-393.75,1,94.301,
01/01/2000,01:42:34.89,13.18,-75.40,-991.62,122.50,-586.25,-280.0,1,94.304,
01/01/2000,01:42:34.90,13.30,-75.52,-991.62,131.25,-752.50,-332.50,1,94.308,
01/01/2000,01:42:34.91,13.05,-75.64,-991.62,131.25,-752.50,-227.50,1,94.312,
01/01/2000,01:42:34.92,13.18,-75.64,-991.62,105.0,-630.0,-411.25,1,94.315,
01/01/2000,01:42:34.93,13.30,-75.52,-991.62,175.0,-612.50,-332.50,1,94.319,
01/01/2000,01:42:34.94,13.42,-75.40,-991.62,175.0,-638.75,-262.50,1,94.323,
01/01/2000,01:42:34.95,13.30,-75.52,-991.49,166.25,-761.25,-376.25,1,94.326,
01/01/2000,01:42:34.96,13.18,-75.52,-991.62,140.0,-787.50,-271.25,1,94.330,
01/01/2000,01:42:34.97,13.30,-75.64,-991.49,183.75,-638.75,-367.50,1,94.334,
01/01/2000,01:42:34.98,13.42,-75.64,-991.62,253.75,-761.25,-271.25,1,94.337,
01/01/2000,01:42:34.99,13.30,-75.40,-991.62,288.75,-638.75,-297.50,1,94.341,
01/01/2000,01:42:35.00,13.18,-75.52,-991.62,183.75,-586.25,-341.25,1,94.344,
01/01/2000,01:42:35.01,13.30,-75.52,-991.62,280.0,-726.25,-253.75,1,94.348,
01/01/2000,01:42:35.02,13.18,-75.64,-991.62,253.75,-621.25,-323.75,1,94.352,
01/01/2000,01:42:35.03,13.18,-75.40,-991.62,175.0,-743.75,-428.75,1,94.295,
01/01/2000,01:42:35.04,13.18,-75.40,-991.62,78.75,-726.25,-350.0,1,94.299,
01/01/2000,01:42:35.05,13.18,-75.40,-991.62,87.50,-726.25,-236.25,1,94.302,
01/01/2000,01:42:35.06,13.18,-75.52,-991.37,262.50,-665.0,-358.75,1,94.306,
01/01/2000,01:42:35.07,13.18,-75.64,-991.37,17.50,-656.25,-420.0,1,94.309,
01/01/2000,01:42:35.08,13.05,-75.64,-991.37,96.25,-717.50,-306.25,1,94.313,
01/01/2000,01:42:35.10,13.30,-75.52,-991.62,-26.25,-726.25,-306.25,1,94.317,
01/01/2000,01:42:35.11,13.30,-75.64,-991.86,245.0,-656.25,-411.25,1,94.320,
01/01/2000,01:42:35.12,13.18,-75.40,-991.62,70.0,-761.25,-175.0,1,94.324,
01/01/2000,01:42:35.13,12.93,-75.52,-991.62,105.0,-586.25,-367.50,1,94.328,
01/01/2000,01:42:35.14,12.93,-75.76,-991.37,87.50,-770.0,-350.0,1,94.331,
01/01/2000,01:42:35.15,13.05,-75.64,-991.25,17.50,-726.25,-481.25,1,94.335,
01/01/2000,01:42:35.16,13.05,-75.64,-991.37,288.75,-735.0,-157.50,1,94.338,
01/01/2000,01:42:35.17,13.05,-75.88,-991.37,323.75,-805.0,-481.25,1,94.282,
01/01/2000,01:42:35.18,13.05,-75.76,-991.37,-52.50,-691.25,-262.50,1,94.286,
01/01/2000,01:42:35.19,13.05,-75.88,-991.37,78.75,-691.25,-306.25,1,94.289,
01/01/2000,01:42:35.20,13.05,-75.76,-991.13,148.75,-691.25,-446.25,1,94.293,
01/01/2000,01:42:35.21,13.30,-75.64,-991.25,113.75,-726.25,-271.25,1,94.297,
01/01/2000,01:42:35.22,13.18,-75.64,-991.13,122.50,-761.25,-297.50,1,94.300,
01/01/2000,01:42:35.23,13.05,-75.64,-991.13,148.75,-717.50,-271.25,1,94.304,
01/01/2000,01:42:35.25,13.18,-75.64,-991.37,96.25,-621.25,-350.0,1,94.307,
01/01/2000,01:42:35.26,13.18,-75.64,-991.37,297.50,-752.50,-306.25,1,94.311,
01/01/2000,01:42:35.27,13.30,-75.88,-991.25,253.75,-708.75,-481.25,1,94.315,
01/01/2000,01:42:35.28,13.30,-75.76,-991.13,157.50,-682.50,-376.25,1,94.318,
01/01/2000,01:42:35.29,13.18,-75.52,-991.13,61.25,-656.25,-271.25,1,94.322,
01/01/2000,01:42:35.30,13.42,-75.52,-991.25,192.50,-708.75,-472.50,1,94.266,
01/01/2000,01:42:35.31,13.42,-75.40,-991.25,-8.75,-638.75,-288.75,1,94.270,
01/01/2000,01:42:35.32,13.42,-75.40,-991.25,183.75,-691.25,-402.50,1,94.273,
01/01/2000,01:42:35.33,13.54,-75.64,-991.25,140.0,-656.25,-315.0,1,94.277,
01/01/2000,01:42:35.34,13.42,-75.52,-991.37,122.50,-682.50,-245.0,1,94.280,
01/01/2000,01:42:35.35,13.42,-75.40,-991.62,210.0,-752.50,-481.25,1,94.284,
01/01/2000,01:42:35.36,13.54,-75.40,-991.74,262.50,-726.25,-367.50,1,94.288,
01/01/2000,01:42:35.37,13.42,-75.15,-991.74,61.25,-691.25,-411.25,1,94.291,
01/01/2000,01:42:35.38,13.30,-75.15,-991.49,183.75,-691.25,-227.50,1,94.295,
01/01/2000,01:42:35.40,13.30,-75.40,-991.37,201.25,-700.0,-341.25,1,94.298,
01/01/2000,01:42:35.41,13.30,-75.40,-991.37,192.50,-673.75,-367.50,1,94.302,
01/01/2000,01:42:35.42,13.42,-75.64,-991.37,201.25,-743.75,-297.50,1,94.305,
01/01/2000,01:42:35.43,13.42,-75.52,-991.49,227.50,-603.75,-341.25,1,94.309,
01/01/2000,01:42:35.44,13.30,-75.15,-991.49,157.50,-621.25,-350.0,1,94.313,
01/01/2000,01:42:35.45,13.30,-75.27,-991.37,280.0,-787.50,-376.25,1,94.316,
01/01/2000,01:42:35.46,13.42,-75.15,-991.37,148.75,-700.0,-210.0,1,94.320,
01/01/2000,01:42:35.47,13.30,-75.27,-991.49,52.50,-656.25,-358.75,1,94.323,
01/01/2000,01:42:35.48,13.30,-75.52,-991.49,113.75,-595.0,-227.50,1,94.327,
01/01/2000,01:42:35.49,13.30,-75.40,-991.49,105.0,-682.50,-507.50,1,94.330,
01/01/2000,01:42:35.50,13.42,-75.52,-991.49,271.25,-761.25,-367.50,1,94.334,
01/01/2000,01:42:35.51,13.30,-75.40,-991.74,148.75,-778.75,-446.25,1,94.337,
01/01/2000,01:42:35.52,13.18,-75.52,-991.86,210.0,-673.75,-463.75,1,94.282,
01/01/2000,01:42:35.53,13.18,-75.40,-991.62,113.75,-691.25,-306.25,1,94.286,
01/01/2000,01:42:35.54,13.18,-75.40,-991.62,105.0,-717.50,-358.75,1,94.289,
01/01/2000,01:42:35.55,13.18,-75.52,-991.62,323.75,-665.0,-367.50,1,94.293,
01/01/2000,01:42:35.56,13.18,-75.52,-991.62,96.25,-822.50,-350.0,1,94.296,
01/01/2000,01:42:35.57,13.05,-75.52,-991.74,17.50,-743.75,-350.0,1,94.300,
01/01/2000,01:42:35.58,12.93,-75.64,-991.86,166.25,-595.0,-323.75,1,94.303,
01/01/2000,01:42:35.60,13.05,-75.52,-991.62,87.50,-682.50,-446.25,1,94.307,
01/01/2000,01:42:35.61,13.05,-75.52,-991.37,253.75,-630.0,-332.50,1,94.310,
01/01/2000,01:42:35.62,13.18,-75.40,-991.37,175.0,-778.75,-341.25,1,94.314,
01/01/2000,01:42:35.63,13.05,-75.40,-991.37,122.50,-717.50,-306.25,1,94.317,
01/01/2000,01:42:35.64,12.93,-75.52,-991.62,271.25,-586.25,-420.0,1,94.321,
01/01/2000,01:42:35.65,13.05,-75.64,-991.49,183.75,-700.0,-463.75,1,94.324,
01/01/2000,01:42:35.66,13.42,-75.52,-991.62,183.75,-770.0,-280.0,1,94.328,
01/01/2000,01:42:35.67,13.42,-75.40,-991.49,218.75,-691.25,-402.50,1,94.331,
01/01/2000,01:42:35.68,13.42,-75.76,-991.49,245.0,-516.25,-306.25,1,94.335,
01/01/2000,01:42:35.69,13.18,-75.40,-991.49,105.0,-638.75,-323.75,1,94.338,
01/01/2000,01:42:35.70,13.30,-75.40,-991.49,262.50,-761.25,-455.0,1,94.342,
01/01/2000,01:42:35.71,13.42,-75.40,-991.49,96.25,-717.50,-271.25,1,94.345,
01/01/2000,01:42:35.72,13.42,-75.15,-991.37,35.0,-700.0,-385.0,1,94.349,
01/01/2000,01:42:35.73,13.30,-75.15,-991.37,113.75,-770.0,-218.75,1,94.294,
01/01/2000,01:42:35.75,13.18,-75.52,-991.37,166.25,-577.50,-262.50,1,94.298,
01/01/2000,01:42:35.76,13.30,-75.64,-991.49,-26.25,-787.50,-437.50,1,94.301,
01/01/2000,01:42:35.77,13.30,-75.52,-991.49,262.50,-691.25,-367.50,1,94.305,
01/01/2000,01:42:35.78,13.18,-75.15,-991.49,87.50,-691.25,-227.50,1,94.308,
01/01/2000,01:42:35.79,13.18,-75.15,-991.62,61.25,-778.75,-350.0,1,94.312,
01/01/2000,01:42:35.80,13.18,-75.27,-991.62,192.50,-708.75,-411.25,1,94.315,
01/01/2000,01:42:35.81,14.03,-75.64,-991.74,70.0,-638.75,-831.25,1,94.319,
01/01/2000,01:42:35.82,15.98,-75.40,-992.23,218.75,-778.75,-1636.25,1,94.265,
01/01/2000,01:42:35.83,19.28,-75.03,-992.71,-157.50,-717.50,-980.0,1,94.268,
01/01/2000,01:42:35.84,20.13,-76.01,-992.10,8.75,-726.25,-463.75,1,94.272,
01/01/2000,01:42:35.85,19.52,-76.13,-990.88,218.75,-787.50,-892.50,1,94.275,
01/01/2000,01:42:35.86,17.81,-76.25,-990.27,105.0,-901.25,-1671.25,1,94.279,
01/01/2000,01:42:35.87,15.13,-76.13,-990.64,218.75,-883.75,-2817.50,1,94.282,
01/01/2000,01:42:35.88,13.91,-75.15,-991.37,306.25,-708.75,-2730.0,1,94.286,
01/01/2000,01:42:35.89,13.66,-74.42,-991.98,131.25,-796.25,-2721.25,1,94.289,
01/01/2000,01:42:35.90,14.76,-74.42,-991.74,183.75,-700.0,-3491.25,1,94.293,
01/01/2000,01:42:35.91,17.32,-75.15,-990.64,201.25,-857.50,-4532.50,1,94.296,
01/01/2000,01:42:35.92,19.64,-76.01,-990.15,218.75,-997.50,-5880.0,1,94.300,
01/01/2000,01:42:35.93,21.72,-76.62,-990.03,122.50,-1058.75,-7315.0,1,94.303,
01/01/2000,01:42:35.95,23.30,-76.13,-990.88,166.25,-1102.50,-8137.50,1,94.306,
01/01/2000,01:42:35.96,23.06,-75.76,-991.62,253.75,-1155.0,-8286.25,1,94.310,
01/01/2000,01:42:35.97,22.08,-75.40,-992.23,122.50,-1102.50,-8426.25,1,94.313,
01/01/2000,01:42:35.98,20.74,-75.15,-992.35,52.50,-997.50,-9852.50,1,94.317,
01/01/2000,01:42:35.99,19.28,-75.64,-991.86,43.75,-1163.75,-12110.0,1,94.320,
01/01/2000,01:42:36.00,17.57,-76.13,-990.88,131.25,-1435.0,-15636.25,1,94.324,
01/01/2000,01:42:36.01,17.08,-76.37,-989.79,131.25,-1706.25,-22102.50,1,94.327,
01/01/2000,01:42:36.02,17.08,-76.49,-989.79,227.50,-1933.75,-26985.0,1,94.331,
01/01/2000,01:42:36.03,17.81,-76.25,-990.40,201.25,-2143.75,-31456.25,1,94.334,
01/01/2000,01:42:36.04,18.18,-75.88,-991.01,78.75,-2143.75,-31876.25,1,94.337,
01/01/2000,01:42:36.05,18.54,-75.76,-991.74,367.50,-1715.0,-25348.75,1,94.341,
01/01/2000,01:42:36.06,18.30,-75.52,-992.10,122.50,-1426.25,-14927.50,1,94.344,
01/01/2000,01:42:36.07,17.93,-75.03,-992.10,183.75,-927.50,-5608.75,1,94.348,
01/01/2000,01:42:36.08,16.84,-74.66,-991.49,332.50,-743.75,-1400.0,1,94.294,
01/01/2000,01:42:36.09,15.86,-74.66,-991.13,280.0,-1006.25,-6177.50,1,94.298,
01/01/2000,01:42:36.10,15.13,-75.27,-991.25,262.50,-1146.25,-10290.0,1,94.301,
01/01/2000,01:42:36.11,14.64,-76.01,-991.37,341.25,-1330.0,-14393.75,1,94.305,
01/01/2000,01:42:36.12,14.52,-76.13,-991.49,26.25,-1557.50,-17307.50,1,94.308,
01/01/2000,01:42:36.13,14.64,-76.01,-991.49,157.50,-1566.25,-19197.50,1,94.311,
01/01/2000,01:42:36.15,14.76,-75.52,-991.37,341.25,-1653.75,-18690.0,1,94.315,
01/01/2000,01:42:36.16,14.40,-75.40,-991.25,87.50,-1522.50,-18226.25,1,94.318,
