rtcDate,rtcTime,aX,aY,aZ,gX,gY,gZ,dataRdy,output_Hz,
01/01/2000,00:59:39.52,19.28,-48.56,-854.49,201.25,-700.0,-297.50,1,100.0,
01/01/2000,00:59:39.54,19.76,-50.26,-886.09,148.75,-770.0,-315.0,1,100.0,
01/01/2000,00:59:39.55,20.01,-51.24,-899.14,148.75,-560.0,-201.25,1,100.0,
01/01/2000,00:59:39.56,20.25,-51.85,-910.61,0.0,-638.75,-385.0,1,100.0,
01/01/2000,00:59:39.57,20.62,-52.46,-920.61,17.50,-595.0,-358.75,1,100.0,
01/01/2000,00:59:39.58,20.86,-53.19,-933.42,227.50,-805.0,-358.75,1,100.0,
01/01/2000,00:59:39.59,20.98,-53.68,-940.86,166.25,-787.50,-306.25,1,100.0,
01/01/2000,00:59:39.60,21.11,-54.17,-947.21,131.25,-726.25,-262.50,1,88.889,
01/01/2000,00:59:39.61,21.23,-54.41,-955.38,148.75,-778.75,-411.25,1,90.0,
01/01/2000,00:59:39.62,21.59,-54.66,-960.02,227.50,-673.75,-341.25,1,90.909,
01/01/2000,00:59:39.63,21.72,-54.78,-964.04,227.50,-717.50,-350.0,1,91.667,
01/01/2000,00:59:39.64,21.72,-55.02,-967.70,192.50,-673.75,-323.75,1,92.308,
01/01/2000,00:59:39.65,21.72,-55.27,-970.88,105.0,-682.50,-420.0,1,92.857,
01/01/2000,00:59:39.66,21.84,-55.27,-974.78,183.75,-708.75,-332.50,1,93.333,
01/01/2000,00:59:39.67,21.96,-55.27,-976.98,148.75,-770.0,-271.25,1,93.750,
01/01/2000,00:59:39.68,22.08,-55.39,-979.17,201.25,-647.50,-288.75,1,94.118,
01/01/2000,00:59:39.69,22.20,-55.63,-981.86,358.75,-743.75,-332.50,1,94.444,
01/01/2000,00:59:39.70,22.33,-55.63,-983.20,227.50,-691.25,-332.50,1,94.737,
01/01/2000,00:59:39.71,22.45,-55.75,-984.42,157.50,-691.25,-323.75,1,95.0,
01/01/2000,00:59:39.73,22.33,-55.88,-985.52,87.50,-726.25,-376.25,1,95.238,
01/01/2000,00:59:39.74,22.57,-56.00,-986.74,148.75,-665.0,-245.0,1,95.455,
01/01/2000,00:59:39.75,22.45,-56.12,-987.47,148.75,-656.25,-358.75,1,95.652,
01/01/2000,00:59:39.76,22.45,-56.24,-988.08,105.0,-761.25,-367.50,1,95.833,
01/01/2000,00:59:39.77,22.45,-56.36,-988.69,43.75,-735.0,-428.75,1,96.0,
01/01/2000,00:59:39.78,22.45,-56.24,-989.54,52.50,-735.0,-411.25,1,96.154,
01/01/2000,00:59:39.79,22.45,-56.36,-990.03,105.0,-700.0,-341.25,1,96.296,
01/01/2000,00:59:39.80,22.45,-56.36,-990.40,78.75,-638.75,-323.75,1,96.429,
01/01/2000,00:59:39.81,22.08,-56.49,-991.01,210.0,-700.0,-376.25,1,96.552,
01/01/2000,00:59:39.82,22.20,-56.36,-991.37,131.25,-778.75,-271.25,1,96.667,
01/01/2000,00:59:39.83,22.33,-56.61,-991.74,140.0,-630.0,-376.25,1,96.774,
01/01/2000,00:59:39.84,22.33,-56.49,-991.98,122.50,-708.75,-315.0,1,96.875,
01/01/2000,00:59:39.85,22.20,-56.61,-992.10,227.50,-665.0,-323.75,1,96.970,
01/01/2000,00:59:39.86,22.08,-56.49,-992.23,288.75,-665.0,-236.25,1,97.059,
01/01/2000,00:59:39.87,22.20,-56.49,-992.59,157.50,-691.25,-297.50,1,94.444,
01/01/2000,00:59:39.88,22.08,-56.49,-992.84,140.0,-761.25,-253.75,1,94.595,
01/01/2000,00:59:39.89,21.96,-56.61,-992.84,26.25,-691.25,-385.0,1,94.737,
01/01/2000,00:59:39.90,21.96,-56.49,-992.84,96.25,-700.0,-323.75,1,94.872,
01/01/2000,00:59:39.91,21.96,-56.49,-992.84,166.25,-735.0,-341.25,1,95.0,
01/01/2000,00:59:39.92,21.96,-56.36,-992.84,201.25,-691.25,-341.25,1,95.122,
01/01/2000,00:59:39.93,21.96,-56.36,-993.08,70.0,-630.0,-350.0,1,95.238,
01/01/2000,00:59:39.95,21.96,-56.36,-993.08,113.75,-700.0,-358.75,1,95.349,
01/01/2000,00:59:39.96,22.20,-56.36,-992.96,131.25,-647.50,-358.75,1,95.455,
01/01/2000,00:59:39.97,22.33,-56.36,-992.96,131.25,-717.50,-332.50,1,95.556,
01/01/2000,00:59:39.98,22.20,-56.36,-992.84,122.50,-717.50,-350.0,1,95.652,
01/01/2000,00:59:39.99,22.20,-56.36,-993.08,245.0,-735.0,-315.0,1,95.745,
01/01/2000,00:59:40.00,22.20,-56.36,-993.20,253.75,-603.75,-315.0,1,95.833,
01/01/2000,00:59:40.01,22.20,-56.36,-993.08,87.50,-682.50,-358.75,1,95.918,
01/01/2000,00:59:40.02,21.96,-56.36,-992.84,210.0,-647.50,-332.50,1,96.0,
01/01/2000,00:59:40.03,22.08,-56.36,-992.84,113.75,-691.25,-332.50,1,96.078,
01/01/2000,00:59:40.05,22.20,-56.36,-992.96,113.75,-656.25,-393.75,1,94.340,
01/01/2000,00:59:40.06,22.20,-56.36,-992.84,157.50,-621.25,-367.50,1,94.444,
01/01/2000,00:59:40.07,22.20,-56.36,-992.59,70.0,-735.0,-341.25,1,94.545,
01/01/2000,00:59:40.08,22.20,-56.36,-992.59,245.0,-761.25,-332.50,1,94.643,
01/01/2000,00:59:40.09,22.20,-56.36,-992.47,35.0,-630.0,-376.25,1,94.737,
01/01/2000,00:59:40.10,22.08,-56.36,-992.84,192.50,-647.50,-437.50,1,94.828,
01/01/2000,00:59:40.11,22.20,-56.24,-993.20,70.0,-778.75,-385.0,1,94.915,
01/01/2000,00:59:40.12,22.20,-56.24,-993.32,183.75,-647.50,-271.25,1,95.0,
01/01/2000,00:59:40.13,21.96,-56.12,-993.32,96.25,-717.50,-236.25,1,95.082,
01/01/2000,00:59:40.14,21.96,-56.49,-992.84,105.0,-708.75,-350.0,1,95.161,
01/01/2000,00:59:40.15,22.08,-56.49,-992.71,157.50,-630.0,-315.0,1,95.238,
01/01/2000,00:59:40.16,22.33,-56.36,-993.08,157.50,-577.50,-376.25,1,95.313,
01/01/2000,00:59:40.17,22.45,-56.24,-993.45,140.0,-813.75,-218.75,1,95.385,
01/01/2000,00:59:40.18,22.20,-56.24,-993.45,131.25,-691.25,-323.75,1,95.455,
01/01/2000,00:59:40.19,21.96,-56.24,-992.96,113.75,-752.50,-350.0,1,95.522,
01/01/2000,00:59:40.20,21.96,-56.24,-992.71,227.50,-717.50,-402.50,1,95.588,
01/01/2000,00:59:40.21,22.33,-56.12,-992.84,148.75,-665.0,-271.25,1,95.652,
01/01/2000,00:59:40.22,22.45,-56.24,-993.08,201.25,-647.50,-315.0,1,95.714,
01/01/2000,00:59:40.23,22.08,-56.36,-992.96,192.50,-656.25,-306.25,1,94.444,
01/01/2000,00:59:40.24,21.96,-56.24,-992.84,140.0,-770.0,-472.50,1,94.521,
01/01/2000,00:59:40.25,22.08,-55.88,-992.84,148.75,-612.50,-446.25,1,94.595,
01/01/2000,00:59:40.26,22.33,-55.75,-992.84,218.75,-673.75,-262.50,1,94.667,
01/01/2000,00:59:40.27,22.45,-55.88,-992.84,192.50,-673.75,-280.0,1,94.737,
01/01/2000,00:59:40.28,22.33,-56.24,-992.59,122.50,-708.75,-402.50,1,94.805,
01/01/2000,00:59:40.30,22.33,-56.36,-992.59,131.25,-735.0,-428.75,1,94.872,
01/01/2000,00:59:40.31,22.45,-56.24,-992.71,113.75,-673.75,-262.50,1,94.937,
01/01/2000,00:59:40.32,22.57,-56.00,-992.84,96.25,-708.75,-358.75,1,95.0,
01/01/2000,00:59:40.33,22.57,-56.12,-992.71,192.50,-595.0,-332.50,1,95.062,
01/01/2000,00:59:40.34,22.45,-56.24,-992.84,201.25,-743.75,-227.50,1,95.122,
01/01/2000,00:59:40.35,22.45,-56.36,-992.84,280.0,-647.50,-411.25,1,95.181,
01/01/2000,00:59:40.36,22.57,-56.36,-993.08,201.25,-638.75,-402.50,1,95.238,
01/01/2000,00:59:40.37,22.69,-56.24,-993.08,105.0,-638.75,-297.50,1,94.186,
01/01/2000,00:59:40.38,22.69,-56.24,-992.84,183.75,-743.75,-393.75,1,94.253,
01/01/2000,00:59:40.39,22.45,-56.12,-992.59,192.50,-638.75,-271.25,1,94.318,
01/01/2000,00:59:40.40,22.57,-56.49,-992.59,78.75,-603.75,-402.50,1,94.382,
01/01/2000,00:59:40.41,22.57,-56.61,-992.84,87.50,-813.75,-367.50,1,94.444,
01/01/2000,00:59:40.42,22.69,-56.61,-993.08,253.75,-691.25,-420.0,1,94.505,
01/01/2000,00:59:40.44,22.57,-56.49,-992.59,105.0,-761.25,-341.25,1,94.565,
01/01/2000,00:59:40.45,22.33,-56.36,-992.35,262.50,-752.50,-253.75,1,94.624,
01/01/2000,00:59:40.46,22.20,-56.36,-992.59,210.0,-656.25,-420.0,1,94.681,
01/01/2000,00:59:40.47,22.57,-56.36,-992.84,96.25,-682.50,-297.50,1,94.737,
01/01/2000,00:59:40.48,22.69,-56.36,-992.96,192.50,-656.25,-306.25,1,94.792,
01/01/2000,00:59:40.49,22.45,-56.61,-992.84,358.75,-778.75,-306.25,1,94.845,
01/01/2000,00:59:40.50,22.20,-56.49,-992.59,245.0,-665.0,-420.0,1,94.898,
01/01/2000,00:59:40.51,22.33,-56.36,-992.59,105.0,-603.75,-306.25,1,94.949,
01/01/2000,00:59:40.52,22.45,-56.36,-992.96,131.25,-761.25,-262.50,1,95.0,
01/01/2000,00:59:40.53,22.45,-56.36,-993.08,140.0,-735.0,-323.75,1,95.050,
01/01/2000,00:59:40.54,22.20,-56.61,-993.08,341.25,-665.0,-315.0,1,95.098,
01/01/2000,00:59:40.55,22.33,-56.61,-992.84,192.50,-708.75,-280.0,1,94.231,
01/01/2000,00:59:40.57,22.45,-56.61,-993.08,201.25,-708.75,-306.25,1,94.286,
01/01/2000,00:59:40.58,22.45,-56.61,-993.08,131.25,-717.50,-280.0,1,94.340,
01/01/2000,00:59:40.59,22.20,-56.61,-992.96,166.25,-612.50,-393.75,1,94.393,
01/01/2000,00:59:40.60,21.96,-56.12,-993.20,140.0,-708.75,-350.0,1,94.444,
01/01/2000,00:59:40.61,22.33,-56.24,-993.08,227.50,-621.25,-315.0,1,94.495,
01/01/2000,00:59:40.62,22.45,-56.36,-993.08,175.0,-700.0,-245.0,1,94.545,
01/01/2000,00:59:40.63,22.20,-56.61,-992.84,183.75,-682.50,-253.75,1,94.595,
01/01/2000,00:59:40.64,22.08,-56.61,-992.71,131.25,-630.0,-367.50,1,94.643,
01/01/2000,00:59:40.65,22.45,-56.49,-992.84,87.50,-717.50,-288.75,1,94.690,
01/01/2000,00:59:40.66,22.45,-56.36,-992.96,140.0,-708.75,-262.50,1,94.737,
01/01/2000,00:59:40.67,22.33,-56.61,-992.96,113.75,-761.25,-358.75,1,94.783,
01/01/2000,00:59:40.68,22.45,-56.49,-992.84,192.50,-743.75,-297.50,1,94.828,
01/01/2000,00:59:40.69,22.57,-56.73,-992.71,-8.75,-822.50,-271.25,1,94.872,
01/01/2000,00:59:40.70,22.45,-56.73,-992.84,35.0,-761.25,-446.25,1,94.915,
01/01/2000,00:59:40.71,22.45,-56.85,-992.84,175.0,-603.75,-420.0,1,94.958,
01/01/2000,00:59:40.72,22.45,-56.61,-992.71,175.0,-857.50,-236.25,1,95.0,
01/01/2000,00:59:40.73,22.45,-56.49,-992.84,140.0,-761.25,-350.0,1,95.041,
01/01/2000,00:59:40.74,22.45,-56.49,-992.84,131.25,-603.75,-306.25,1,95.082,
01/01/2000,00:59:40.75,22.45,-56.61,-992.84,297.50,-682.50,-350.0,1,95.122,
01/01/2000,00:59:40.76,22.45,-56.61,-992.47,105.0,-761.25,-481.25,1,95.161,
01/01/2000,00:59:40.77,22.45,-56.73,-992.47,148.75,-682.50,-297.50,1,95.200,
01/01/2000,00:59:40.78,22.45,-56.73,-992.59,192.50,-691.25,-280.0,1,95.238,
01/01/2000,00:59:40.79,22.57,-56.61,-992.59,288.75,-612.50,-358.75,1,94.531,
01/01/2000,00:59:40.80,22.45,-56.61,-992.47,183.75,-700.0,-306.25,1,94.574,
01/01/2000,00:59:40.81,22.33,-56.61,-992.23,253.75,-673.75,-402.50,1,94.615,
01/01/2000,00:59:40.82,22.33,-56.73,-992.35,227.50,-726.25,-315.0,1,94.656,
01/01/2000,00:59:40.83,22.57,-56.61,-992.35,245.0,-603.75,-367.50,1,94.697,
01/01/2000,00:59:40.84,22.69,-56.61,-992.47,78.75,-603.75,-288.75,1,94.737,
01/01/2000,00:59:40.86,22.45,-56.61,-992.47,192.50,-630.0,-350.0,1,94.776,
01/01/2000,00:59:40.87,22.45,-56.61,-992.47,52.50,-647.50,-218.75,1,94.815,
01/01/2000,00:59:40.88,22.45,-56.49,-992.47,157.50,-743.75,-306.25,1,94.853,
01/01/2000,00:59:40.89,22.45,-56.36,-992.47,52.50,-717.50,-341.25,1,94.891,
01/01/2000,00:59:40.90,22.33,-56.49,-992.59,140.0,-700.0,-367.50,1,94.928,
01/01/2000,00:59:40.91,22.45,-56.49,-992.59,332.50,-752.50,-376.25,1,94.964,
01/01/2000,00:59:40.92,22.69,-56.61,-992.59,183.75,-673.75,-358.75,1,95.0,
01/01/2000,00:59:40.93,22.69,-56.61,-992.59,262.50,-630.0,-428.75,1,94.366,
01/01/2000,00:59:40.94,22.45,-56.61,-992.59,43.75,-647.50,-271.25,1,94.406,
01/01/2000,00:59:40.95,22.57,-56.61,-992.59,201.25,-673.75,-315.0,1,94.444,
01/01/2000,00:59:40.96,22.57,-56.61,-992.59,157.50,-875.0,-350.0,1,94.483,
01/01/2000,00:59:40.97,22.57,-56.61,-992.71,210.0,-691.25,-446.25,1,94.521,
01/01/2000,00:59:40.98,22.69,-56.61,-992.59,61.25,-621.25,-358.75,1,94.558,
01/01/2000,00:59:40.99,22.45,-56.61,-992.59,105.0,-700.0,-341.25,1,94.595,
01/01/2000,00:59:41.01,22.45,-56.85,-992.47,183.75,-735.0,-358.75,1,94.631,
01/01/2000,00:59:41.02,22.45,-56.73,-992.59,192.50,-612.50,-323.75,1,94.667,
01/01/2000,00:59:41.03,22.45,-56.61,-992.59,52.50,-708.75,-253.75,1,94.702,
01/01/2000,00:59:41.04,22.45,-56.49,-992.59,280.0,-770.0,-227.50,1,94.737,
01/01/2000,00:59:41.05,22.33,-56.61,-992.47,122.50,-700.0,-402.50,1,94.771,
01/01/2000,00:59:41.06,22.33,-56.61,-992.59,78.75,-717.50,-297.50,1,94.805,
01/01/2000,00:59:41.07,22.20,-56.61,-992.59,140.0,-533.75,-227.50,1,94.231,
01/01/2000,00:59:41.08,22.33,-56.73,-992.59,70.0,-778.75,-323.75,1,94.268,
01/01/2000,00:59:41.09,22.20,-56.73,-992.47,245.0,-735.0,-385.0,1,94.304,
01/01/2000,00:59:41.10,22.20,-56.61,-992.59,78.75,-656.25,-288.75,1,94.340,
01/01/2000,00:59:41.11,22.33,-56.61,-992.35,236.25,-682.50,-428.75,1,94.375,
01/01/2000,00:59:41.12,22.33,-56.61,-992.23,61.25,-761.25,-201.25,1,94.410,
01/01/2000,00:59:41.13,22.33,-56.61,-992.23,227.50,-656.25,-367.50,1,94.444,
01/01/2000,00:59:41.15,22.33,-56.61,-992.35,87.50,-691.25,-402.50,1,94.479,
01/01/2000,00:59:41.16,22.33,-56.36,-992.47,271.25,-682.50,-428.75,1,94.512,
01/01/2000,00:59:41.17,22.45,-56.12,-992.59,253.75,-647.50,-315.0,1,94.545,
01/01/2000,00:59:41.18,22.45,-56.36,-992.59,236.25,-673.75,-253.75,1,94.578,
01/01/2000,00:59:41.19,22.33,-56.36,-992.59,131.25,-743.75,-315.0,1,94.611,
01/01/2000,00:59:41.20,22.20,-56.49,-992.59,140.0,-708.75,-297.50,1,94.643,
01/01/2000,00:59:41.21,22.45,-56.24,-992.35,78.75,-778.75,-271.25,1,94.675,
01/01/2000,00:59:41.22,22.45,-56.00,-992.59,280.0,-822.50,-218.75,1,94.706,
01/01/2000,00:59:41.23,22.45,-56.12,-992.59,70.0,-787.50,-367.50,1,94.737,
01/01/2000,00:59:41.24,22.45,-56.24,-992.59,183.75,-665.0,-306.25,1,94.767,
01/01/2000,00:59:41.25,22.45,-56.24,-992.47,17.50,-630.0,-411.25,1,94.798,
01/01/2000,00:59:41.26,22.45,-56.24,-992.35,183.75,-752.50,-402.50,1,94.828,
01/01/2000,00:59:41.27,22.45,-56.12,-992.47,105.0,-691.25,-367.50,1,94.857,
01/01/2000,00:59:41.28,22.45,-56.12,-992.47,70.0,-735.0,-315.0,1,94.350,
01/01/2000,00:59:41.29,22.45,-56.24,-992.35,280.0,-717.50,-376.25,1,94.382,
01/01/2000,00:59:41.30,22.33,-56.36,-992.35,35.0,-647.50,-376.25,1,94.413,
01/01/2000,00:59:41.31,22.33,-56.36,-992.47,280.0,-577.50,-332.50,1,94.444,
01/01/2000,00:59:41.32,22.45,-56.12,-992.35,148.75,-691.25,-402.50,1,94.475,
01/01/2000,00:59:41.33,22.69,-56.12,-992.23,61.25,-647.50,-245.0,1,94.505,
01/01/2000,00:59:41.34,22.69,-56.12,-992.23,122.50,-717.50,-341.25,1,94.536,
01/01/2000,00:59:41.36,22.33,-56.49,-992.23,323.75,-647.50,-376.25,1,94.565,
01/01/2000,00:59:41.37,22.33,-56.36,-992.23,122.50,-726.25,-393.75,1,94.595,
01/01/2000,00:59:41.38,22.45,-56.12,-992.10,297.50,-708.75,-280.0,1,94.624,
01/01/2000,00:59:41.39,22.45,-56.00,-992.23,148.75,-700.0,-288.75,1,94.652,
01/01/2000,00:59:41.40,22.33,-56.12,-992.10,157.50,-700.0,-323.75,1,94.681,
01/01/2000,00:59:41.41,22.08,-56.24,-992.10,157.50,-577.50,-385.0,1,94.709,
01/01/2000,00:59:41.42,22.20,-56.24,-992.10,288.75,-717.50,-332.50,1,94.737,
01/01/2000,00:59:41.43,22.45,-56.24,-992.35,157.50,-682.50,-376.25,1,94.764,
01/01/2000,00:59:41.44,22.45,-56.49,-992.23,140.0,-708.75,-271.25,1,94.792,
01/01/2000,00:59:41.45,22.33,-56.61,-992.10,218.75,-743.75,-315.0,1,94.819,
01/01/2000,00:59:41.46,22.33,-56.61,-992.23,166.25,-673.75,-288.75,1,94.845,
01/01/2000,00:59:41.47,22.45,-56.85,-992.35,96.25,-752.50,-472.50,1,94.872,
01/01/2000,00:59:41.48,22.45,-56.61,-992.47,253.75,-752.50,-350.0,1,94.898,
01/01/2000,00:59:41.50,22.45,-56.61,-992.47,148.75,-691.25,-210.0,1,94.444,
01/01/2000,00:59:41.51,22.20,-56.61,-992.35,157.50,-700.0,-315.0,1,94.472,
01/01/2000,00:59:41.52,22.20,-56.36,-992.35,113.75,-603.75,-271.25,1,94.500,
01/01/2000,00:59:41.53,22.45,-56.49,-992.47,183.75,-787.50,-323.75,1,94.527,
01/01/2000,00:59:41.54,22.57,-56.36,-992.59,175.0,-647.50,-262.50,1,94.554,
01/01/2000,00:59:41.55,22.45,-56.61,-992.59,175.0,-770.0,-393.75,1,94.581,
01/01/2000,00:59:41.56,22.57,-56.61,-992.59,105.0,-647.50,-420.0,1,94.608,
01/01/2000,00:59:41.57,22.57,-56.36,-992.47,166.25,-665.0,-271.25,1,94.175,
01/01/2000,00:59:41.58,22.57,-56.24,-992.59,218.75,-630.0,-376.25,1,94.203,
01/01/2000,00:59:41.59,22.45,-56.24,-992.59,236.25,-752.50,-288.75,1,94.231,
01/01/2000,00:59:41.60,22.45,-56.36,-992.59,70.0,-726.25,-341.25,1,94.258,
01/01/2000,00:59:41.61,22.45,-56.36,-992.47,131.25,-708.75,-358.75,1,94.286,
01/01/2000,00:59:41.62,22.33,-56.49,-992.35,157.50,-656.25,-323.75,1,94.313,
01/01/2000,00:59:41.63,22.20,-56.49,-992.23,105.0,-595.0,-288.75,1,94.340,
01/01/2000,00:59:41.65,22.33,-56.36,-992.35,113.75,-673.75,-271.25,1,94.366,
01/01/2000,00:59:41.66,22.45,-56.61,-992.35,157.50,-638.75,-350.0,1,94.393,
01/01/2000,00:59:41.67,22.45,-56.49,-992.35,227.50,-621.25,-297.50,1,94.419,
01/01/2000,00:59:41.68,22.45,-56.61,-992.47,201.25,-700.0,-411.25,1,94.444,
01/01/2000,00:59:41.69,22.45,-56.61,-992.59,218.75,-726.25,-332.50,1,94.470,
01/01/2000,00:59:41.70,22.45,-56.61,-992.71,122.50,-708.75,-420.0,1,94.495,
01/01/2000,00:59:41.71,22.45,-56.61,-992.84,262.50,-752.50,-332.50,1,94.521,
01/01/2000,00:59:41.72,22.57,-56.49,-992.71,288.75,-717.50,-332.50,1,94.545,
01/01/2000,00:59:41.73,22.45,-56.49,-992.59,271.25,-665.0,-262.50,1,94.570,
01/01/2000,00:59:41.74,22.45,-56.73,-992.59,271.25,-743.75,-288.75,1,94.595,
01/01/2000,00:59:41.75,22.20,-56.61,-992.96,17.50,-700.0,-297.50,1,94.619,
01/01/2000,00:59:41.76,22.69,-56.36,-992.84,8.75,-638.75,-498.75,1,94.643,
01/01/2000,00:59:41.77,22.57,-56.49,-992.84,148.75,-752.50,-227.50,1,94.667,
01/01/2000,00:59:41.78,22.57,-56.36,-992.71,78.75,-673.75,-227.50,1,94.690,
01/01/2000,00:59:41.79,22.45,-56.61,-992.71,140.0,-831.25,-490.0,1,94.714,
01/01/2000,00:59:41.80,22.45,-56.73,-992.84,192.50,-726.25,-297.50,1,94.737,
01/01/2000,00:59:41.81,22.45,-56.61,-992.84,183.75,-813.75,-437.50,1,94.760,
01/01/2000,00:59:41.82,22.45,-56.85,-992.84,148.75,-700.0,-323.75,1,94.783,
01/01/2000,00:59:41.83,22.45,-56.61,-992.84,-17.50,-743.75,-376.25,1,94.805,
01/01/2000,00:59:41.84,22.45,-56.61,-992.96,227.50,-673.75,-350.0,1,94.421,
01/01/2000,00:59:41.85,22.45,-56.49,-992.84,70.0,-691.25,-297.50,1,94.444,
01/01/2000,00:59:41.86,22.33,-56.73,-992.84,210.0,-743.75,-490.0,1,94.468,
01/01/2000,00:59:41.87,22.33,-56.49,-992.71,253.75,-743.75,-472.50,1,94.492,
01/01/2000,00:59:41.88,22.45,-56.61,-992.71,210.0,-656.25,-367.50,1,94.515,
01/01/2000,00:59:41.89,22.45,-56.36,-992.84,245.0,-691.25,-280.0,1,94.538,
01/01/2000,00:59:41.90,22.20,-56.49,-992.84,43.75,-603.75,-306.25,1,94.561,
01/01/2000,00:59:41.92,22.20,-56.61,-992.84,210.0,-726.25,-183.75,1,94.583,
01/01/2000,00:59:41.93,22.20,-56.49,-992.84,157.50,-743.75,-288.75,1,94.606,
01/01/2000,00:59:41.94,22.33,-56.49,-992.84,201.25,-656.25,-218.75,1,94.628,
01/01/2000,00:59:41.95,22.45,-56.73,-992.71,201.25,-822.50,-367.50,1,94.650,
01/01/2000,00:59:41.96,22.20,-56.61,-992.71,78.75,-647.50,-385.0,1,94.672,
01/01/2000,00:59:41.97,22.20,-56.73,-992.59,227.50,-787.50,-350.0,1,94.694,
01/01/2000,00:59:41.98,22.20,-56.61,-992.59,131.25,-586.25,-306.25,1,94.715,
01/01/2000,00:59:41.99,22.33,-56.61,-992.71,148.75,-656.25,-323.75,1,94.737,
01/01/2000,00:59:42.00,22.20,-56.73,-992.84,192.50,-778.75,-341.25,1,94.758,
01/01/2000,00:59:42.01,22.33,-56.73,-992.71,245.0,-673.75,-297.50,1,94.779,
01/01/2000,00:59:42.02,22.33,-56.61,-992.84,122.50,-787.50,-402.50,1,94.800,
01/01/2000,00:59:42.03,22.45,-56.73,-992.84,148.75,-752.50,-245.0,1,94.444,
01/01/2000,00:59:42.04,22.45,-56.61,-992.96,157.50,-647.50,-420.0,1,94.841,
01/01/2000,00:59:42.06,22.45,-56.61,-992.71,236.25,-805.0,-262.50,1,94.488,
01/01/2000,00:59:42.07,22.33,-56.61,-992.71,140.0,-665.0,-323.75,1,94.510,
01/01/2000,00:59:42.08,22.20,-56.49,-992.59,105.0,-673.75,-376.25,1,94.531,
01/01/2000,00:59:42.09,22.33,-56.61,-992.59,148.75,-787.50,-297.50,1,94.553,
01/01/2000,00:59:42.10,22.20,-56.49,-992.59,52.50,-647.50,-455.0,1,94.574,
01/01/2000,00:59:42.11,22.20,-56.61,-992.59,175.0,-656.25,-507.50,1,94.595,
01/01/2000,00:59:42.12,22.20,-56.49,-992.59,183.75,-761.25,-350.0,1,94.615,
01/01/2000,00:59:42.13,22.45,-56.61,-992.59,61.25,-595.0,-376.25,1,94.275,
01/01/2000,00:59:42.14,22.45,-56.61,-992.71,201.25,-603.75,-358.75,1,94.297,
01/01/2000,00:59:42.15,22.45,-56.36,-992.59,245.0,-621.25,-245.0,1,94.318,
01/01/2000,00:59:42.16,22.69,-56.49,-992.59,218.75,-778.75,-341.25,1,94.340,
01/01/2000,00:59:42.17,22.45,-56.49,-992.47,183.75,-656.25,-315.0,1,94.361,
01/01/2000,00:59:42.18,22.33,-56.61,-992.59,17.50,-735.0,-350.0,1,94.382,
01/01/2000,00:59:42.19,22.45,-56.61,-992.84,166.25,-630.0,-481.25,1,94.403,
01/01/2000,00:59:42.20,22.57,-56.49,-992.84,140.0,-770.0,-341.25,1,94.424,
01/01/2000,00:59:42.21,22.57,-56.49,-992.84,70.0,-717.50,-280.0,1,94.444,
01/01/2000,00:59:42.22,22.45,-56.61,-992.59,183.75,-656.25,-367.50,1,94.465,
01/01/2000,00:59:42.23,22.45,-56.61,-992.47,96.25,-761.25,-393.75,1,94.485,
01/01/2000,00:59:42.24,22.45,-56.49,-992.59,332.50,-717.50,-350.0,1,94.505,
01/01/2000,00:59:42.25,22.45,-56.36,-992.84,140.0,-630.0,-367.50,1,94.526,
01/01/2000,00:59:42.27,22.57,-56.49,-992.71,140.0,-700.0,-332.50,1,94.545,
01/01/2000,00:59:42.28,22.45,-56.49,-992.71,175.0,-735.0,-297.50,1,94.565,
01/01/2000,00:59:42.29,22.45,-56.49,-992.59,105.0,-778.75,-420.0,1,94.585,
01/01/2000,00:59:42.30,22.45,-56.61,-992.84,157.50,-717.50,-262.50,1,94.604,
01/01/2000,00:59:42.31,22.45,-56.61,-992.96,105.0,-656.25,-323.75,1,94.624,
01/01/2000,00:59:42.32,22.57,-56.49,-992.96,122.50,-735.0,-376.25,1,94.643,
01/01/2000,00:59:42.33,22.45,-56.36,-992.71,148.75,-700.0,-315.0,1,94.662,
01/01/2000,00:59:42.34,22.45,-56.36,-992.59,113.75,-726.25,-306.25,1,94.681,
01/01/2000,00:59:42.35,22.45,-56.61,-992.71,157.50,-577.50,-323.75,1,94.700,
01/01/2000,00:59:42.36,22.20,-56.49,-993.08,87.50,-542.50,-210.0,1,94.386,
01/01/2000,00:59:42.37,22.69,-56.85,-992.96,630.0,-700.0,-446.25,1,94.737,
01/01/2000,00:59:42.38,22.81,-56.12,-992.59,-358.75,-717.50,-708.75,1,94.425,
01/01/2000,00:59:42.39,23.06,-56.61,-992.35,-262.50,-577.50,-183.75,1,94.444,
01/01/2000,00:59:42.40,21.72,-57.22,-992.59,516.25,-691.25,0.0,1,94.464,
01/01/2000,00:59:42.42,22.33,-56.73,-993.08,201.25,-595.0,-848.75,1,94.483,
01/01/2000,00:59:42.43,22.81,-56.24,-993.08,288.75,-761.25,-516.25,1,94.502,
01/01/2000,00:59:42.44,22.69,-56.12,-992.84,17.50,-700.0,-43.75,1,94.521,
01/01/2000,00:59:42.45,22.33,-56.36,-992.47,148.75,-717.50,17.50,1,94.539,
01/01/2000,00:59:42.46,22.20,-56.85,-992.35,323.75,-796.25,-507.50,1,94.558,
01/01/2000,00:59:42.47,22.33,-56.61,-992.84,-8.75,-708.75,-437.50,1,94.576,
01/01/2000,00:59:42.48,22.20,-56.36,-993.08,236.25,-647.50,-323.75,1,94.595,
01/01/2000,00:59:42.49,22.45,-56.12,-992.59,43.75,-682.50,-341.25,1,94.613,
01/01/2000,00:59:42.50,22.20,-56.36,-992.10,271.25,-682.50,-131.25,1,94.631,
01/01/2000,00:59:42.51,22.20,-56.36,-992.10,192.50,-682.50,-288.75,1,94.649,
01/01/2000,00:59:42.52,22.20,-56.49,-992.59,78.75,-770.0,-428.75,1,94.667,
01/01/2000,00:59:42.53,22.57,-56.61,-992.96,210.0,-656.25,-280.0,1,94.684,
01/01/2000,00:59:42.54,22.57,-56.36,-992.84,113.75,-761.25,-341.25,1,94.702,
01/01/2000,00:59:42.55,22.20,-56.36,-992.47,157.50,-787.50,-376.25,1,94.408,
01/01/2000,00:59:42.56,22.33,-56.36,-992.47,70.0,-656.25,-175.0,1,94.426,
01/01/2000,00:59:42.57,22.69,-56.24,-992.71,61.25,-595.0,-271.25,1,94.444,
01/01/2000,00:59:42.58,22.69,-56.61,-993.08,122.50,-603.75,-446.25,1,94.463,
01/01/2000,00:59:42.60,22.45,-56.85,-992.71,166.25,-551.25,-288.75,1,94.481,
01/01/2000,00:59:42.61,22.45,-56.61,-992.23,192.50,-656.25,-481.25,1,94.498,
01/01/2000,00:59:42.62,22.20,-56.49,-992.10,192.50,-787.50,-393.75,1,94.516,
01/01/2000,00:59:42.63,22.33,-56.49,-992.59,271.25,-700.0,-245.0,1,94.534,
01/01/2000,00:59:42.64,22.45,-56.61,-992.84,201.25,-630.0,-288.75,1,94.551,
01/01/2000,00:59:42.65,22.45,-56.73,-992.71,192.50,-708.75,-385.0,1,94.569,
01/01/2000,00:59:42.66,22.20,-56.61,-992.47,26.25,-752.50,-428.75,1,94.586,
01/01/2000,00:59:42.67,22.33,-56.49,-992.35,122.50,-673.75,-210.0,1,94.603,
01/01/2000,00:59:42.68,22.45,-56.49,-992.59,245.0,-770.0,-367.50,1,94.620,
01/01/2000,00:59:42.69,22.20,-56.61,-992.96,0.0,-621.25,-288.75,1,94.340,
01/01/2000,00:59:42.70,22.20,-56.85,-992.96,113.75,-682.50,-332.50,1,94.357,
01/01/2000,00:59:42.71,22.08,-56.85,-992.71,105.0,-621.25,-218.75,1,94.375,
01/01/2000,00:59:42.72,22.20,-56.61,-992.47,96.25,-647.50,-315.0,1,94.393,
01/01/2000,00:59:42.73,22.20,-56.61,-992.47,166.25,-638.75,-358.75,1,94.410,
01/01/2000,00:59:42.74,22.20,-56.61,-992.84,131.25,-735.0,-280.0,1,94.427,
01/01/2000,00:59:42.75,22.20,-56.61,-992.84,262.50,-595.0,-297.50,1,94.444,
01/01/2000,00:59:42.76,22.20,-56.61,-992.96,78.75,-726.25,-341.25,1,94.462,
01/01/2000,00:59:42.77,22.20,-56.61,-992.71,148.75,-673.75,-332.50,1,94.479,
01/01/2000,00:59:42.78,22.33,-56.61,-992.59,70.0,-621.25,-262.50,1,94.495,
01/01/2000,00:59:42.79,22.20,-56.73,-992.59,236.25,-665.0,-367.50,1,94.512,
01/01/2000,00:59:42.80,22.20,-56.73,-992.71,227.50,-778.75,-358.75,1,94.529,
01/01/2000,00:59:42.81,22.20,-56.85,-992.84,210.0,-770.0,-393.75,1,94.545,
01/01/2000,00:59:42.82,22.45,-56.73,-992.96,192.50,-682.50,-446.25,1,94.562,
01/01/2000,00:59:42.84,22.45,-56.61,-992.84,218.75,-796.25,-218.75,1,94.578,
01/01/2000,00:59:42.85,22.33,-56.61,-992.71,148.75,-743.75,-358.75,1,94.595,
01/01/2000,00:59:42.86,22.33,-56.61,-992.84,148.75,-726.25,-288.75,1,94.611,
01/01/2000,00:59:42.87,22.45,-56.61,-993.08,210.0,-700.0,-323.75,1,94.627,
01/01/2000,00:59:42.88,22.45,-56.73,-993.08,166.25,-612.50,-350.0,1,94.643,
01/01/2000,00:59:42.89,22.33,-56.49,-993.08,96.25,-682.50,-306.25,1,94.659,
01/01/2000,00:59:42.90,22.33,-56.49,-992.84,183.75,-700.0,-350.0,1,94.395,
01/01/2000,00:59:42.91,22.20,-56.49,-992.59,26.25,-752.50,-315.0,1,94.412,
01/01/2000,00:59:42.92,22.20,-56.73,-992.71,26.25,-691.25,-411.25,1,94.428,
01/01/2000,00:59:42.93,22.20,-56.73,-992.71,140.0,-647.50,-341.25,1,94.444,
01/01/2000,00:59:42.94,22.20,-56.61,-992.84,113.75,-673.75,-332.50,1,94.461,
01/01/2000,00:59:42.95,22.20,-56.61,-992.84,210.0,-726.25,-420.0,1,94.477,
01/01/2000,00:59:42.96,22.20,-56.61,-992.71,140.0,-630.0,-262.50,1,94.493,
01/01/2000,00:59:42.98,22.45,-56.61,-992.84,113.75,-595.0,-262.50,1,94.509,
01/01/2000,00:59:42.99,22.45,-56.61,-992.84,122.50,-603.75,-376.25,1,94.524,
01/01/2000,00:59:43.00,22.45,-56.73,-992.71,148.75,-682.50,-288.75,1,94.540,
01/01/2000,00:59:43.01,22.45,-56.61,-992.59,210.0,-638.75,-385.0,1,94.556,
01/01/2000,00:59:43.02,22.45,-56.61,-992.71,140.0,-691.25,-253.75,1,94.571,
01/01/2000,00:59:43.03,22.33,-56.49,-992.71,227.50,-665.0,-402.50,1,94.587,
01/01/2000,00:59:43.04,22.33,-56.36,-992.71,218.75,-612.50,-236.25,1,94.602,
01/01/2000,00:59:43.05,22.20,-56.36,-992.71,87.50,-621.25,-411.25,1,94.618,
01/01/2000,00:59:43.06,22.45,-56.61,-992.59,183.75,-673.75,-323.75,1,94.633,
01/01/2000,00:59:43.07,22.45,-56.36,-992.84,166.25,-752.50,-350.0,1,94.648,
01/01/2000,00:59:43.08,22.57,-56.49,-992.96,87.50,-682.50,-218.75,1,94.663,
01/01/2000,00:59:43.09,22.57,-56.61,-992.96,148.75,-630.0,-367.50,1,94.678,
01/01/2000,00:59:43.11,22.45,-56.61,-992.84,262.50,-586.25,-341.25,1,94.429,
01/01/2000,00:59:43.12,22.33,-56.49,-992.84,192.50,-647.50,-306.25,1,94.444,
01/01/2000,00:59:43.13,22.45,-56.61,-992.84,122.50,-621.25,-393.75,1,94.460,
01/01/2000,00:59:43.14,22.57,-56.61,-992.84,175.0,-726.25,-271.25,1,94.475,
01/01/2000,00:59:43.15,22.57,-56.61,-992.84,280.0,-787.50,-323.75,1,94.490,
01/01/2000,00:59:43.16,22.57,-56.61,-992.84,236.25,-673.75,-253.75,1,94.505,
01/01/2000,00:59:43.17,22.45,-56.61,-992.71,192.50,-603.75,-393.75,1,94.521,
01/01/2000,00:59:43.18,22.45,-56.61,-992.71,192.50,-621.25,-323.75,1,94.536,
01/01/2000,00:59:43.19,22.57,-56.61,-992.84,140.0,-708.75,-306.25,1,94.550,
01/01/2000,00:59:43.20,22.57,-56.73,-992.84,113.75,-735.0,-271.25,1,94.565,
01/01/2000,00:59:43.21,22.57,-56.85,-992.84,0.0,-586.25,-323.75,1,94.580,
01/01/2000,00:59:43.22,22.57,-56.49,-992.59,122.50,-682.50,-262.50,1,94.595,
01/01/2000,00:59:43.23,22.69,-56.61,-992.59,192.50,-840.0,-288.75,1,94.609,
01/01/2000,00:59:43.24,22.69,-56.36,-992.59,148.75,-805.0,-236.25,1,94.370,
01/01/2000,00:59:43.26,22.69,-56.49,-992.59,122.50,-735.0,-332.50,1,94.385,
01/01/2000,00:59:43.27,22.45,-56.61,-992.84,253.75,-743.75,-437.50,1,94.400,
01/01/2000,00:59:43.28,22.45,-56.61,-992.84,131.25,-656.25,-385.0,1,94.415,
01/01/2000,00:59:43.29,22.57,-56.49,-992.71,140.0,-700.0,-341.25,1,94.430,
01/01/2000,00:59:43.30,22.57,-56.36,-992.71,148.75,-770.0,-271.25,1,94.444,
01/01/2000,00:59:43.31,22.45,-56.61,-992.84,227.50,-743.75,-358.75,1,94.459,
01/01/2000,00:59:43.32,22.33,-56.61,-992.84,297.50,-630.0,-367.50,1,94.474,
01/01/2000,00:59:43.33,22.45,-56.49,-992.84,131.25,-638.75,-376.25,1,94.488,
01/01/2000,00:59:43.34,22.45,-56.49,-992.84,192.50,-665.0,-253.75,1,94.503,
01/01/2000,00:59:43.35,22.45,-56.49,-992.84,218.75,-717.50,-341.25,1,94.517,
01/01/2000,00:59:43.36,22.57,-56.49,-992.84,245.0,-682.50,-297.50,1,94.531,
01/01/2000,00:59:43.37,22.45,-56.49,-993.08,17.50,-700.0,-341.25,1,94.545,
01/01/2000,00:59:43.38,22.45,-56.49,-993.08,183.75,-726.25,-341.25,1,94.560,
01/01/2000,00:59:43.39,22.33,-56.61,-993.08,140.0,-761.25,-393.75,1,94.574,
01/01/2000,00:59:43.40,22.45,-56.61,-993.08,105.0,-770.0,-315.0,1,94.344,
01/01/2000,00:59:43.41,22.45,-56.49,-992.96,218.75,-682.50,-376.25,1,94.359,
01/01/2000,00:59:43.42,22.45,-56.49,-992.96,175.0,-796.25,-288.75,1,94.373,
01/01/2000,00:59:43.43,22.57,-56.36,-992.96,140.0,-665.0,-385.0,1,94.388,
01/01/2000,00:59:43.44,22.69,-56.36,-992.96,78.75,-708.75,-253.75,1,94.402,
01/01/2000,00:59:43.45,22.69,-56.49,-992.84,0.0,-708.75,-306.25,1,94.416,
01/01/2000,00:59:43.47,22.69,-56.61,-992.84,192.50,-682.50,-288.75,1,94.430,
01/01/2000,00:59:43.48,22.45,-56.36,-992.84,157.50,-726.25,-341.25,1,94.444,
01/01/2000,00:59:43.49,22.45,-56.36,-992.84,262.50,-743.75,-420.0,1,94.458,
01/01/2000,00:59:43.50,22.45,-56.36,-993.08,61.25,-743.75,-306.25,1,94.472,
01/01/2000,00:59:43.51,22.45,-56.49,-992.96,140.0,-638.75,-341.25,1,94.486,
01/01/2000,00:59:43.52,22.45,-56.36,-992.84,245.0,-691.25,-271.25,1,94.500,
01/01/2000,00:59:43.53,22.20,-56.49,-992.71,166.25,-691.25,-315.0,1,94.514,
01/01/2000,00:59:43.54,22.33,-56.49,-992.84,140.0,-700.0,-236.25,1,94.527,
01/01/2000,00:59:43.55,22.45,-56.49,-992.84,87.50,-621.25,-437.50,1,94.541,
01/01/2000,00:59:43.56,22.33,-56.49,-992.84,122.50,-700.0,-323.75,1,94.554,
01/01/2000,00:59:43.57,22.20,-56.36,-992.59,70.0,-761.25,-306.25,1,94.568,
01/01/2000,00:59:43.58,22.20,-56.36,-992.59,105.0,-726.25,-332.50,1,94.581,
01/01/2000,00:59:43.59,22.33,-56.36,-992.59,52.50,-673.75,-393.75,1,94.595,
01/01/2000,00:59:43.60,22.33,-56.36,-992.71,192.50,-647.50,-472.50,1,94.608,
01/01/2000,00:59:43.62,22.33,-56.24,-992.71,166.25,-778.75,-402.50,1,94.390,
01/01/2000,00:59:43.63,22.20,-56.24,-992.71,245.0,-673.75,-385.0,1,94.404,
01/01/2000,00:59:43.64,22.20,-56.24,-992.84,43.75,-647.50,-393.75,1,94.417,
01/01/2000,00:59:43.65,22.20,-56.36,-992.84,201.25,-638.75,-332.50,1,94.431,
01/01/2000,00:59:43.66,22.20,-56.36,-992.84,175.0,-717.50,-271.25,1,94.444,
01/01/2000,00:59:43.67,22.20,-56.36,-992.71,52.50,-813.75,-315.0,1,94.458,
01/01/2000,00:59:43.68,22.33,-56.24,-992.84,131.25,-752.50,-271.25,1,94.245,
01/01/2000,00:59:43.69,22.45,-56.24,-992.84,166.25,-717.50,-306.25,1,94.258,
01/01/2000,00:59:43.70,22.45,-56.24,-992.84,210.0,-761.25,-210.0,1,94.272,
01/01/2000,00:59:43.71,22.45,-56.36,-992.71,131.25,-761.25,-402.50,1,94.286,
01/01/2000,00:59:43.72,22.45,-56.36,-992.59,70.0,-673.75,-288.75,1,94.299,
01/01/2000,00:59:43.73,22.45,-56.24,-992.71,201.25,-726.25,-402.50,1,94.313,
01/01/2000,00:59:43.74,22.33,-56.12,-992.71,148.75,-638.75,-315.0,1,94.326,
01/01/2000,00:59:43.75,22.33,-56.24,-992.71,148.75,-735.0,-428.75,1,94.340,
01/01/2000,00:59:43.76,22.20,-56.24,-992.71,288.75,-638.75,-323.75,1,94.353,
01/01/2000,00:59:43.77,22.20,-56.49,-992.84,227.50,-840.0,-402.50,1,94.366,
01/01/2000,00:59:43.78,22.20,-56.49,-992.71,201.25,-761.25,-341.25,1,94.379,
01/01/2000,00:59:43.79,22.20,-56.49,-992.59,70.0,-673.75,-332.50,1,94.393,
01/01/2000,00:59:43.80,22.20,-56.36,-992.71,35.0,-691.25,-271.25,1,94.406,
01/01/2000,00:59:43.81,22.20,-56.36,-992.84,122.50,-656.25,-358.75,1,94.419,
01/01/2000,00:59:43.83,22.33,-56.36,-992.84,192.50,-638.75,-323.75,1,94.432,
01/01/2000,00:59:43.84,22.45,-56.61,-992.71,26.25,-682.50,-323.75,1,94.444,
01/01/2000,00:59:43.85,22.20,-56.49,-992.35,70.0,-726.25,-323.75,1,94.457,
01/01/2000,00:59:43.86,22.20,-56.49,-992.47,113.75,-700.0,-253.75,1,94.470,
01/01/2000,00:59:43.87,22.33,-56.61,-992.59,183.75,-630.0,-315.0,1,94.483,
01/01/2000,00:59:43.88,22.45,-56.61,-992.84,245.0,-603.75,-280.0,1,94.495,
01/01/2000,00:59:43.89,22.45,-56.61,-992.71,183.75,-603.75,-332.50,1,94.292,
01/01/2000,00:59:43.90,22.45,-56.61,-992.59,218.75,-682.50,-420.0,1,94.305,
01/01/2000,00:59:43.91,22.57,-56.85,-992.47,166.25,-708.75,-332.50,1,94.318,
01/01/2000,00:59:43.92,22.69,-56.73,-992.71,183.75,-682.50,-297.50,1,94.331,
01/01/2000,00:59:43.93,22.69,-56.85,-992.96,131.25,-726.25,-210.0,1,94.344,
01/01/2000,00:59:43.94,22.57,-56.85,-992.84,105.0,-656.25,-350.0,1,94.357,
01/01/2000,00:59:43.95,22.45,-56.73,-992.84,175.0,-770.0,-428.75,1,94.369,
01/01/2000,00:59:43.97,22.69,-56.61,-992.59,8.75,-560.0,-280.0,1,94.382,
01/01/2000,00:59:43.98,22.69,-56.61,-992.59,105.0,-656.25,-306.25,1,94.395,
01/01/2000,00:59:43.99,22.69,-56.73,-992.59,122.50,-638.75,-420.0,1,94.407,
01/01/2000,00:59:44.00,22.57,-56.85,-992.71,175.0,-647.50,-393.75,1,94.420,
01/01/2000,00:59:44.01,22.45,-56.73,-992.59,148.75,-665.0,-341.25,1,94.432,
01/01/2000,00:59:44.02,22.57,-56.73,-992.47,87.50,-691.25,-376.25,1,94.444,
01/01/2000,00:59:44.03,22.69,-56.61,-992.35,201.25,-743.75,-271.25,1,94.457,
01/01/2000,00:59:44.04,22.69,-56.61,-992.35,393.75,-560.0,-385.0,1,94.469,
01/01/2000,00:59:44.05,22.69,-56.49,-992.47,78.75,-647.50,-350.0,1,94.481,
01/01/2000,00:59:44.06,22.45,-56.61,-992.59,140.0,-673.75,-341.25,1,94.493,
01/01/2000,00:59:44.07,22.45,-56.49,-992.71,227.50,-647.50,-358.75,1,94.505,
01/01/2000,00:59:44.08,22.45,-56.24,-992.59,262.50,-630.0,-420.0,1,94.518,
01/01/2000,00:59:44.09,22.45,-56.24,-992.59,192.50,-761.25,-306.25,1,94.530,
01/01/2000,00:59:44.10,22.45,-56.36,-992.59,280.0,-743.75,-280.0,1,94.336,
01/01/2000,00:59:44.11,22.45,-56.36,-992.71,140.0,-621.25,-271.25,1,94.348,
01/01/2000,00:59:44.12,22.94,-56.24,-992.35,218.75,-630.0,-428.75,1,94.360,
01/01/2000,00:59:44.14,9.76,-54.41,-946.84,603.75,-1951.25,4331.25,1,94.372,
01/01/2000,00:59:44.15,12.69,-51.97,-956.72,-1592.50,-1802.50,-3963.75,1,94.181,
01/01/2000,00:59:44.16,25.62,-62.83,-1009.67,1478.75,-1050.0,-3622.50,1,94.194,
01/01/2000,00:59:44.17,31.11,-60.76,-1038.46,-315.0,236.25,52.50,1,94.206,
01/01/2000,00:59:44.18,29.89,-58.80,-1043.10,341.25,87.50,2555.0,1,94.218,
01/01/2000,00:59:44.19,26.60,-51.00,-1013.33,148.75,-297.50,-1041.25,1,94.231,
01/01/2000,00:59:44.20,23.42,-50.02,-988.08,315.0,-980.0,-1260.0,1,94.243,
01/01/2000,00:59:44.21,21.23,-53.92,-972.46,-332.50,-1041.25,1111.25,1,94.255,
01/01/2000,00:59:44.22,21.23,-60.27,-972.95,87.50,-1111.25,-280.0,1,94.268,
01/01/2000,00:59:44.23,23.30,-64.42,-994.42,78.75,-892.50,-2931.25,1,94.280,
01/01/2000,00:59:44.25,25.13,-61.0,-1005.89,236.25,-481.25,-2782.50,1,94.292,
01/01/2000,00:59:44.26,24.16,-55.14,-1006.99,288.75,-315.0,113.75,1,94.304,
01/01/2000,00:59:44.27,22.20,-49.41,-1000.40,-87.50,-507.50,726.25,1,94.316,
01/01/2000,00:59:44.28,20.98,-50.14,-987.22,43.75,-595.0,980.0,1,94.328,
01/01/2000,00:59:44.29,21.47,-56.00,-982.95,140.0,-822.50,901.25,1,94.340,
01/01/2000,00:59:44.30,22.33,-61.73,-984.78,43.75,-918.75,-437.50,1,94.351,
01/01/2000,00:59:44.31,23.67,-64.66,-990.52,210.0,-778.75,-2073.75,1,94.363,
01/01/2000,00:59:44.32,23.91,-60.15,-996.13,262.50,-656.25,-1758.75,1,94.375,
01/01/2000,00:59:44.33,22.45,-53.80,-995.28,96.25,-533.75,-778.75,1,94.387,
01/01/2000,00:59:44.34,21.11,-49.78,-992.47,201.25,-568.75,1513.75,1,94.398,
01/01/2000,00:59:44.35,20.25,-50.02,-989.66,52.50,-560.0,1645.0,1,94.410,
01/01/2000,00:59:44.36,21.35,-57.10,-990.27,166.25,-691.25,595.0,1,94.421,
01/01/2000,00:59:44.37,22.81,-61.85,-991.98,192.50,-638.75,-875.0,1,94.433,
01/01/2000,00:59:44.38,23.67,-62.71,-993.32,0.0,-857.50,-1907.50,1,94.444,
01/01/2000,00:59:44.39,22.94,-58.32,-992.35,236.25,-708.75,-1548.75,1,94.456,
01/01/2000,00:59:44.40,21.72,-53.92,-991.49,245.0,-673.75,796.25,1,94.467,
01/01/2000,00:59:44.41,20.86,-51.73,-991.86,105.0,-603.75,962.50,1,94.479,
01/01/2000,00:59:44.42,21.23,-54.17,-992.84,157.50,-586.25,708.75,1,94.490,
01/01/2000,00:59:44.43,21.96,-57.58,-993.57,148.75,-577.50,-78.75,1,94.501,
01/01/2000,00:59:44.44,22.94,-60.15,-993.32,192.50,-726.25,-1671.25,1,94.512,
01/01/2000,00:59:44.46,23.18,-59.54,-991.62,0.0,-813.75,-918.75,1,94.332,
01/01/2000,00:59:44.47,22.57,-56.85,-991.37,61.25,-857.50,-148.75,1,94.343,
01/01/2000,00:59:44.48,21.35,-53.92,-992.35,148.75,-647.50,192.50,1,94.355,
01/01/2000,00:59:44.49,21.11,-53.68,-993.93,245.0,-516.25,498.75,1,94.366,
01/01/2000,00:59:44.50,21.35,-55.27,-994.42,175.0,-507.50,-105.0,1,94.378,
01/01/2000,00:59:44.51,21.96,-57.10,-993.57,183.75,-560.0,-560.0,1,94.389,
01/01/2000,00:59:44.52,22.69,-58.56,-991.37,122.50,-752.50,-560.0,1,94.400,
01/01/2000,00:59:44.53,22.69,-57.83,-991.13,148.75,-752.50,-507.50,1,94.411,
01/01/2000,00:59:44.54,22.20,-56.36,-992.35,26.25,-682.50,-341.25,1,94.422,
01/01/2000,00:59:44.55,21.47,-55.39,-993.69,218.75,-560.0,-43.75,1,94.433,
01/01/2000,00:59:44.56,21.23,-55.14,-994.18,105.0,-551.25,-236.25,1,94.444,
01/01/2000,00:59:44.57,21.47,-55.51,-992.59,43.75,-673.75,-253.75,1,94.455,
01/01/2000,00:59:44.58,22.45,-57.22,-991.37,323.75,-717.50,-192.50,1,94.466,
01/01/2000,00:59:44.59,22.94,-57.83,-991.13,-17.50,-875.0,-455.0,1,94.477,
01/01/2000,00:59:44.60,22.57,-57.83,-992.35,61.25,-752.50,-490.0,1,94.303,
01/01/2000,00:59:44.61,21.96,-56.73,-993.20,87.50,-647.50,-542.50,1,94.314,
01/01/2000,00:59:44.62,21.47,-55.51,-993.45,201.25,-560.0,-122.50,1,94.325,
01/01/2000,00:59:44.63,21.59,-55.14,-992.59,323.75,-595.0,-8.75,1,94.336,
01/01/2000,00:59:44.65,22.45,-56.61,-991.86,26.25,-726.25,-201.25,1,94.347,
01/01/2000,00:59:44.66,22.81,-57.71,-992.10,148.75,-770.0,-297.50,1,94.358,
01/01/2000,00:59:44.67,22.69,-58.07,-992.84,192.50,-770.0,-595.0,1,94.369,
01/01/2000,00:59:44.68,22.20,-56.97,-993.08,192.50,-726.25,-595.0,1,94.380,
01/01/2000,00:59:44.69,21.72,-55.63,-992.96,236.25,-647.50,-446.25,1,94.391,
01/01/2000,00:59:44.70,21.72,-54.78,-992.84,148.75,-647.50,-52.50,1,94.402,
01/01/2000,00:59:44.71,21.96,-55.02,-992.71,131.25,-743.75,-297.50,1,94.412,
01/01/2000,00:59:44.72,22.45,-56.85,-992.96,227.50,-717.50,-183.75,1,94.423,
01/01/2000,00:59:44.73,22.57,-57.71,-992.84,113.75,-726.25,-490.0,1,94.434,
01/01/2000,00:59:44.74,22.45,-57.58,-992.59,175.0,-735.0,-568.75,1,94.444,
01/01/2000,00:59:44.75,22.20,-56.12,-992.59,140.0,-682.50,-402.50,1,94.455,
01/01/2000,00:59:44.76,22.20,-55.39,-992.59,122.50,-717.50,-297.50,1,94.466,
01/01/2000,00:59:44.77,22.20,-54.90,-992.96,113.75,-787.50,-131.25,1,94.476,
01/01/2000,00:59:44.78,22.20,-55.63,-993.08,183.75,-682.50,-245.0,1,94.307,
01/01/2000,00:59:44.79,22.20,-56.49,-992.84,210.0,-630.0,-271.25,1,94.497,
01/01/2000,00:59:44.80,22.45,-57.34,-992.59,105.0,-700.0,-586.25,1,94.329,
01/01/2000,00:59:44.82,22.33,-56.73,-992.47,131.25,-665.0,-437.50,1,94.340,
01/01/2000,00:59:44.83,22.33,-56.12,-992.71,70.0,-700.0,-323.75,1,94.350,
01/01/2000,00:59:44.84,21.96,-55.63,-993.08,166.25,-761.25,-17.50,1,94.361,
01/01/2000,00:59:44.85,21.96,-55.88,-993.20,61.25,-551.25,-288.75,1,94.371,
01/01/2000,00:59:44.86,22.33,-56.49,-992.84,148.75,-726.25,-393.75,1,94.382,
01/01/2000,00:59:44.87,22.57,-56.73,-992.47,78.75,-717.50,-481.25,1,94.393,
01/01/2000,00:59:44.88,22.81,-56.73,-992.35,35.0,-717.50,-385.0,1,94.403,
01/01/2000,00:59:44.89,22.45,-56.73,-992.47,288.75,-743.75,-315.0,1,94.413,
01/01/2000,00:59:44.90,22.20,-56.12,-992.71,96.25,-743.75,-402.50,1,94.424,
01/01/2000,00:59:44.91,22.20,-56.12,-992.84,201.25,-665.0,-315.0,1,94.434,
01/01/2000,00:59:44.92,22.33,-56.12,-992.84,157.50,-647.50,-385.0,1,94.444,
01/01/2000,00:59:44.93,22.45,-56.36,-992.59,183.75,-673.75,-288.75,1,94.455,
01/01/2000,00:59:44.94,22.45,-56.73,-992.10,262.50,-700.0,-385.0,1,94.465,
01/01/2000,00:59:44.95,22.45,-56.85,-992.35,131.25,-691.25,-315.0,1,94.301,
01/01/2000,00:59:44.96,22.20,-56.61,-992.71,96.25,-630.0,-463.75,1,94.312,
01/01/2000,00:59:44.97,22.20,-56.00,-993.08,8.75,-770.0,-297.50,1,94.322,
01/01/2000,00:59:44.98,22.20,-56.00,-992.84,245.0,-665.0,-245.0,1,94.333,
01/01/2000,00:59:44.99,22.20,-56.24,-992.47,192.50,-778.75,-253.75,1,94.343,
01/01/2000,00:59:45.00,22.20,-56.49,-992.35,201.25,-735.0,-306.25,1,94.353,
01/01/2000,00:59:45.01,22.33,-56.85,-992.10,183.75,-796.25,-385.0,1,94.364,
01/01/2000,00:59:45.03,22.33,-56.85,-992.47,201.25,-621.25,-306.25,1,94.374,
01/01/2000,00:59:45.04,22.20,-56.36,-992.59,105.0,-612.50,-253.75,1,94.384,
01/01/2000,00:59:45.05,22.33,-56.36,-992.47,218.75,-726.25,-262.50,1,94.394,
01/01/2000,00:59:45.06,22.20,-56.24,-992.35,35.0,-691.25,-297.50,1,94.404,
01/01/2000,00:59:45.07,22.20,-56.36,-992.23,253.75,-708.75,-323.75,1,94.414,
01/01/2000,00:59:45.08,22.33,-57.10,-992.47,96.25,-603.75,-323.75,1,94.424,
01/01/2000,00:59:45.09,22.45,-56.97,-992.47,148.75,-726.25,-350.0,1,94.434,
01/01/2000,00:59:45.10,22.20,-56.49,-992.35,8.75,-612.50,-288.75,1,94.444,
01/01/2000,00:59:45.11,22.20,-56.49,-992.35,262.50,-621.25,-253.75,1,94.454,
01/01/2000,00:59:45.12,21.96,-56.12,-992.35,17.50,-595.0,-376.25,1,94.464,
01/01/2000,00:59:45.13,22.08,-56.49,-992.35,87.50,-831.25,-271.25,1,94.474,
01/01/2000,00:59:45.14,22.45,-56.85,-992.59,245.0,-621.25,-332.50,1,94.316,
01/01/2000,00:59:45.16,22.33,-56.85,-992.23,288.75,-682.50,-428.75,1,94.326,
01/01/2000,00:59:45.17,22.20,-56.36,-992.10,26.25,-586.25,-376.25,1,94.336,
01/01/2000,00:59:45.18,22.20,-56.24,-992.10,148.75,-717.50,-288.75,1,94.346,
01/01/2000,00:59:45.19,22.20,-56.12,-992.35,131.25,-586.25,-306.25,1,94.356,
01/01/2000,00:59:45.20,22.33,-56.49,-992.35,96.25,-665.0,-236.25,1,94.366,
01/01/2000,00:59:45.21,22.33,-56.61,-992.35,288.75,-682.50,-341.25,1,94.376,
01/01/2000,00:59:45.22,22.45,-56.73,-992.23,131.25,-682.50,-393.75,1,94.386,
01/01/2000,00:59:45.23,22.45,-56.61,-992.10,245.0,-700.0,-315.0,1,94.231,
01/01/2000,00:59:45.24,22.33,-56.36,-992.35,166.25,-691.25,-358.75,1,94.241,
01/01/2000,00:59:45.25,22.33,-56.36,-992.47,131.25,-638.75,-315.0,1,94.251,
01/01/2000,00:59:45.26,22.20,-56.24,-992.59,105.0,-621.25,-210.0,1,94.261,
01/01/2000,00:59:45.27,22.45,-56.36,-992.47,0.0,-787.50,-385.0,1,94.271,
01/01/2000,00:59:45.28,22.45,-56.36,-992.35,148.75,-717.50,-393.75,1,94.281,
01/01/2000,00:59:45.29,22.45,-56.36,-992.35,192.50,-673.75,-350.0,1,94.291,
01/01/2000,00:59:45.30,22.57,-56.61,-992.35,140.0,-787.50,-297.50,1,94.301,
01/01/2000,00:59:45.31,22.57,-56.36,-992.35,140.0,-813.75,-402.50,1,94.310,
01/01/2000,00:59:45.32,22.45,-56.36,-992.23,157.50,-717.50,-253.75,1,94.320,
01/01/2000,00:59:45.33,22.33,-56.36,-992.10,-43.75,-743.75,-332.50,1,94.330,
01/01/2000,00:59:45.34,22.57,-56.36,-992.10,43.75,-682.50,-323.75,1,94.340,
01/01/2000,00:59:45.35,22.69,-56.61,-992.35,245.0,-700.0,-271.25,1,94.349,
01/01/2000,00:59:45.36,22.45,-56.61,-992.47,210.0,-638.75,-271.25,1,94.359,
01/01/2000,00:59:45.38,22.20,-56.36,-992.35,253.75,-778.75,-350.0,1,94.369,
01/01/2000,00:59:45.39,22.20,-56.49,-992.47,280.0,-743.75,-341.25,1,94.378,
01/01/2000,00:59:45.40,22.33,-56.36,-992.59,210.0,-630.0,-332.50,1,94.388,
01/01/2000,00:59:45.41,22.45,-56.36,-992.59,175.0,-673.75,-192.50,1,94.397,
01/01/2000,00:59:45.42,22.45,-56.24,-992.59,262.50,-673.75,-411.25,1,94.407,
01/01/2000,00:59:45.43,22.45,-56.36,-992.47,192.50,-708.75,-428.75,1,94.416,
01/01/2000,00:59:45.44,22.45,-56.49,-992.47,17.50,-612.50,-420.0,1,94.266,
01/01/2000,00:59:45.45,22.45,-56.24,-992.59,105.0,-630.0,-253.75,1,94.276,
01/01/2000,00:59:45.46,22.57,-56.24,-992.35,315.0,-621.25,-280.0,1,94.286,
01/01/2000,00:59:45.47,22.45,-56.12,-992.35,210.0,-647.50,-288.75,1,94.295,
01/01/2000,00:59:45.48,22.45,-56.36,-992.35,218.75,-770.0,-402.50,1,94.305,
01/01/2000,00:59:45.49,22.45,-56.61,-992.23,288.75,-787.50,-411.25,1,94.314,
01/01/2000,00:59:45.50,22.33,-56.49,-992.10,35.0,-752.50,-323.75,1,94.324,
01/01/2000,00:59:45.52,22.45,-56.49,-992.35,183.75,-778.75,-411.25,1,94.333,
01/01/2000,00:59:45.53,22.33,-56.73,-992.35,192.50,-770.0,-306.25,1,94.343,
01/01/2000,00:59:45.54,22.33,-56.49,-992.47,26.25,-630.0,-245.0,1,94.352,
01/01/2000,00:59:45.55,22.20,-56.49,-992.35,131.25,-647.50,-367.50,1,94.362,
01/01/2000,00:59:45.56,21.96,-56.61,-992.23,192.50,-691.25,-306.25,1,94.371,
01/01/2000,00:59:45.57,21.96,-56.61,-992.35,315.0,-638.75,-367.50,1,94.380,
01/01/2000,00:59:45.58,22.20,-56.61,-992.59,166.25,-691.25,-428.75,1,94.389,
01/01/2000,00:59:45.59,22.20,-56.49,-992.59,148.75,-831.25,-227.50,1,94.399,
01/01/2000,00:59:45.60,21.96,-56.24,-992.59,-17.50,-682.50,-306.25,1,94.408,
01/01/2000,00:59:45.61,21.96,-56.36,-992.59,87.50,-805.0,-227.50,1,94.417,
01/01/2000,00:59:45.62,22.08,-56.61,-992.59,227.50,-612.50,-385.0,1,94.426,
01/01/2000,00:59:45.63,22.20,-56.49,-992.59,96.25,-700.0,-227.50,1,94.435,
01/01/2000,00:59:45.64,22.33,-56.61,-992.59,192.50,-717.50,-402.50,1,94.444,
01/01/2000,00:59:45.65,22.08,-56.49,-992.47,157.50,-673.75,-358.75,1,94.300,
01/01/2000,00:59:45.67,22.08,-56.36,-992.35,175.0,-630.0,-393.75,1,94.309,
01/01/2000,00:59:45.68,22.08,-56.24,-992.47,8.75,-708.75,-315.0,1,94.318,
01/01/2000,00:59:45.69,22.20,-56.36,-992.35,175.0,-717.50,-350.0,1,94.327,
01/01/2000,00:59:45.70,22.20,-56.61,-992.23,17.50,-647.50,-332.50,1,94.337,
01/01/2000,00:59:45.71,22.20,-56.61,-992.10,52.50,-726.25,-332.50,1,94.346,
01/01/2000,00:59:45.72,22.20,-56.61,-992.10,201.25,-735.0,-385.0,1,94.355,
01/01/2000,00:59:45.73,22.20,-56.36,-992.35,227.50,-743.75,-253.75,1,94.364,
01/01/2000,00:59:45.74,22.33,-56.36,-992.35,192.50,-700.0,-306.25,1,94.373,
01/01/2000,00:59:45.75,22.33,-56.36,-992.23,280.0,-726.25,-376.25,1,94.382,
01/01/2000,00:59:45.76,22.20,-56.36,-992.23,61.25,-673.75,-341.25,1,94.391,
01/01/2000,00:59:45.77,22.33,-56.49,-992.23,227.50,-743.75,-385.0,1,94.400,
01/01/2000,00:59:45.78,22.45,-56.61,-992.35,271.25,-717.50,-393.75,1,94.409,
01/01/2000,00:59:45.79,22.33,-56.36,-992.35,61.25,-726.25,-306.25,1,94.418,
01/01/2000,00:59:45.80,22.33,-56.49,-992.47,140.0,-752.50,-358.75,1,94.277,
01/01/2000,00:59:45.81,22.20,-56.24,-992.59,-35.0,-752.50,-315.0,1,94.286,
01/01/2000,00:59:45.82,22.20,-56.36,-992.47,210.0,-700.0,-385.0,1,94.295,
01/01/2000,00:59:45.83,22.20,-56.36,-992.35,78.75,-647.50,-402.50,1,94.304,
01/01/2000,00:59:45.84,22.33,-56.36,-992.47,52.50,-752.50,-350.0,1,94.313,
01/01/2000,00:59:45.85,22.33,-56.36,-992.59,105.0,-621.25,-306.25,1,94.322,
01/01/2000,00:59:45.87,22.45,-56.36,-992.35,175.0,-770.0,-358.75,1,94.331,
01/01/2000,00:59:45.88,22.45,-56.36,-992.23,148.75,-673.75,-280.0,1,94.340,
01/01/2000,00:59:45.89,22.45,-56.36,-992.23,227.50,-787.50,-306.25,1,94.349,
01/01/2000,00:59:45.90,22.57,-56.24,-992.23,61.25,-822.50,-297.50,1,94.357,
01/01/2000,00:59:45.91,22.69,-56.49,-992.23,131.25,-743.75,-341.25,1,94.366,
01/01/2000,00:59:45.92,22.57,-56.73,-992.35,183.75,-708.75,-385.0,1,94.375,
01/01/2000,00:59:45.93,22.57,-56.61,-992.35,131.25,-717.50,-315.0,1,94.384,
01/01/2000,00:59:45.94,22.57,-56.24,-992.47,122.50,-752.50,-201.25,1,94.393,
01/01/2000,00:59:45.95,22.57,-56.24,-992.59,253.75,-743.75,-393.75,1,94.401,
01/01/2000,00:59:45.96,22.69,-56.24,-992.47,175.0,-700.0,-236.25,1,94.410,
01/01/2000,00:59:45.97,22.69,-56.36,-992.47,122.50,-761.25,-341.25,1,94.419,
01/01/2000,00:59:45.98,22.69,-56.73,-992.47,332.50,-691.25,-420.0,1,94.427,
01/01/2000,00:59:45.99,22.69,-56.61,-992.47,148.75,-700.0,-428.75,1,94.436,
01/01/2000,00:59:46.00,22.57,-56.49,-992.35,253.75,-673.75,-280.0,1,94.444,
01/01/2000,00:59:46.02,22.57,-56.36,-992.23,61.25,-752.50,-236.25,1,94.308,
01/01/2000,00:59:46.03,22.45,-56.36,-992.35,201.25,-708.75,-437.50,1,94.316,
01/01/2000,00:59:46.04,22.20,-56.49,-992.35,105.0,-787.50,-210.0,1,94.325,
01/01/2000,00:59:46.05,22.33,-56.61,-992.23,192.50,-577.50,-411.25,1,94.334,
01/01/2000,00:59:46.06,22.45,-56.61,-992.35,157.50,-700.0,-253.75,1,94.343,
01/01/2000,00:59:46.07,22.45,-56.61,-992.35,87.50,-691.25,-376.25,1,94.351,
01/01/2000,00:59:46.08,22.20,-56.36,-992.35,148.75,-700.0,-280.0,1,94.360,
01/01/2000,00:59:46.09,22.20,-56.49,-992.35,175.0,-726.25,-323.75,1,94.368,
01/01/2000,00:59:46.10,22.20,-56.49,-992.47,122.50,-726.25,-306.25,1,94.377,
01/01/2000,00:59:46.11,22.20,-56.61,-992.35,288.75,-682.50,-420.0,1,94.385,
01/01/2000,00:59:46.12,22.20,-56.61,-992.10,87.50,-638.75,-253.75,1,94.394,
01/01/2000,00:59:46.13,22.20,-56.61,-992.10,43.75,-735.0,-428.75,1,94.402,
01/01/2000,00:59:46.14,22.20,-56.73,-992.23,253.75,-752.50,-376.25,1,94.411,
01/01/2000,00:59:46.15,22.20,-56.61,-992.35,183.75,-560.0,-323.75,1,94.277,
01/01/2000,00:59:46.16,22.33,-56.36,-992.59,35.0,-708.75,-297.50,1,94.286,
01/01/2000,00:59:46.18,22.33,-56.36,-992.59,87.50,-805.0,-315.0,1,94.294,
01/01/2000,00:59:46.19,22.20,-56.61,-992.71,262.50,-708.75,-288.75,1,94.303,
01/01/2000,00:59:46.20,22.20,-56.49,-992.59,183.75,-717.50,-280.0,1,94.311,
01/01/2000,00:59:46.21,22.33,-56.36,-992.59,271.25,-691.25,-350.0,1,94.320,
01/01/2000,00:59:46.22,22.33,-56.36,-992.59,70.0,-665.0,-332.50,1,94.328,
01/01/2000,00:59:46.23,22.20,-56.36,-992.47,218.75,-770.0,-358.75,1,94.337,
01/01/2000,00:59:46.24,22.45,-56.36,-992.35,61.25,-691.25,-245.0,1,94.345,
01/01/2000,00:59:46.25,22.45,-56.61,-992.23,236.25,-691.25,-350.0,1,94.354,
01/01/2000,00:59:46.26,22.57,-56.36,-992.23,-26.25,-673.75,-288.75,1,94.362,
01/01/2000,00:59:46.27,22.57,-56.49,-992.35,201.25,-673.75,-332.50,1,94.370,
01/01/2000,00:59:46.28,22.33,-56.36,-992.47,140.0,-647.50,-280.0,1,94.379,
01/01/2000,00:59:46.29,22.45,-56.49,-992.47,157.50,-761.25,-262.50,1,94.387,
01/01/2000,00:59:46.30,22.45,-56.61,-992.47,157.50,-787.50,-358.75,1,94.395,
01/01/2000,00:59:46.31,22.45,-56.36,-992.35,140.0,-717.50,-297.50,1,94.404,
01/01/2000,00:59:46.32,22.45,-56.24,-992.35,26.25,-647.50,-350.0,1,94.412,
01/01/2000,00:59:46.33,22.45,-56.36,-992.23,113.75,-673.75,-341.25,1,94.420,
01/01/2000,00:59:46.34,22.33,-56.36,-992.35,43.75,-603.75,-210.0,1,94.428,
01/01/2000,00:59:46.35,22.33,-56.36,-992.47,96.25,-796.25,-271.25,1,94.436,
01/01/2000,00:59:46.36,22.45,-56.36,-992.35,140.0,-691.25,-437.50,1,94.307,
01/01/2000,00:59:46.37,22.45,-56.24,-992.35,175.0,-673.75,-280.0,1,94.315,
01/01/2000,00:59:46.38,22.45,-56.12,-992.47,192.50,-717.50,-385.0,1,94.323,
01/01/2000,00:59:46.39,22.45,-56.24,-992.47,166.25,-700.0,-315.0,1,94.331,
01/01/2000,00:59:46.40,22.45,-56.12,-992.59,166.25,-708.75,-341.25,1,94.340,
01/01/2000,00:59:46.41,22.33,-56.24,-992.71,157.50,-665.0,-323.75,1,94.348,
01/01/2000,00:59:46.42,22.33,-56.24,-992.71,166.25,-673.75,-262.50,1,94.356,
01/01/2000,00:59:46.44,22.45,-56.12,-992.59,253.75,-691.25,-446.25,1,94.364,
01/01/2000,00:59:46.45,22.33,-56.36,-992.59,148.75,-647.50,-323.75,1,94.372,
01/01/2000,00:59:46.46,22.33,-56.49,-992.84,78.75,-647.50,-455.0,1,94.380,
01/01/2000,00:59:46.47,22.45,-56.49,-992.84,140.0,-761.25,-332.50,1,94.388,
01/01/2000,00:59:46.48,22.45,-56.36,-992.71,105.0,-691.25,-402.50,1,94.397,
01/01/2000,00:59:46.49,22.45,-56.36,-992.71,113.75,-630.0,-323.75,1,94.405,
01/01/2000,00:59:46.50,22.57,-56.49,-992.71,315.0,-673.75,-358.75,1,94.413,
01/01/2000,00:59:46.51,22.45,-56.73,-992.59,253.75,-708.75,-350.0,1,94.421,
01/01/2000,00:59:46.52,22.45,-56.61,-992.59,157.50,-761.25,-420.0,1,94.429,
01/01/2000,00:59:46.53,22.45,-56.61,-992.59,148.75,-700.0,-402.50,1,94.437,
01/01/2000,00:59:46.54,22.45,-56.36,-992.59,122.50,-796.25,-262.50,1,94.444,
01/01/2000,00:59:46.55,22.45,-56.36,-992.47,105.0,-691.25,-385.0,1,94.452,
01/01/2000,00:59:46.56,22.45,-56.36,-992.47,140.0,-647.50,-428.75,1,94.460,
01/01/2000,00:59:46.58,22.57,-56.73,-992.59,148.75,-656.25,-218.75,1,94.334,
01/01/2000,00:59:46.58,22.69,-56.61,-992.59,122.50,-665.0,-358.75,1,94.342,
01/01/2000,00:59:46.60,22.69,-56.61,-992.59,122.50,-691.25,-280.0,1,94.350,
01/01/2000,00:59:46.61,22.69,-56.36,-992.47,166.25,-717.50,-218.75,1,94.358,
01/01/2000,00:59:46.62,22.45,-56.36,-992.35,236.25,-682.50,-280.0,1,94.366,
01/01/2000,00:59:46.63,22.45,-56.36,-992.47,148.75,-700.0,-323.75,1,94.374,
01/01/2000,00:59:46.64,22.45,-56.36,-992.59,148.75,-700.0,-358.75,1,94.382,
01/01/2000,00:59:46.65,22.45,-56.12,-992.47,113.75,-682.50,-280.0,1,94.390,
01/01/2000,00:59:46.66,22.45,-56.36,-992.35,166.25,-638.75,-288.75,1,94.398,
01/01/2000,00:59:46.67,22.33,-56.12,-992.35,26.25,-761.25,-297.50,1,94.406,
01/01/2000,00:59:46.68,22.33,-56.24,-992.59,43.75,-735.0,-271.25,1,94.282,
01/01/2000,00:59:46.69,22.33,-56.12,-992.59,61.25,-717.50,-385.0,1,94.290,
01/01/2000,00:59:46.70,22.33,-56.00,-992.47,166.25,-682.50,-367.50,1,94.298,
01/01/2000,00:59:46.72,22.45,-56.24,-992.35,297.50,-682.50,-385.0,1,94.306,
01/01/2000,00:59:46.73,22.69,-56.36,-992.35,52.50,-708.75,-227.50,1,94.313,
01/01/2000,00:59:46.74,22.45,-56.36,-992.35,227.50,-770.0,-332.50,1,94.321,
01/01/2000,00:59:46.75,22.57,-56.61,-992.35,157.50,-743.75,-288.75,1,94.329,
01/01/2000,00:59:46.76,22.57,-56.49,-992.35,175.0,-665.0,-350.0,1,94.337,
01/01/2000,00:59:46.77,22.45,-56.24,-992.35,122.50,-735.0,-236.25,1,94.345,
01/01/2000,00:59:46.78,22.45,-56.36,-992.47,113.75,-682.50,-183.75,1,94.353,
01/01/2000,00:59:46.79,22.57,-56.24,-992.35,35.0,-743.75,-96.25,1,94.360,
01/01/2000,00:59:46.80,22.45,-56.00,-992.35,201.25,-822.50,288.75,1,94.368,
01/01/2000,00:59:46.81,22.45,-55.88,-992.35,166.25,-717.50,918.75,1,94.376,
01/01/2000,00:59:46.82,22.45,-55.39,-992.35,122.50,-682.50,1575.0,1,94.384,
01/01/2000,00:59:46.83,22.33,-55.51,-992.35,192.50,-647.50,2835.0,1,94.391,
01/01/2000,00:59:46.84,22.45,-55.27,-992.10,157.50,-595.0,4016.25,1,94.399,
01/01/2000,00:59:46.85,22.45,-55.63,-992.23,148.75,-516.25,5503.75,1,94.407,
01/01/2000,00:59:46.86,22.45,-55.63,-992.35,0.0,-428.75,6125.0,1,94.414,
01/01/2000,00:59:46.87,22.45,-55.75,-992.35,157.50,-560.0,6308.75,1,94.422,
01/01/2000,00:59:46.88,22.33,-55.75,-992.47,-8.75,-367.50,6763.75,1,94.429,
01/01/2000,00:59:46.89,22.33,-55.51,-992.47,157.50,-420.0,6991.25,1,94.309,
01/01/2000,00:59:46.90,22.33,-55.39,-992.35,113.75,-498.75,7665.0,1,94.317,
01/01/2000,00:59:46.91,22.33,-55.39,-992.23,96.25,-411.25,9607.50,1,94.324,
01/01/2000,00:59:46.93,22.33,-55.27,-992.35,-8.75,-341.25,12635.0,1,94.332,
01/01/2000,00:59:46.94,22.33,-55.14,-992.35,78.75,-192.50,14070.0,1,94.340,
01/01/2000,00:59:46.95,22.57,-55.39,-992.35,70.0,-175.0,14700.0,1,94.347,
01/01/2000,00:59:46.96,22.45,-55.63,-992.35,-140.0,-271.25,14551.25,1,94.355,
01/01/2000,00:59:46.97,22.33,-56.00,-992.35,0.0,-183.75,14070.0,1,94.362,
01/01/2000,00:59:46.98,22.45,-55.75,-992.35,17.50,-350.0,13081.25,1,94.370,
01/01/2000,00:59:46.99,22.57,-55.88,-992.35,87.50,-297.50,11900.0,1,94.378,
01/01/2000,00:59:47.00,22.69,-56.12,-992.10,113.75,-315.0,10823.75,1,94.385,
01/01/2000,00:59:47.01,22.45,-55.88,-992.23,-35.0,-341.25,10010.0,1,94.393,
01/01/2000,00:59:47.02,22.45,-56.12,-992.35,26.25,-420.0,9283.75,1,94.400,
01/01/2000,00:59:47.03,22.45,-56.49,-992.35,183.75,-463.75,8058.75,1,94.407,
01/01/2000,00:59:47.04,22.45,-56.36,-992.35,-26.25,-481.25,6973.75,1,94.415,
01/01/2000,00:59:47.05,22.45,-56.61,-992.35,8.75,-437.50,6361.25,1,94.422,
01/01/2000,00:59:47.06,22.45,-56.61,-992.47,131.25,-560.0,6798.75,1,94.305,
01/01/2000,00:59:47.07,22.33,-56.24,-992.47,26.25,-315.0,8198.75,1,94.312,
01/01/2000,00:59:47.08,22.33,-56.49,-992.47,183.75,-420.0,8907.50,1,94.320,
01/01/2000,00:59:47.09,22.45,-56.49,-992.59,157.50,-446.25,8303.75,1,94.327,
01/01/2000,00:59:47.10,22.45,-56.85,-992.47,78.75,-490.0,7210.0,1,94.335,
01/01/2000,00:59:47.11,22.45,-57.34,-992.47,-8.75,-568.75,4900.0,1,94.342,
01/01/2000,00:59:47.12,22.45,-57.34,-992.47,43.75,-525.0,3325.0,1,94.350,
01/01/2000,00:59:47.14,22.33,-57.34,-992.23,140.0,-586.25,1688.75,1,94.357,
01/01/2000,00:59:47.15,22.33,-56.97,-992.35,236.25,-700.0,1417.50,1,94.364,
01/01/2000,00:59:47.16,22.33,-56.73,-992.59,113.75,-603.75,1723.75,1,94.372,
01/01/2000,00:59:47.17,22.45,-56.61,-992.71,218.75,-665.0,2327.50,1,94.379,
01/01/2000,00:59:47.18,22.45,-56.61,-992.35,105.0,-603.75,2878.75,1,94.386,
01/01/2000,00:59:47.19,22.20,-56.85,-992.10,201.25,-638.75,2922.50,1,94.394,
01/01/2000,00:59:47.20,22.45,-56.97,-992.10,140.0,-647.50,2677.50,1,94.278,
01/01/2000,00:59:47.21,22.33,-56.85,-992.10,52.50,-735.0,1706.25,1,94.286,
01/01/2000,00:59:47.22,22.20,-56.97,-992.10,157.50,-595.0,875.0,1,94.293,
01/01/2000,00:59:47.23,22.33,-56.85,-992.23,192.50,-647.50,140.0,1,94.301,
01/01/2000,00:59:47.24,22.33,-56.85,-992.10,183.75,-630.0,-105.0,1,94.308,
01/01/2000,00:59:47.25,22.45,-56.73,-991.98,157.50,-665.0,-140.0,1,94.315,
01/01/2000,00:59:47.26,22.45,-56.49,-991.86,210.0,-752.50,-166.25,1,94.323,
01/01/2000,00:59:47.27,22.57,-56.49,-991.98,262.50,-638.75,-218.75,1,94.330,
01/01/2000,00:59:47.29,22.45,-56.36,-992.23,131.25,-682.50,-87.50,1,94.337,
01/01/2000,00:59:47.30,22.20,-56.36,-992.23,96.25,-595.0,-52.50,1,94.344,
01/01/2000,00:59:47.31,22.08,-56.61,-992.10,245.0,-691.25,-297.50,1,94.352,
01/01/2000,00:59:47.32,22.08,-56.49,-991.86,35.0,-665.0,-297.50,1,94.359,
01/01/2000,00:59:47.33,22.20,-56.61,-991.86,61.25,-673.75,-227.50,1,94.366,
01/01/2000,00:59:47.34,22.33,-56.73,-992.10,201.25,-603.75,-297.50,1,94.373,
01/01/2000,00:59:47.35,22.33,-56.61,-992.10,87.50,-708.75,-253.75,1,94.381,
01/01/2000,00:59:47.36,22.20,-56.24,-992.10,140.0,-822.50,-411.25,1,94.388,
01/01/2000,00:59:47.37,22.20,-56.24,-991.98,271.25,-726.25,-323.75,1,94.395,
01/01/2000,00:59:47.38,22.20,-56.49,-991.98,113.75,-726.25,-271.25,1,94.402,
01/01/2000,00:59:47.39,22.20,-56.24,-991.86,157.50,-700.0,-385.0,1,94.409,
01/01/2000,00:59:47.40,22.33,-56.36,-992.10,61.25,-595.0,-227.50,1,94.416,
01/01/2000,00:59:47.41,22.45,-56.61,-992.10,253.75,-630.0,-297.50,1,94.423,
01/01/2000,00:59:47.42,22.20,-56.49,-992.10,245.0,-787.50,-411.25,1,94.311,
01/01/2000,00:59:47.43,22.20,-56.36,-992.10,210.0,-665.0,-271.25,1,94.318,
01/01/2000,00:59:47.44,22.33,-56.36,-992.10,52.50,-673.75,-236.25,1,94.325,
01/01/2000,00:59:47.45,22.33,-56.24,-992.10,175.0,-665.0,-306.25,1,94.332,
01/01/2000,00:59:47.46,22.45,-56.36,-992.10,218.75,-752.50,-288.75,1,94.340,
01/01/2000,00:59:47.47,22.45,-56.36,-992.10,26.25,-752.50,-385.0,1,94.347,
01/01/2000,00:59:47.48,22.33,-56.36,-992.10,218.75,-787.50,-367.50,1,94.354,
01/01/2000,00:59:47.50,22.33,-56.36,-992.10,43.75,-656.25,-306.25,1,94.361,
01/01/2000,00:59:47.51,22.45,-56.36,-992.10,122.50,-647.50,-420.0,1,94.368,
01/01/2000,00:59:47.52,22.57,-56.36,-991.98,26.25,-656.25,-402.50,1,94.375,
01/01/2000,00:59:47.53,22.57,-56.36,-991.98,227.50,-778.75,-350.0,1,94.382,
01/01/2000,00:59:47.54,22.45,-56.36,-991.98,297.50,-647.50,-332.50,1,94.389,
01/01/2000,00:59:47.55,22.45,-56.00,-992.10,157.50,-586.25,-323.75,1,94.396,
01/01/2000,00:59:47.56,22.57,-56.12,-992.10,17.50,-726.25,-402.50,1,94.286,
01/01/2000,00:59:47.57,22.33,-56.12,-991.98,78.75,-673.75,-306.25,1,94.293,
01/01/2000,00:59:47.58,22.33,-56.36,-991.86,166.25,-647.50,-323.75,1,94.300,
01/01/2000,00:59:47.59,22.20,-56.12,-991.86,166.25,-778.75,-350.0,1,94.307,
01/01/2000,00:59:47.60,22.45,-56.12,-991.98,70.0,-638.75,-393.75,1,94.314,
01/01/2000,00:59:47.61,22.33,-56.12,-992.10,201.25,-691.25,-350.0,1,94.321,
01/01/2000,00:59:47.62,22.33,-56.12,-991.98,96.25,-770.0,-358.75,1,94.328,
01/01/2000,00:59:47.64,22.33,-56.12,-992.10,113.75,-647.50,-437.50,1,94.335,
01/01/2000,00:59:47.65,22.33,-56.49,-992.35,210.0,-665.0,-306.25,1,94.342,
01/01/2000,00:59:47.66,22.33,-56.12,-992.35,61.25,-778.75,-393.75,1,94.349,
01/01/2000,00:59:47.67,22.45,-56.36,-992.47,236.25,-612.50,-323.75,1,94.356,
01/01/2000,00:59:47.68,22.45,-56.49,-992.35,148.75,-525.0,-315.0,1,94.363,
01/01/2000,00:59:47.69,22.45,-56.36,-992.47,52.50,-595.0,-402.50,1,94.370,
01/01/2000,00:59:47.70,22.45,-56.36,-992.59,201.25,-708.75,-358.75,1,94.261,
01/01/2000,00:59:47.72,22.45,-56.36,-992.59,113.75,-665.0,-358.75,1,94.268,
01/01/2000,00:59:47.73,22.45,-56.24,-992.35,35.0,-761.25,-306.25,1,94.275,
01/01/2000,00:59:47.74,22.20,-56.36,-992.35,35.0,-752.50,-297.50,1,94.282,
01/01/2000,00:59:47.75,22.33,-56.61,-992.35,183.75,-612.50,-341.25,1,94.289,
01/01/2000,00:59:47.76,22.20,-56.49,-992.35,96.25,-673.75,-420.0,1,94.296,
01/01/2000,00:59:47.77,22.33,-56.36,-992.35,35.0,-560.0,-446.25,1,94.303,
01/01/2000,00:59:47.78,22.33,-56.36,-992.35,113.75,-717.50,-306.25,1,94.310,
01/01/2000,00:59:47.79,22.33,-56.36,-992.35,78.75,-691.25,-393.75,1,94.317,
01/01/2000,00:59:47.80,22.45,-56.36,-992.35,280.0,-691.25,-350.0,1,94.324,
01/01/2000,00:59:47.81,22.33,-56.36,-992.35,192.50,-752.50,-420.0,1,94.331,
01/01/2000,00:59:47.82,22.20,-56.36,-992.35,78.75,-647.50,-332.50,1,94.337,
01/01/2000,00:59:47.83,22.33,-56.49,-992.23,148.75,-770.0,-218.75,1,94.344,
01/01/2000,00:59:47.84,22.33,-56.36,-992.23,245.0,-691.25,-358.75,1,94.351,
01/01/2000,00:59:47.85,22.20,-56.36,-992.10,192.50,-560.0,-402.50,1,94.358,
01/01/2000,00:59:47.86,21.96,-56.36,-992.23,35.0,-840.0,-280.0,1,94.365,
01/01/2000,00:59:47.87,22.20,-56.36,-992.23,227.50,-700.0,-385.0,1,94.371,
01/01/2000,00:59:47.88,22.20,-56.24,-992.47,183.75,-700.0,-420.0,1,94.378,
01/01/2000,00:59:47.89,22.20,-56.24,-992.35,236.25,-770.0,-393.75,1,94.385,
01/01/2000,00:59:47.90,22.08,-56.36,-992.35,175.0,-691.25,-455.0,1,94.391,
01/01/2000,00:59:47.91,22.08,-56.36,-992.35,70.0,-638.75,-411.25,1,94.398,
01/01/2000,00:59:47.92,22.33,-56.36,-992.47,175.0,-708.75,-358.75,1,94.293,
01/01/2000,00:59:47.93,22.33,-56.36,-992.59,192.50,-638.75,-297.50,1,94.299,
01/01/2000,00:59:47.94,22.20,-56.36,-992.59,61.25,-700.0,-341.25,1,94.306,
01/01/2000,00:59:47.95,22.33,-56.36,-992.47,166.25,-691.25,-411.25,1,94.313,
01/01/2000,00:59:47.96,22.33,-56.49,-992.47,192.50,-691.25,-341.25,1,94.320,
01/01/2000,00:59:47.97,22.45,-56.36,-992.59,131.25,-787.50,-341.25,1,94.326,
01/01/2000,00:59:47.99,22.45,-56.36,-992.47,183.75,-691.25,-446.25,1,94.333,
01/01/2000,00:59:48.00,22.33,-56.36,-992.47,253.75,-673.75,-210.0,1,94.340,
01/01/2000,00:59:48.01,22.33,-56.49,-992.47,183.75,-743.75,-323.75,1,94.346,
01/01/2000,00:59:48.02,22.20,-56.49,-992.59,61.25,-796.25,-323.75,1,94.353,
01/01/2000,00:59:48.03,22.45,-56.49,-992.47,78.75,-630.0,-358.75,1,94.360,
01/01/2000,00:59:48.04,22.33,-56.49,-992.47,140.0,-752.50,-323.75,1,94.366,
01/01/2000,00:59:48.05,22.45,-56.49,-992.47,61.25,-752.50,-446.25,1,94.373,
01/01/2000,00:59:48.06,22.45,-56.24,-992.47,61.25,-682.50,-332.50,1,94.379,
01/01/2000,00:59:48.07,22.57,-56.36,-992.35,175.0,-726.25,-385.0,1,94.386,
01/01/2000,00:59:48.08,22.45,-56.49,-992.35,166.25,-638.75,-393.75,1,94.393,
01/01/2000,00:59:48.09,22.45,-56.61,-992.47,113.75,-700.0,-306.25,1,94.399,
01/01/2000,00:59:48.10,22.45,-56.49,-992.47,192.50,-770.0,-420.0,1,94.406,
01/01/2000,00:59:48.11,22.45,-56.49,-992.47,131.25,-647.50,-463.75,1,94.412,
01/01/2000,00:59:48.12,22.33,-56.36,-992.84,245.0,-787.50,-595.0,1,94.309,
01/01/2000,00:59:48.14,22.94,-56.24,-992.35,78.75,-708.75,-341.25,1,94.316,
01/01/2000,00:59:48.15,22.69,-56.36,-992.23,140.0,-647.50,-210.0,1,94.322,
01/01/2000,00:59:48.16,21.96,-56.85,-992.47,122.50,-717.50,-166.25,1,94.329,
01/01/2000,00:59:48.17,21.59,-56.73,-992.84,78.75,-691.25,-595.0,1,94.335,
01/01/2000,00:59:48.18,21.96,-56.24,-992.84,131.25,-656.25,-647.50,1,94.342,
01/01/2000,00:59:48.19,22.57,-55.88,-992.84,8.75,-647.50,-192.50,1,94.348,
01/01/2000,00:59:48.20,22.20,-56.24,-992.59,78.75,-735.0,-70.0,1,94.355,
01/01/2000,00:59:48.21,22.33,-56.85,-992.47,245.0,-761.25,-621.25,1,94.253,
01/01/2000,00:59:48.22,22.33,-56.85,-992.71,315.0,-691.25,-533.75,1,94.259,
01/01/2000,00:59:48.23,22.45,-56.12,-992.84,96.25,-708.75,-376.25,1,94.266,
01/01/2000,00:59:48.24,22.45,-56.00,-992.59,402.50,-630.0,-323.75,1,94.273,
01/01/2000,00:59:48.25,22.45,-56.12,-992.23,148.75,-638.75,-157.50,1,94.279,
01/01/2000,00:59:48.26,22.20,-56.36,-992.23,218.75,-700.0,-192.50,1,94.286,
01/01/2000,00:59:48.28,22.20,-56.85,-992.35,175.0,-656.25,-437.50,1,94.292,
01/01/2000,00:59:48.29,22.45,-56.73,-992.47,78.75,-761.25,-498.75,1,94.299,
01/01/2000,00:59:48.30,22.45,-56.49,-992.35,288.75,-682.50,-288.75,1,94.305,
01/01/2000,00:59:48.31,22.20,-56.49,-991.98,315.0,-743.75,-350.0,1,94.312,
01/01/2000,00:59:48.32,22.20,-56.24,-992.10,262.50,-682.50,-323.75,1,94.318,
01/01/2000,00:59:48.33,22.20,-56.61,-992.23,87.50,-621.25,-498.75,1,94.325,
01/01/2000,00:59:48.34,22.45,-56.61,-992.47,122.50,-700.0,-306.25,1,94.331,
01/01/2000,00:59:48.35,22.45,-56.49,-992.47,148.75,-682.50,-341.25,1,94.337,
01/01/2000,00:59:48.36,22.57,-56.61,-992.10,52.50,-822.50,-245.0,1,94.344,
01/01/2000,00:59:48.37,22.33,-56.36,-991.98,148.75,-761.25,-350.0,1,94.350,
01/01/2000,00:59:48.38,22.20,-56.61,-992.10,227.50,-630.0,-323.75,1,94.357,
01/01/2000,00:59:48.39,22.33,-56.36,-992.35,262.50,-691.25,-376.25,1,94.363,
01/01/2000,00:59:48.40,22.45,-56.36,-992.35,61.25,-708.75,-358.75,1,94.369,
01/01/2000,00:59:48.41,22.45,-56.36,-992.23,201.25,-638.75,-253.75,1,94.376,
01/01/2000,00:59:48.42,22.45,-56.49,-992.10,35.0,-691.25,-376.25,1,94.382,
01/01/2000,00:59:48.43,22.33,-56.61,-991.98,192.50,-743.75,-341.25,1,94.388,
01/01/2000,00:59:48.44,22.33,-56.61,-992.23,96.25,-682.50,-367.50,1,94.395,
01/01/2000,00:59:48.45,22.33,-56.36,-992.47,192.50,-717.50,-385.0,1,94.401,
01/01/2000,00:59:48.46,22.45,-56.36,-992.35,140.0,-717.50,-297.50,1,94.407,
01/01/2000,00:59:48.47,22.45,-56.24,-992.35,280.0,-656.25,-271.25,1,94.413,
01/01/2000,00:59:48.48,22.33,-56.36,-992.23,227.50,-656.25,-306.25,1,94.314,
01/01/2000,00:59:48.49,22.20,-56.61,-992.35,96.25,-700.0,-455.0,1,94.321,
01/01/2000,00:59:48.50,22.45,-56.61,-992.59,201.25,-717.50,-350.0,1,94.327,
01/01/2000,00:59:48.51,22.45,-56.49,-992.59,105.0,-752.50,-315.0,1,94.333,
01/01/2000,00:59:48.52,22.33,-56.49,-992.59,210.0,-638.75,-227.50,1,94.340,
01/01/2000,00:59:48.53,22.20,-56.49,-992.23,131.25,-656.25,-332.50,1,94.346,
01/01/2000,00:59:48.55,22.33,-56.49,-992.10,78.75,-770.0,-288.75,1,94.352,
01/01/2000,00:59:48.56,22.45,-56.61,-992.35,-8.75,-761.25,-315.0,1,94.358,
01/01/2000,00:59:48.57,22.57,-56.61,-992.35,87.50,-796.25,-323.75,1,94.365,
01/01/2000,00:59:48.58,22.33,-56.61,-992.35,245.0,-682.50,-341.25,1,94.371,
01/01/2000,00:59:48.59,22.20,-56.49,-992.23,236.25,-682.50,-341.25,1,94.377,
01/01/2000,00:59:48.60,22.20,-56.36,-992.23,210.0,-761.25,-271.25,1,94.383,
01/01/2000,00:59:48.61,22.20,-56.49,-992.47,61.25,-787.50,-271.25,1,94.389,
01/01/2000,00:59:48.62,22.45,-56.61,-992.35,87.50,-682.50,-332.50,1,94.396,
01/01/2000,00:59:48.63,22.45,-56.61,-992.35,218.75,-726.25,-323.75,1,94.402,
01/01/2000,00:59:48.64,22.33,-56.61,-992.35,-26.25,-752.50,-315.0,1,94.408,
01/01/2000,00:59:48.65,22.33,-56.61,-992.59,166.25,-630.0,-332.50,1,94.414,
01/01/2000,00:59:48.66,22.45,-56.61,-992.59,236.25,-682.50,-341.25,1,94.420,
01/01/2000,00:59:48.67,22.45,-56.73,-992.59,105.0,-770.0,-358.75,1,94.426,
01/01/2000,00:59:48.68,22.20,-56.85,-992.59,140.0,-726.25,-376.25,1,94.432,
01/01/2000,00:59:48.70,22.08,-56.85,-992.59,52.50,-700.0,-446.25,1,94.336,
01/01/2000,00:59:48.71,22.08,-56.73,-992.47,96.25,-647.50,-341.25,1,94.342,
01/01/2000,00:59:48.72,22.33,-56.61,-992.59,236.25,-586.25,-332.50,1,94.348,
01/01/2000,00:59:48.73,22.20,-56.61,-992.35,122.50,-603.75,-271.25,1,94.252,
01/01/2000,00:59:48.74,22.20,-56.73,-992.23,323.75,-673.75,-358.75,1,94.258,
01/01/2000,00:59:48.75,22.33,-56.85,-992.10,288.75,-673.75,-437.50,1,94.264,
01/01/2000,00:59:48.77,22.45,-56.61,-992.35,175.0,-717.50,-280.0,1,94.270,
01/01/2000,00:59:48.78,22.45,-56.49,-992.47,183.75,-691.25,-411.25,1,94.276,
01/01/2000,00:59:48.79,22.45,-56.61,-992.59,105.0,-805.0,-271.25,1,94.283,
01/01/2000,00:59:48.80,22.33,-56.36,-992.47,148.75,-787.50,-280.0,1,94.289,
01/01/2000,00:59:48.81,22.33,-56.73,-992.47,166.25,-726.25,-315.0,1,94.295,
01/01/2000,00:59:48.82,22.33,-56.61,-992.71,87.50,-603.75,-358.75,1,94.301,
01/01/2000,00:59:48.83,22.45,-56.61,-992.59,271.25,-586.25,-131.25,1,94.307,
01/01/2000,00:59:48.84,22.45,-56.61,-992.59,271.25,-752.50,-280.0,1,94.313,
01/01/2000,00:59:48.85,22.20,-56.61,-992.59,96.25,-682.50,-367.50,1,94.319,
01/01/2000,00:59:48.86,22.20,-56.49,-992.59,157.50,-796.25,-350.0,1,94.325,
01/01/2000,00:59:48.87,22.33,-56.61,-992.71,113.75,-656.25,-420.0,1,94.332,
01/01/2000,00:59:48.88,22.33,-56.49,-992.84,96.25,-603.75,-341.25,1,94.338,
01/01/2000,00:59:48.89,22.45,-56.61,-992.71,253.75,-726.25,-280.0,1,94.344,
01/01/2000,00:59:48.90,22.45,-56.85,-992.59,192.50,-603.75,-332.50,1,94.350,
01/01/2000,00:59:48.91,22.33,-56.85,-992.47,26.25,-665.0,-393.75,1,94.356,
01/01/2000,00:59:48.92,22.33,-56.85,-992.47,78.75,-665.0,-323.75,1,94.362,
01/01/2000,00:59:48.93,22.33,-56.85,-992.47,201.25,-647.50,-315.0,1,94.368,
01/01/2000,00:59:48.94,22.33,-56.85,-992.47,52.50,-813.75,-306.25,1,94.374,
01/01/2000,00:59:48.95,22.20,-56.85,-992.59,175.0,-708.75,-385.0,1,94.380,
01/01/2000,00:59:48.96,22.20,-56.85,-992.59,78.75,-691.25,-192.50,1,94.386,
01/01/2000,00:59:48.98,22.33,-56.85,-992.71,218.75,-691.25,-332.50,1,94.292,
01/01/2000,00:59:48.99,22.20,-56.73,-992.71,78.75,-735.0,-315.0,1,94.298,
01/01/2000,00:59:49.00,22.33,-57.10,-992.59,297.50,-735.0,-411.25,1,94.304,
01/01/2000,00:59:49.01,22.20,-56.85,-992.59,122.50,-770.0,-323.75,1,94.310,
01/01/2000,00:59:49.02,22.08,-56.73,-992.59,210.0,-700.0,-411.25,1,94.316,
01/01/2000,00:59:49.03,22.20,-56.61,-992.59,157.50,-612.50,-367.50,1,94.322,
01/01/2000,00:59:49.04,22.33,-56.61,-992.59,8.75,-656.25,-498.75,1,94.328,
01/01/2000,00:59:49.05,22.33,-56.61,-992.47,105.0,-735.0,-210.0,1,94.334,
01/01/2000,00:59:49.06,22.33,-56.85,-992.47,201.25,-647.50,-323.75,1,94.340,
01/01/2000,00:59:49.07,22.20,-56.61,-992.47,-26.25,-735.0,-350.0,1,94.346,
01/01/2000,00:59:49.08,22.33,-56.49,-992.47,236.25,-673.75,-218.75,1,94.351,
01/01/2000,00:59:49.09,22.33,-56.49,-992.47,157.50,-665.0,-341.25,1,94.357,
01/01/2000,00:59:49.10,22.20,-56.73,-992.35,157.50,-743.75,-402.50,1,94.363,
01/01/2000,00:59:49.11,22.08,-56.85,-992.23,183.75,-665.0,-332.50,1,94.369,
01/01/2000,00:59:49.12,22.08,-56.85,-992.35,280.0,-665.0,-472.50,1,94.277,
01/01/2000,00:59:49.13,22.20,-56.85,-992.47,131.25,-700.0,-253.75,1,94.283,
01/01/2000,00:59:49.14,22.33,-56.73,-992.59,262.50,-682.50,-376.25,1,94.289,
01/01/2000,00:59:49.15,22.20,-56.61,-992.35,175.0,-647.50,-306.25,1,94.295,
01/01/2000,00:59:49.16,22.20,-56.85,-992.23,253.75,-708.75,-420.0,1,94.301,
01/01/2000,00:59:49.17,22.20,-56.73,-992.23,96.25,-560.0,-402.50,1,94.306,
01/01/2000,00:59:49.19,22.45,-56.85,-992.59,96.25,-708.75,-455.0,1,94.312,
01/01/2000,00:59:49.20,22.45,-56.73,-992.59,262.50,-630.0,-288.75,1,94.318,
01/01/2000,00:59:49.21,22.45,-56.97,-992.59,140.0,-752.50,-323.75,1,94.324,
01/01/2000,00:59:49.22,22.20,-56.85,-992.59,61.25,-787.50,-358.75,1,94.330,
01/01/2000,00:59:49.23,22.20,-56.85,-992.71,376.25,-700.0,-376.25,1,94.336,
01/01/2000,00:59:49.24,22.45,-56.85,-992.71,262.50,-717.50,-393.75,1,94.342,
01/01/2000,00:59:49.25,22.45,-57.10,-992.59,113.75,-656.25,-315.0,1,94.251,
01/01/2000,00:59:49.26,22.45,-56.97,-992.47,148.75,-638.75,-376.25,1,94.256,
01/01/2000,00:59:49.27,22.33,-56.85,-992.59,70.0,-761.25,-393.75,1,94.262,
01/01/2000,00:59:49.28,22.33,-56.73,-992.71,105.0,-691.25,-332.50,1,94.268,
01/01/2000,00:59:49.29,22.45,-56.85,-992.59,262.50,-595.0,-358.75,1,94.274,
01/01/2000,00:59:49.30,22.45,-56.85,-992.47,218.75,-778.75,-262.50,1,94.280,
01/01/2000,00:59:49.31,22.45,-56.85,-992.59,280.0,-682.50,-393.75,1,94.286,
01/01/2000,00:59:49.32,22.33,-56.73,-992.59,78.75,-665.0,-376.25,1,94.292,
01/01/2000,00:59:49.34,22.33,-56.61,-992.59,218.75,-813.75,-236.25,1,94.297,
01/01/2000,00:59:49.35,22.45,-56.36,-992.71,-26.25,-656.25,-280.0,1,94.303,
01/01/2000,00:59:49.36,22.57,-56.73,-992.71,157.50,-621.25,-306.25,1,94.309,
01/01/2000,00:59:49.37,22.57,-56.73,-992.59,140.0,-665.0,-332.50,1,94.315,
01/01/2000,00:59:49.38,22.57,-56.61,-992.59,131.25,-691.25,-393.75,1,94.320,
01/01/2000,00:59:49.39,22.45,-56.73,-992.59,227.50,-665.0,-332.50,1,94.326,
01/01/2000,00:59:49.40,22.33,-56.36,-992.71,87.50,-647.50,-288.75,1,94.332,
01/01/2000,00:59:49.41,22.33,-56.49,-992.84,122.50,-708.75,-218.75,1,94.338,
01/01/2000,00:59:49.42,22.33,-56.49,-992.71,105.0,-656.25,-446.25,1,94.343,
01/01/2000,00:59:49.43,22.20,-56.49,-992.59,227.50,-743.75,-332.50,1,94.349,
01/01/2000,00:59:49.44,22.20,-56.36,-992.59,350.0,-682.50,-393.75,1,94.355,
01/01/2000,00:59:49.45,22.20,-56.36,-992.71,288.75,-665.0,-280.0,1,94.361,
01/01/2000,00:59:49.46,22.33,-56.36,-992.84,148.75,-726.25,-218.75,1,94.366,
01/01/2000,00:59:49.47,22.08,-56.49,-992.84,218.75,-796.25,-262.50,1,94.277,
01/01/2000,00:59:49.48,22.08,-56.61,-992.84,105.0,-673.75,-437.50,1,94.283,
01/01/2000,00:59:49.49,22.20,-56.61,-992.84,87.50,-647.50,-192.50,1,94.289,
01/01/2000,00:59:49.50,22.33,-56.61,-992.84,78.75,-665.0,-271.25,1,94.294,
01/01/2000,00:59:49.51,22.33,-56.49,-992.84,166.25,-700.0,-280.0,1,94.300,
01/01/2000,00:59:49.52,22.20,-56.49,-992.96,210.0,-691.25,-341.25,1,94.306,
01/01/2000,00:59:49.54,22.08,-56.36,-993.08,96.25,-682.50,-385.0,1,94.311,
01/01/2000,00:59:49.55,22.20,-56.36,-992.96,78.75,-735.0,-393.75,1,94.317,
01/01/2000,00:59:49.56,22.20,-56.49,-992.84,157.50,-787.50,-402.50,1,94.323,
01/01/2000,00:59:49.57,22.33,-56.36,-992.96,183.75,-717.50,-323.75,1,94.328,
01/01/2000,00:59:49.58,22.20,-56.61,-992.96,175.0,-770.0,-262.50,1,94.334,
01/01/2000,00:59:49.59,22.20,-56.61,-993.08,113.75,-761.25,-498.75,1,94.340,
01/01/2000,00:59:49.60,22.08,-56.61,-993.20,236.25,-647.50,-288.75,1,94.345,
01/01/2000,00:59:49.61,22.20,-56.61,-993.20,131.25,-717.50,-367.50,1,94.351,
01/01/2000,00:59:49.62,22.20,-56.73,-993.08,-61.25,-726.25,-306.25,1,94.356,
01/01/2000,00:59:49.63,22.20,-56.61,-992.84,218.75,-700.0,-288.75,1,94.362,
01/01/2000,00:59:49.64,22.20,-56.85,-992.84,113.75,-700.0,-367.50,1,94.274,
01/01/2000,00:59:49.65,22.20,-56.73,-992.84,140.0,-735.0,-428.75,1,94.373,
01/01/2000,00:59:49.66,22.08,-56.85,-992.84,183.75,-673.75,-411.25,1,94.286,
01/01/2000,00:59:49.67,22.08,-56.61,-992.84,96.25,-708.75,-341.25,1,94.384,
01/01/2000,00:59:49.69,22.45,-56.61,-992.59,78.75,-595.0,-315.0,1,94.297,
01/01/2000,00:59:49.70,22.33,-56.85,-992.71,157.50,-656.25,-218.75,1,94.303,
01/01/2000,00:59:49.71,22.33,-56.73,-992.59,131.25,-743.75,-472.50,1,94.308,
01/01/2000,00:59:49.72,22.45,-56.73,-992.71,288.75,-691.25,-420.0,1,94.314,
01/01/2000,00:59:49.73,22.45,-56.61,-992.84,253.75,-691.25,-288.75,1,94.319,
01/01/2000,00:59:49.74,22.33,-56.49,-992.84,166.25,-621.25,-323.75,1,94.325,
01/01/2000,00:59:49.75,22.20,-56.61,-993.08,87.50,-647.50,-341.25,1,94.238,
01/01/2000,00:59:49.77,22.08,-56.73,-992.96,157.50,-735.0,-376.25,1,94.244,
01/01/2000,00:59:49.77,22.20,-56.73,-992.84,148.75,-621.25,-376.25,1,94.250,
01/01/2000,00:59:49.79,22.08,-56.85,-992.84,192.50,-778.75,-323.75,1,94.255,
01/01/2000,00:59:49.80,22.20,-56.61,-992.71,105.0,-673.75,-446.25,1,94.261,
01/01/2000,00:59:49.81,22.08,-56.36,-992.71,218.75,-656.25,-218.75,1,94.266,
01/01/2000,00:59:49.82,22.20,-56.73,-992.84,227.50,-717.50,-376.25,1,94.272,
01/01/2000,00:59:49.83,22.20,-56.85,-992.96,96.25,-665.0,-525.0,1,94.277,
01/01/2000,00:59:49.84,22.33,-56.85,-992.96,61.25,-717.50,-350.0,1,94.283,
01/01/2000,00:59:49.85,22.33,-56.85,-992.96,332.50,-726.25,-358.75,1,94.288,
01/01/2000,00:59:49.86,22.20,-56.73,-992.84,52.50,-665.0,-253.75,1,94.294,
01/01/2000,00:59:49.87,22.45,-56.61,-992.71,350.0,-770.0,-393.75,1,94.300,
01/01/2000,00:59:49.88,22.45,-56.61,-992.84,122.50,-717.50,-271.25,1,94.305,
01/01/2000,00:59:49.89,22.45,-56.73,-992.96,140.0,-752.50,-402.50,1,94.311,
01/01/2000,00:59:49.90,22.45,-56.73,-993.08,201.25,-752.50,-367.50,1,94.316,
01/01/2000,00:59:49.91,22.57,-56.73,-992.71,218.75,-726.25,-332.50,1,94.321,
01/01/2000,00:59:49.92,22.69,-56.73,-992.59,210.0,-700.0,-323.75,1,94.327,
01/01/2000,00:59:49.93,22.45,-56.61,-992.71,43.75,-656.25,-315.0,1,94.332,
01/01/2000,00:59:49.94,22.45,-56.49,-992.84,78.75,-700.0,-385.0,1,94.338,
01/01/2000,00:59:49.95,22.45,-56.61,-992.84,332.50,-708.75,-306.25,1,94.343,
01/01/2000,00:59:49.96,22.57,-56.85,-992.47,288.75,-717.50,-402.50,1,94.258,
01/01/2000,00:59:49.97,22.69,-56.73,-992.47,105.0,-638.75,-376.25,1,94.264,
01/01/2000,00:59:49.98,22.45,-56.85,-992.71,201.25,-656.25,-455.0,1,94.269,
01/01/2000,00:59:49.99,22.45,-56.73,-992.96,52.50,-708.75,-323.75,1,94.275,
01/01/2000,00:59:50.00,22.20,-56.49,-993.08,70.0,-700.0,-297.50,1,94.280,
01/01/2000,00:59:50.01,22.33,-56.12,-992.84,35.0,-778.75,-271.25,1,94.286,
01/01/2000,00:59:50.02,22.45,-56.36,-992.59,315.0,-761.25,-323.75,1,94.291,
01/01/2000,00:59:50.04,22.33,-56.61,-992.59,140.0,-778.75,-315.0,1,94.297,
01/01/2000,00:59:50.05,22.45,-56.61,-992.59,122.50,-691.25,-402.50,1,94.302,
01/01/2000,00:59:50.06,22.57,-56.61,-992.71,236.25,-761.25,-358.75,1,94.307,
01/01/2000,00:59:50.07,22.45,-56.36,-992.96,218.75,-665.0,-297.50,1,94.313,
01/01/2000,00:59:50.08,22.45,-56.12,-992.84,70.0,-691.25,-306.25,1,94.318,
01/01/2000,00:59:50.09,22.45,-56.49,-992.71,183.75,-656.25,-280.0,1,94.324,
01/01/2000,00:59:50.10,22.33,-56.36,-992.59,26.25,-726.25,-341.25,1,94.329,
01/01/2000,00:59:50.11,22.45,-56.85,-992.84,192.50,-603.75,-490.0,1,94.334,
01/01/2000,00:59:50.12,22.45,-56.61,-992.84,192.50,-638.75,-332.50,1,94.340,
01/01/2000,00:59:50.13,22.57,-56.36,-992.71,8.75,-638.75,-367.50,1,94.345,
01/01/2000,00:59:50.14,22.33,-56.61,-992.71,280.0,-647.50,-253.75,1,94.350,
01/01/2000,00:59:50.15,22.33,-56.61,-992.59,43.75,-717.50,-446.25,1,94.356,
01/01/2000,00:59:50.16,22.45,-56.61,-992.47,306.25,-638.75,-315.0,1,94.361,
01/01/2000,00:59:50.17,22.45,-56.73,-992.35,131.25,-743.75,-306.25,1,94.278,
01/01/2000,00:59:50.18,22.57,-56.73,-992.47,131.25,-691.25,-306.25,1,94.283,
01/01/2000,00:59:50.19,22.45,-56.49,-992.35,105.0,-787.50,-472.50,1,94.288,
01/01/2000,00:59:50.20,22.45,-56.36,-992.47,105.0,-778.75,-385.0,1,94.294,
01/01/2000,00:59:50.21,22.45,-56.24,-992.47,236.25,-708.75,-402.50,1,94.299,
01/01/2000,00:59:50.23,22.69,-56.36,-992.59,157.50,-700.0,-280.0,1,94.304,
01/01/2000,00:59:50.23,22.57,-56.61,-992.47,140.0,-665.0,-332.50,1,94.310,
01/01/2000,00:59:50.25,22.45,-56.73,-992.23,157.50,-647.50,-376.25,1,94.315,
01/01/2000,00:59:50.26,22.45,-56.49,-992.35,175.0,-630.0,-358.75,1,94.233,
01/01/2000,00:59:50.27,22.45,-56.36,-992.59,140.0,-638.75,-332.50,1,94.238,
01/01/2000,00:59:50.28,22.57,-56.61,-992.59,131.25,-761.25,-376.25,1,94.243,
01/01/2000,00:59:50.29,22.45,-56.61,-992.47,218.75,-743.75,-253.75,1,94.249,
01/01/2000,00:59:50.30,22.45,-56.61,-992.47,227.50,-787.50,-437.50,1,94.254,
01/01/2000,00:59:50.31,22.45,-56.73,-992.59,288.75,-770.0,-297.50,1,94.259,
01/01/2000,00:59:50.33,22.45,-56.85,-992.47,157.50,-647.50,-280.0,1,94.265,
01/01/2000,00:59:50.34,22.20,-56.73,-992.35,192.50,-708.75,-306.25,1,94.270,
01/01/2000,00:59:50.35,22.20,-56.49,-992.35,157.50,-621.25,-323.75,1,94.275,
01/01/2000,00:59:50.36,22.33,-56.73,-992.47,175.0,-717.50,-385.0,1,94.280,
01/01/2000,00:59:50.37,22.45,-56.61,-992.47,78.75,-735.0,-236.25,1,94.286,
01/01/2000,00:59:50.38,22.45,-56.85,-992.35,166.25,-770.0,-411.25,1,94.291,
01/01/2000,00:59:50.39,22.33,-56.85,-992.47,148.75,-682.50,-402.50,1,94.296,
01/01/2000,00:59:50.40,22.45,-56.61,-992.47,157.50,-560.0,-428.75,1,94.301,
01/01/2000,00:59:50.41,22.33,-56.36,-992.59,157.50,-682.50,-183.75,1,94.307,
01/01/2000,00:59:50.42,22.45,-56.36,-992.59,140.0,-612.50,-315.0,1,94.312,
01/01/2000,00:59:50.43,22.20,-56.61,-992.59,96.25,-630.0,-288.75,1,94.317,
01/01/2000,00:59:50.44,22.45,-56.73,-992.59,210.0,-621.25,-253.75,1,94.322,
01/01/2000,00:59:50.45,22.57,-56.73,-992.59,35.0,-621.25,-288.75,1,94.328,
01/01/2000,00:59:50.46,22.57,-56.61,-992.71,87.50,-647.50,-341.25,1,94.333,
01/01/2000,00:59:50.47,22.45,-56.61,-992.71,227.50,-700.0,-420.0,1,94.338,
01/01/2000,00:59:50.48,22.33,-56.36,-992.47,210.0,-700.0,-271.25,1,94.343,
01/01/2000,00:59:50.49,22.33,-56.36,-992.47,87.50,-717.50,-393.75,1,94.348,
01/01/2000,00:59:50.50,22.45,-56.49,-992.59,122.50,-665.0,-306.25,1,94.353,
01/01/2000,00:59:50.51,22.45,-56.61,-992.59,96.25,-673.75,-297.50,1,94.359,
01/01/2000,00:59:50.52,22.33,-56.49,-992.59,113.75,-691.25,-323.75,1,94.364,
01/01/2000,00:59:50.53,22.20,-56.49,-992.35,192.50,-691.25,-245.0,1,94.283,
01/01/2000,00:59:50.54,22.20,-56.36,-992.47,262.50,-673.75,-297.50,1,94.288,
01/01/2000,00:59:50.55,22.20,-56.36,-992.59,253.75,-647.50,-288.75,1,94.293,
01/01/2000,00:59:50.56,22.33,-56.49,-992.59,271.25,-805.0,-297.50,1,94.299,
01/01/2000,00:59:50.57,22.20,-56.61,-992.47,192.50,-656.25,-288.75,1,94.304,
01/01/2000,00:59:50.58,22.20,-56.61,-992.35,87.50,-682.50,-393.75,1,94.309,
01/01/2000,00:59:50.60,22.20,-56.61,-992.35,183.75,-717.50,-297.50,1,94.314,
01/01/2000,00:59:50.61,22.20,-56.36,-992.47,166.25,-630.0,-332.50,1,94.319,
01/01/2000,00:59:50.62,22.20,-56.24,-992.47,183.75,-691.25,-288.75,1,94.324,
01/01/2000,00:59:50.63,22.20,-56.49,-992.59,245.0,-805.0,-420.0,1,94.329,
01/01/2000,00:59:50.64,22.20,-56.61,-992.59,131.25,-691.25,-428.75,1,94.335,
01/01/2000,00:59:50.65,22.33,-56.49,-992.35,140.0,-691.25,-332.50,1,94.340,
01/01/2000,00:59:50.66,22.45,-56.61,-992.35,87.50,-647.50,-315.0,1,94.345,
01/01/2000,00:59:50.67,22.33,-56.36,-992.23,262.50,-770.0,-367.50,1,94.350,
01/01/2000,00:59:50.68,22.20,-56.24,-992.23,288.75,-656.25,-420.0,1,94.355,
01/01/2000,00:59:50.69,22.20,-56.12,-992.35,140.0,-621.25,-297.50,1,94.360,
01/01/2000,00:59:50.70,22.33,-56.12,-992.35,227.50,-638.75,-402.50,1,94.365,
01/01/2000,00:59:50.71,22.45,-56.24,-992.47,70.0,-717.50,-323.75,1,94.370,
01/01/2000,00:59:50.72,22.45,-56.24,-992.23,87.50,-682.50,-280.0,1,94.375,
01/01/2000,00:59:50.73,22.33,-56.36,-992.10,87.50,-735.0,-236.25,1,94.296,
01/01/2000,00:59:50.74,22.33,-56.49,-992.10,113.75,-778.75,-358.75,1,94.301,
01/01/2000,00:59:50.75,22.20,-56.49,-992.35,175.0,-735.0,-402.50,1,94.306,
01/01/2000,00:59:50.76,22.33,-56.36,-992.47,148.75,-656.25,-393.75,1,94.311,
01/01/2000,00:59:50.78,22.45,-56.49,-992.35,245.0,-682.50,-341.25,1,94.316,
01/01/2000,00:59:50.79,22.08,-56.36,-992.35,8.75,-656.25,-341.25,1,94.321,
01/01/2000,00:59:50.80,22.20,-56.49,-992.35,227.50,-673.75,-402.50,1,94.326,
01/01/2000,00:59:50.81,22.20,-56.24,-992.47,236.25,-638.75,-315.0,1,94.331,
01/01/2000,00:59:50.82,22.20,-56.12,-992.59,17.50,-682.50,-210.0,1,94.336,
01/01/2000,00:59:50.83,22.08,-56.12,-992.47,87.50,-743.75,-367.50,1,94.341,
01/01/2000,00:59:50.84,22.08,-56.36,-992.47,210.0,-700.0,-385.0,1,94.346,
01/01/2000,00:59:50.85,22.20,-56.36,-992.35,192.50,-770.0,-341.25,1,94.351,
01/01/2000,00:59:50.86,22.20,-56.49,-992.35,78.75,-665.0,-367.50,1,94.356,
01/01/2000,00:59:50.87,22.20,-56.61,-992.35,201.25,-708.75,-358.75,1,94.361,
01/01/2000,00:59:50.88,22.20,-56.49,-992.35,70.0,-673.75,-376.25,1,94.283,
01/01/2000,00:59:50.89,22.20,-56.36,-992.35,297.50,-682.50,-236.25,1,94.288,
01/01/2000,00:59:50.90,22.20,-56.49,-992.47,201.25,-700.0,-332.50,1,94.293,
01/01/2000,00:59:50.91,22.20,-56.36,-992.35,122.50,-612.50,-463.75,1,94.298,
01/01/2000,00:59:50.92,22.20,-56.73,-992.35,148.75,-778.75,-402.50,1,94.303,
01/01/2000,00:59:50.93,22.20,-56.85,-992.47,192.50,-603.75,-428.75,1,94.308,
01/01/2000,00:59:50.95,22.20,-56.73,-992.59,192.50,-665.0,-393.75,1,94.313,
01/01/2000,00:59:50.96,22.20,-56.61,-992.59,140.0,-638.75,-358.75,1,94.318,
01/01/2000,00:59:50.97,22.20,-56.73,-992.47,192.50,-656.25,-297.50,1,94.323,
01/01/2000,00:59:50.98,22.20,-56.61,-992.59,122.50,-708.75,-288.75,1,94.328,
01/01/2000,00:59:50.99,22.20,-56.85,-992.59,210.0,-700.0,-393.75,1,94.333,
01/01/2000,00:59:51.00,22.20,-56.85,-992.59,306.25,-665.0,-402.50,1,94.338,
01/01/2000,00:59:51.01,22.20,-56.73,-992.47,148.75,-735.0,-358.75,1,94.343,
01/01/2000,00:59:51.02,22.20,-56.73,-992.47,87.50,-700.0,-166.25,1,94.348,
01/01/2000,00:59:51.03,22.20,-56.73,-992.47,271.25,-735.0,-367.50,1,94.353,
01/01/2000,00:59:51.04,22.20,-56.85,-992.59,236.25,-822.50,-402.50,1,94.358,
01/01/2000,00:59:51.05,22.33,-56.61,-992.47,113.75,-796.25,-350.0,1,94.363,
01/01/2000,00:59:51.06,22.45,-56.85,-992.35,201.25,-717.50,-332.50,1,94.367,
01/01/2000,00:59:51.07,22.33,-56.61,-992.35,166.25,-700.0,-280.0,1,94.372,
01/01/2000,00:59:51.08,22.45,-56.73,-992.47,218.75,-577.50,-411.25,1,94.377,
01/01/2000,00:59:51.10,22.20,-56.73,-992.35,148.75,-743.75,-332.50,1,94.301,
01/01/2000,00:59:51.11,22.20,-56.61,-992.47,297.50,-735.0,-323.75,1,94.305,
01/01/2000,00:59:51.12,22.20,-56.61,-992.59,175.0,-796.25,-297.50,1,94.310,
01/01/2000,00:59:51.13,22.20,-56.85,-992.47,227.50,-752.50,-393.75,1,94.315,
01/01/2000,00:59:51.14,22.20,-56.73,-992.35,35.0,-568.75,-402.50,1,94.320,
01/01/2000,00:59:51.15,22.20,-56.97,-992.35,245.0,-700.0,-455.0,1,94.325,
01/01/2000,00:59:51.16,22.20,-56.85,-992.23,271.25,-656.25,-463.75,1,94.330,
01/01/2000,00:59:51.17,22.20,-56.36,-992.35,52.50,-682.50,-306.25,1,94.335,
01/01/2000,00:59:51.18,22.33,-56.61,-992.47,236.25,-656.25,-332.50,1,94.340,
01/01/2000,00:59:51.19,22.20,-56.61,-992.59,140.0,-752.50,-262.50,1,94.344,
01/01/2000,00:59:51.20,22.08,-56.73,-992.35,288.75,-708.75,-411.25,1,94.349,
01/01/2000,00:59:51.21,22.20,-56.85,-992.35,236.25,-778.75,-315.0,1,94.354,
01/01/2000,00:59:51.22,22.33,-56.24,-992.23,35.0,-656.25,-367.50,1,94.359,
01/01/2000,00:59:51.23,22.33,-56.36,-992.10,175.0,-752.50,-297.50,1,94.283,
01/01/2000,00:59:51.24,22.33,-56.61,-992.10,43.75,-586.25,-420.0,1,94.288,
01/01/2000,00:59:51.25,22.20,-56.61,-992.35,43.75,-612.50,-271.25,1,94.293,
01/01/2000,00:59:51.26,22.33,-56.61,-992.47,262.50,-770.0,-201.25,1,94.298,
01/01/2000,00:59:51.27,22.33,-56.49,-992.59,140.0,-717.50,-402.50,1,94.303,
01/01/2000,00:59:51.29,22.20,-56.61,-992.47,175.0,-647.50,-350.0,1,94.308,
01/01/2000,00:59:51.30,22.20,-56.61,-992.47,61.25,-743.75,-315.0,1,94.312,
01/01/2000,00:59:51.31,22.45,-56.61,-992.35,236.25,-691.25,-402.50,1,94.317,
01/01/2000,00:59:51.32,22.20,-56.49,-992.35,105.0,-638.75,-341.25,1,94.322,
01/01/2000,00:59:51.33,22.20,-56.36,-992.35,332.50,-726.25,-288.75,1,94.327,
01/01/2000,00:59:51.34,22.08,-56.36,-992.47,218.75,-656.25,-297.50,1,94.332,
01/01/2000,00:59:51.35,22.20,-56.36,-992.59,175.0,-717.50,-411.25,1,94.336,
01/01/2000,00:59:51.36,22.20,-56.36,-992.59,183.75,-682.50,-271.25,1,94.341,
01/01/2000,00:59:51.37,22.20,-56.24,-992.59,113.75,-691.25,-218.75,1,94.346,
01/01/2000,00:59:51.38,22.20,-56.49,-992.59,43.75,-726.25,-306.25,1,94.351,
01/01/2000,00:59:51.39,22.20,-56.36,-992.47,131.25,-813.75,-411.25,1,94.276,
01/01/2000,00:59:51.40,22.33,-56.36,-992.59,43.75,-726.25,-288.75,1,94.360,
01/01/2000,00:59:51.41,22.45,-56.36,-992.59,332.50,-726.25,-271.25,1,94.286,
01/01/2000,00:59:51.42,22.45,-56.36,-992.71,148.75,-700.0,-183.75,1,94.291,
01/01/2000,00:59:51.43,22.57,-56.61,-992.59,157.50,-761.25,-472.50,1,94.295,
01/01/2000,00:59:51.44,22.45,-56.73,-992.47,175.0,-796.25,-262.50,1,94.300,
01/01/2000,00:59:51.45,22.45,-56.61,-992.47,210.0,-560.0,-341.25,1,94.305,
01/01/2000,00:59:51.46,22.45,-56.36,-992.71,157.50,-735.0,-358.75,1,94.310,
01/01/2000,00:59:51.47,22.33,-56.36,-992.84,236.25,-638.75,-367.50,1,94.314,
01/01/2000,00:59:51.48,22.45,-56.36,-992.84,113.75,-770.0,-288.75,1,94.319,
01/01/2000,00:59:51.49,22.45,-56.24,-992.71,113.75,-577.50,-306.25,1,94.324,
01/01/2000,00:59:51.51,22.45,-56.36,-992.47,78.75,-595.0,-253.75,1,94.329,
01/01/2000,00:59:51.52,22.45,-56.61,-992.59,245.0,-708.75,-350.0,1,94.333,
01/01/2000,00:59:51.53,22.57,-56.49,-992.47,227.50,-743.75,-306.25,1,94.338,
01/01/2000,00:59:51.54,22.45,-56.36,-992.59,70.0,-770.0,-288.75,1,94.343,
01/01/2000,00:59:51.55,22.45,-56.36,-992.59,192.50,-700.0,-385.0,1,94.347,
01/01/2000,00:59:51.56,22.33,-56.24,-992.59,201.25,-612.50,-437.50,1,94.352,
01/01/2000,00:59:51.57,22.57,-56.36,-992.59,183.75,-595.0,-306.25,1,94.357,
01/01/2000,00:59:51.58,22.69,-56.49,-992.47,166.25,-612.50,-446.25,1,94.362,
01/01/2000,00:59:51.59,22.45,-56.61,-992.47,201.25,-638.75,-236.25,1,94.366,
01/01/2000,00:59:51.60,22.45,-56.36,-992.47,236.25,-752.50,-385.0,1,94.371,
01/01/2000,00:59:51.61,22.45,-56.49,-992.59,201.25,-595.0,-280.0,1,94.376,
01/01/2000,00:59:51.62,22.45,-56.12,-992.59,122.50,-743.75,-323.75,1,94.380,
01/01/2000,00:59:51.63,22.45,-56.36,-992.59,131.25,-761.25,-288.75,1,94.307,
01/01/2000,00:59:51.64,22.45,-56.36,-992.47,96.25,-726.25,-463.75,1,94.312,
01/01/2000,00:59:51.66,22.45,-56.61,-992.35,245.0,-708.75,-490.0,1,94.316,
01/01/2000,00:59:51.67,22.57,-56.49,-992.59,157.50,-673.75,-481.25,1,94.321,
01/01/2000,00:59:51.68,22.69,-56.36,-992.84,70.0,-673.75,-323.75,1,94.326,
01/01/2000,00:59:51.69,22.69,-56.24,-992.84,227.50,-726.25,-280.0,1,94.330,
01/01/2000,00:59:51.70,22.57,-56.36,-992.71,0.0,-656.25,-306.25,1,94.335,
01/01/2000,00:59:51.71,22.57,-56.36,-992.71,-8.75,-621.25,-323.75,1,94.340,
01/01/2000,00:59:51.72,22.57,-56.61,-992.71,218.75,-700.0,-253.75,1,94.344,
01/01/2000,00:59:51.73,22.69,-56.49,-992.96,87.50,-647.50,-437.50,1,94.349,
01/01/2000,00:59:51.74,22.57,-56.36,-993.08,166.25,-638.75,-253.75,1,94.354,
01/01/2000,00:59:51.75,22.33,-56.36,-992.84,157.50,-577.50,-297.50,1,94.358,
01/01/2000,00:59:51.76,22.33,-56.36,-992.84,280.0,-700.0,-428.75,1,94.363,
01/01/2000,00:59:51.77,22.33,-56.36,-992.84,78.75,-691.25,-341.25,1,94.367,
01/01/2000,00:59:51.78,22.33,-56.61,-992.71,218.75,-700.0,-402.50,1,94.372,
01/01/2000,00:59:51.80,22.45,-56.61,-992.59,262.50,-638.75,-367.50,1,94.300,
01/01/2000,00:59:51.81,22.33,-56.36,-992.47,78.75,-778.75,-218.75,1,94.304,
01/01/2000,00:59:51.82,22.20,-56.36,-992.59,175.0,-612.50,-385.0,1,94.309,
01/01/2000,00:59:51.83,22.20,-56.36,-992.59,166.25,-568.75,-385.0,1,94.314,
01/01/2000,00:59:51.84,22.33,-56.12,-992.59,140.0,-700.0,-358.75,1,94.318,
01/01/2000,00:59:51.85,22.33,-56.36,-992.59,157.50,-752.50,-306.25,1,94.323,
01/01/2000,00:59:51.86,22.33,-56.36,-992.47,105.0,-752.50,-315.0,1,94.327,
01/01/2000,00:59:51.87,22.45,-56.49,-992.35,122.50,-691.25,-385.0,1,94.332,
01/01/2000,00:59:51.88,22.20,-56.36,-992.59,201.25,-743.75,-385.0,1,94.337,
01/01/2000,00:59:51.89,22.33,-56.36,-992.59,367.50,-682.50,-350.0,1,94.341,
01/01/2000,00:59:51.90,22.33,-56.12,-992.59,113.75,-682.50,-411.25,1,94.346,
01/01/2000,00:59:51.91,22.33,-56.12,-992.59,35.0,-717.50,-166.25,1,94.350,
01/01/2000,00:59:51.92,22.33,-56.61,-992.47,192.50,-717.50,-358.75,1,94.355,
01/01/2000,00:59:51.93,22.45,-56.73,-992.59,43.75,-726.25,-288.75,1,94.283,
01/01/2000,00:59:51.94,22.33,-56.85,-992.59,227.50,-656.25,-385.0,1,94.288,
01/01/2000,00:59:51.95,22.33,-56.49,-992.47,113.75,-717.50,-227.50,1,94.293,
01/01/2000,00:59:51.96,22.33,-56.24,-992.35,210.0,-673.75,-455.0,1,94.297,
01/01/2000,00:59:51.97,22.33,-56.36,-992.47,175.0,-735.0,-280.0,1,94.302,
01/01/2000,00:59:51.98,22.20,-56.36,-992.59,96.25,-603.75,-288.75,1,94.306,
01/01/2000,00:59:51.99,22.20,-56.61,-992.47,105.0,-700.0,-315.0,1,94.311,
01/01/2000,00:59:52.00,22.33,-56.73,-992.47,262.50,-638.75,-358.75,1,94.315,
01/01/2000,00:59:52.01,22.45,-56.73,-992.47,175.0,-612.50,-385.0,1,94.320,
01/01/2000,00:59:52.02,22.57,-56.49,-992.47,-17.50,-708.75,-341.25,1,94.325,
01/01/2000,00:59:52.03,22.57,-56.61,-992.47,-17.50,-761.25,-280.0,1,94.329,
01/01/2000,00:59:52.04,22.45,-56.73,-992.59,236.25,-708.75,-306.25,1,94.334,
01/01/2000,00:59:52.05,22.45,-56.61,-992.59,306.25,-586.25,-437.50,1,94.338,
01/01/2000,00:59:52.06,22.57,-56.73,-992.47,253.75,-682.50,-332.50,1,94.343,
01/01/2000,00:59:52.08,22.69,-56.49,-992.35,70.0,-708.75,-183.75,1,94.347,
01/01/2000,00:59:52.09,22.45,-56.49,-992.59,192.50,-752.50,-376.25,1,94.352,
01/01/2000,00:59:52.10,22.20,-56.49,-992.47,131.25,-656.25,-297.50,1,94.356,
01/01/2000,00:59:52.11,22.45,-56.36,-992.47,245.0,-542.50,-411.25,1,94.361,
01/01/2000,00:59:52.12,22.45,-56.49,-992.59,192.50,-673.75,-350.0,1,94.365,
01/01/2000,00:59:52.13,22.45,-56.36,-992.59,-35.0,-700.0,-306.25,1,94.370,
01/01/2000,00:59:52.14,22.33,-56.61,-992.35,192.50,-761.25,-490.0,1,94.299,
01/01/2000,00:59:52.15,22.20,-56.61,-992.35,271.25,-787.50,-297.50,1,94.304,
01/01/2000,00:59:52.16,22.45,-56.61,-992.59,96.25,-717.50,-367.50,1,94.308,
01/01/2000,00:59:52.17,22.45,-56.36,-992.71,192.50,-787.50,-253.75,1,94.313,
01/01/2000,00:59:52.18,22.57,-56.61,-992.59,140.0,-743.75,-262.50,1,94.317,
01/01/2000,00:59:52.19,22.45,-56.61,-992.71,183.75,-770.0,-315.0,1,94.322,
01/01/2000,00:59:52.20,22.45,-56.73,-992.59,192.50,-682.50,-341.25,1,94.326,
01/01/2000,00:59:52.22,22.45,-56.61,-992.59,17.50,-700.0,-315.0,1,94.331,
01/01/2000,00:59:52.23,22.69,-56.49,-992.59,87.50,-735.0,-420.0,1,94.335,
01/01/2000,00:59:52.24,22.57,-56.36,-992.59,52.50,-717.50,-227.50,1,94.340,
01/01/2000,00:59:52.25,22.45,-56.49,-992.59,210.0,-708.75,-262.50,1,94.344,
01/01/2000,00:59:52.26,22.45,-56.61,-992.59,297.50,-612.50,-332.50,1,94.349,
01/01/2000,00:59:52.27,22.69,-56.36,-992.59,201.25,-568.75,-332.50,1,94.353,
01/01/2000,00:59:52.28,22.57,-56.36,-992.59,227.50,-665.0,-402.50,1,94.357,
01/01/2000,00:59:52.29,22.57,-56.36,-992.59,148.75,-647.50,-341.25,1,94.362,
01/01/2000,00:59:52.30,22.33,-56.49,-992.47,78.75,-787.50,-280.0,1,94.292,
01/01/2000,00:59:52.32,22.33,-56.49,-992.47,271.25,-612.50,-271.25,1,94.297,
01/01/2000,00:59:52.33,22.45,-56.49,-992.35,131.25,-647.50,-280.0,1,94.301,
01/01/2000,00:59:52.34,22.45,-56.61,-992.47,70.0,-743.75,-341.25,1,94.306,
01/01/2000,00:59:52.35,22.45,-56.61,-992.47,166.25,-603.75,-507.50,1,94.310,
01/01/2000,00:59:52.36,22.33,-56.61,-992.35,218.75,-770.0,-358.75,1,94.315,
01/01/2000,00:59:52.37,22.20,-56.49,-992.47,105.0,-586.25,-367.50,1,94.319,
01/01/2000,00:59:52.38,22.20,-56.49,-992.59,253.75,-647.50,-306.25,1,94.323,
01/01/2000,00:59:52.39,22.45,-56.61,-992.47,262.50,-682.50,-288.75,1,94.328,
01/01/2000,00:59:52.40,22.45,-56.49,-992.35,262.50,-717.50,-297.50,1,94.332,
01/01/2000,00:59:52.41,22.08,-56.61,-992.23,105.0,-700.0,-358.75,1,94.337,
01/01/2000,00:59:52.42,22.08,-56.61,-992.47,122.50,-822.50,-376.25,1,94.341,
01/01/2000,00:59:52.43,22.20,-56.61,-992.47,201.25,-761.25,-306.25,1,94.345,
01/01/2000,00:59:52.44,22.20,-56.49,-992.59,262.50,-700.0,-175.0,1,94.350,
01/01/2000,00:59:52.45,22.20,-56.61,-992.47,192.50,-638.75,-385.0,1,94.354,
01/01/2000,00:59:52.46,21.96,-56.61,-992.23,131.25,-682.50,-271.25,1,94.359,
01/01/2000,00:59:52.47,21.84,-56.61,-992.23,227.50,-761.25,-367.50,1,94.363,
01/01/2000,00:59:52.48,22.08,-56.85,-992.59,131.25,-761.25,-297.50,1,94.367,
01/01/2000,00:59:52.49,21.96,-56.73,-992.84,17.50,-691.25,-376.25,1,94.299,
01/01/2000,00:59:52.50,21.96,-56.85,-992.59,236.25,-673.75,-376.25,1,94.303,
01/01/2000,00:59:52.51,21.96,-56.49,-992.47,61.25,-700.0,-341.25,1,94.308,
01/01/2000,00:59:52.52,21.96,-56.61,-992.35,210.0,-700.0,-280.0,1,94.312,
01/01/2000,00:59:52.53,21.96,-56.73,-992.47,61.25,-708.75,-385.0,1,94.316,
01/01/2000,00:59:52.54,22.08,-56.85,-992.59,87.50,-726.25,-245.0,1,94.321,
01/01/2000,00:59:52.55,21.96,-56.73,-992.59,96.25,-726.25,-376.25,1,94.325,
01/01/2000,00:59:52.57,22.08,-56.73,-992.47,271.25,-656.25,-341.25,1,94.329,
01/01/2000,00:59:52.58,22.20,-56.61,-992.47,78.75,-708.75,-271.25,1,94.334,
01/01/2000,00:59:52.59,22.20,-56.61,-992.47,341.25,-691.25,-280.0,1,94.338,
01/01/2000,00:59:52.60,22.33,-56.61,-992.59,175.0,-717.50,-262.50,1,94.343,
01/01/2000,00:59:52.61,22.20,-56.73,-992.59,113.75,-691.25,-490.0,1,94.347,
01/01/2000,00:59:52.62,22.20,-56.61,-992.59,175.0,-700.0,-253.75,1,94.351,
01/01/2000,00:59:52.63,22.08,-56.61,-992.59,87.50,-708.75,-402.50,1,94.355,
01/01/2000,00:59:52.64,22.20,-56.36,-992.59,175.0,-595.0,-210.0,1,94.288,
01/01/2000,00:59:52.65,22.08,-56.49,-992.59,175.0,-691.25,-280.0,1,94.292,
01/01/2000,00:59:52.66,22.08,-56.61,-992.59,192.50,-551.25,-376.25,1,94.297,
01/01/2000,00:59:52.67,21.96,-56.61,-992.23,166.25,-726.25,-367.50,1,94.301,
01/01/2000,00:59:52.68,22.08,-56.61,-992.35,113.75,-656.25,-280.0,1,94.305,
01/01/2000,00:59:52.69,21.96,-56.36,-992.47,140.0,-700.0,-288.75,1,94.310,
01/01/2000,00:59:52.71,22.20,-56.36,-992.35,105.0,-665.0,-385.0,1,94.314,
01/01/2000,00:59:52.72,22.08,-56.49,-992.35,87.50,-682.50,-341.25,1,94.318,
01/01/2000,00:59:52.73,21.96,-56.73,-992.35,262.50,-787.50,-341.25,1,94.322,
01/01/2000,00:59:52.74,22.08,-56.61,-992.35,210.0,-612.50,-376.25,1,94.327,
01/01/2000,00:59:52.75,22.08,-56.49,-992.23,96.25,-647.50,-411.25,1,94.331,
01/01/2000,00:59:52.76,22.20,-56.61,-992.23,227.50,-708.75,-332.50,1,94.335,
01/01/2000,00:59:52.77,22.08,-56.49,-992.23,105.0,-673.75,-262.50,1,94.340,
01/01/2000,00:59:52.78,21.96,-56.61,-992.35,192.50,-673.75,-280.0,1,94.273,
01/01/2000,00:59:52.79,22.08,-56.61,-992.35,140.0,-673.75,-393.75,1,94.277,
01/01/2000,00:59:52.80,22.20,-56.49,-992.35,52.50,-717.50,-210.0,1,94.281,
01/01/2000,00:59:52.82,21.96,-56.61,-992.23,105.0,-551.25,-358.75,1,94.286,
01/01/2000,00:59:52.83,21.84,-56.49,-992.23,175.0,-647.50,-350.0,1,94.290,
01/01/2000,00:59:52.84,21.96,-56.61,-992.35,148.75,-708.75,-437.50,1,94.294,
01/01/2000,00:59:52.85,22.20,-56.61,-992.35,315.0,-770.0,-262.50,1,94.299,
01/01/2000,00:59:52.86,22.20,-56.36,-992.23,-70.0,-735.0,-498.75,1,94.303,
01/01/2000,00:59:52.87,21.96,-56.61,-991.98,218.75,-586.25,-402.50,1,94.307,
01/01/2000,00:59:52.88,21.96,-56.61,-992.10,122.50,-682.50,-323.75,1,94.311,
01/01/2000,00:59:52.89,21.96,-56.49,-992.47,105.0,-630.0,-350.0,1,94.316,
01/01/2000,00:59:52.90,22.33,-56.36,-992.59,140.0,-717.50,-323.75,1,94.320,
01/01/2000,00:59:52.91,22.33,-56.49,-992.59,87.50,-717.50,-376.25,1,94.324,
01/01/2000,00:59:52.92,22.45,-56.36,-992.10,35.0,-665.0,-201.25,1,94.328,
01/01/2000,00:59:52.93,22.20,-56.61,-992.10,96.25,-787.50,-402.50,1,94.333,
01/01/2000,00:59:52.94,22.20,-56.36,-992.35,148.75,-700.0,-437.50,1,94.337,
01/01/2000,00:59:52.95,22.20,-56.36,-992.59,350.0,-822.50,-253.75,1,94.341,
01/01/2000,00:59:52.96,22.20,-56.12,-992.59,227.50,-691.25,-402.50,1,94.345,
01/01/2000,00:59:52.97,22.08,-56.12,-992.35,148.75,-638.75,-297.50,1,94.349,
01/01/2000,00:59:52.98,22.08,-56.24,-992.23,122.50,-787.50,-393.75,1,94.354,
01/01/2000,00:59:52.99,22.20,-56.36,-992.47,70.0,-630.0,-376.25,1,94.288,
01/01/2000,00:59:53.00,22.45,-56.49,-992.71,175.0,-726.25,-376.25,1,94.292,
01/01/2000,00:59:53.01,22.45,-56.61,-992.71,183.75,-665.0,-350.0,1,94.296,
01/01/2000,00:59:53.02,22.45,-56.12,-992.59,61.25,-717.50,-323.75,1,94.301,
01/01/2000,00:59:53.03,22.33,-56.36,-992.35,113.75,-673.75,-437.50,1,94.305,
01/01/2000,00:59:53.04,22.33,-56.36,-992.47,262.50,-656.25,-218.75,1,94.309,
01/01/2000,00:59:53.05,22.57,-56.49,-992.59,122.50,-787.50,-402.50,1,94.313,
01/01/2000,00:59:53.07,22.69,-56.61,-992.59,166.25,-726.25,-376.25,1,94.317,
01/01/2000,00:59:53.08,22.57,-56.61,-992.59,96.25,-700.0,-358.75,1,94.322,
01/01/2000,00:59:53.09,22.57,-56.49,-992.47,218.75,-761.25,-367.50,1,94.326,
01/01/2000,00:59:53.10,22.45,-56.36,-992.47,140.0,-717.50,-306.25,1,94.330,
01/01/2000,00:59:53.11,22.45,-56.61,-992.47,131.25,-717.50,-428.75,1,94.334,
01/01/2000,00:59:53.12,22.45,-56.49,-992.59,43.75,-630.0,-166.25,1,94.338,
01/01/2000,00:59:53.13,22.33,-56.61,-992.23,105.0,-638.75,-218.75,1,94.342,
01/01/2000,00:59:53.14,22.33,-56.73,-991.98,210.0,-700.0,-481.25,1,94.347,
01/01/2000,00:59:53.15,22.33,-56.49,-992.10,236.25,-673.75,-306.25,1,94.351,
01/01/2000,00:59:53.16,22.57,-56.24,-992.23,192.50,-665.0,-323.75,1,94.355,
01/01/2000,00:59:53.17,22.69,-56.49,-992.23,148.75,-726.25,-262.50,1,94.359,
01/01/2000,00:59:53.18,22.57,-56.61,-992.23,140.0,-726.25,-402.50,1,94.363,
01/01/2000,00:59:53.19,22.45,-56.61,-992.10,113.75,-726.25,-420.0,1,94.367,
01/01/2000,00:59:53.20,22.45,-56.49,-991.98,78.75,-673.75,-262.50,1,94.302,
01/01/2000,00:59:53.21,22.57,-56.36,-991.98,96.25,-743.75,-350.0,1,94.307,
01/01/2000,00:59:53.22,22.57,-56.36,-991.98,131.25,-682.50,-323.75,1,94.311,
01/01/2000,00:59:53.23,22.57,-56.36,-991.98,96.25,-682.50,-332.50,1,94.315,
01/01/2000,00:59:53.25,22.45,-56.61,-992.10,96.25,-603.75,-446.25,1,94.319,
01/01/2000,00:59:53.25,22.45,-56.61,-992.23,35.0,-691.25,-341.25,1,94.323,
01/01/2000,00:59:53.27,22.33,-56.36,-992.35,218.75,-735.0,-288.75,1,94.327,
01/01/2000,00:59:53.28,22.45,-56.36,-992.59,157.50,-673.75,-297.50,1,94.331,
01/01/2000,00:59:53.29,22.45,-56.36,-992.47,175.0,-691.25,-341.25,1,94.336,
01/01/2000,00:59:53.30,22.45,-56.49,-992.35,175.0,-805.0,-271.25,1,94.340,
01/01/2000,00:59:53.31,22.57,-56.61,-992.47,227.50,-630.0,-297.50,1,94.344,
01/01/2000,00:59:53.33,22.57,-56.73,-992.35,157.50,-673.75,-411.25,1,94.280,
01/01/2000,00:59:53.34,22.45,-56.61,-992.59,385.0,-525.0,-350.0,1,94.284,
01/01/2000,00:59:53.35,22.45,-56.36,-992.59,253.75,-796.25,-420.0,1,94.288,
01/01/2000,00:59:53.36,22.45,-56.49,-992.59,113.75,-682.50,-315.0,1,94.292,
01/01/2000,00:59:53.37,22.33,-56.73,-992.59,157.50,-700.0,-297.50,1,94.296,
01/01/2000,00:59:53.38,22.20,-56.85,-992.59,140.0,-726.25,-393.75,1,94.300,
01/01/2000,00:59:53.39,22.20,-56.97,-992.47,35.0,-656.25,-376.25,1,94.304,
01/01/2000,00:59:53.40,22.33,-56.85,-992.59,52.50,-682.50,-358.75,1,94.308,
01/01/2000,00:59:53.41,22.45,-56.73,-992.47,105.0,-691.25,-393.75,1,94.312,
01/01/2000,00:59:53.42,22.33,-56.49,-992.23,183.75,-682.50,-236.25,1,94.317,
01/01/2000,00:59:53.43,22.33,-56.61,-992.10,140.0,-630.0,-358.75,1,94.321,
01/01/2000,00:59:53.44,22.20,-56.73,-992.10,227.50,-700.0,-358.75,1,94.325,
01/01/2000,00:59:53.45,22.45,-56.73,-992.35,166.25,-708.75,-402.50,1,94.329,
01/01/2000,00:59:53.46,22.57,-56.61,-992.35,227.50,-691.25,-332.50,1,94.333,
01/01/2000,00:59:53.47,22.45,-56.61,-992.35,87.50,-665.0,-297.50,1,94.337,
01/01/2000,00:59:53.48,22.45,-56.61,-992.23,192.50,-761.25,-271.25,1,94.341,
01/01/2000,00:59:53.49,22.20,-56.61,-992.35,271.25,-770.0,-402.50,1,94.278,
01/01/2000,00:59:53.50,22.20,-56.61,-992.47,210.0,-665.0,-341.25,1,94.282,
01/01/2000,00:59:53.51,22.45,-56.49,-992.47,113.75,-717.50,-271.25,1,94.286,
01/01/2000,00:59:53.52,22.45,-56.49,-992.23,113.75,-805.0,-306.25,1,94.290,
01/01/2000,00:59:53.53,22.33,-56.61,-992.10,122.50,-735.0,-350.0,1,94.294,
01/01/2000,00:59:53.54,22.08,-56.36,-992.23,52.50,-761.25,-227.50,1,94.298,
01/01/2000,00:59:53.56,22.20,-56.49,-992.23,245.0,-691.25,-341.25,1,94.302,
01/01/2000,00:59:53.57,22.20,-56.36,-992.23,157.50,-612.50,-350.0,1,94.306,
01/01/2000,00:59:53.58,22.20,-56.12,-992.10,17.50,-638.75,-306.25,1,94.310,
01/01/2000,00:59:53.59,22.20,-56.61,-991.74,218.75,-665.0,-323.75,1,94.314,
01/01/2000,00:59:53.60,22.20,-56.49,-991.86,52.50,-761.25,-385.0,1,94.318,
01/01/2000,00:59:53.61,22.20,-56.61,-992.23,61.25,-735.0,-280.0,1,94.322,
01/01/2000,00:59:53.62,22.33,-56.61,-992.35,297.50,-612.50,-341.25,1,94.326,
01/01/2000,00:59:53.63,22.08,-56.61,-992.10,105.0,-673.75,-253.75,1,94.263,
01/01/2000,00:59:53.64,22.08,-56.49,-992.10,70.0,-656.25,-315.0,1,94.268,
01/01/2000,00:59:53.65,22.20,-56.49,-992.10,148.75,-665.0,-332.50,1,94.272,
01/01/2000,00:59:53.66,22.20,-56.61,-992.23,140.0,-682.50,-332.50,1,94.276,
01/01/2000,00:59:53.67,22.20,-56.36,-992.23,271.25,-682.50,-420.0,1,94.280,
01/01/2000,00:59:53.68,22.20,-56.36,-992.10,253.75,-735.0,-297.50,1,94.284,
01/01/2000,00:59:53.69,22.20,-56.24,-992.10,148.75,-630.0,-166.25,1,94.288,
01/01/2000,00:59:53.71,22.33,-56.24,-992.23,201.25,-708.75,-385.0,1,94.292,
01/01/2000,00:59:53.72,22.45,-56.36,-992.35,227.50,-717.50,-358.75,1,94.296,
01/01/2000,00:59:53.73,22.45,-56.61,-992.23,131.25,-752.50,-393.75,1,94.300,
01/01/2000,00:59:53.74,22.33,-56.49,-992.10,96.25,-630.0,-315.0,1,94.304,
01/01/2000,00:59:53.75,22.33,-56.61,-991.98,332.50,-726.25,-376.25,1,94.308,
01/01/2000,00:59:53.76,22.20,-56.49,-992.10,122.50,-673.75,-262.50,1,94.312,
01/01/2000,00:59:53.77,22.08,-56.12,-992.35,218.75,-726.25,-481.25,1,94.316,
01/01/2000,00:59:53.78,22.20,-56.24,-992.47,218.75,-778.75,-271.25,1,94.320,
01/01/2000,00:59:53.79,22.33,-56.49,-992.59,105.0,-682.50,-376.25,1,94.324,
01/01/2000,00:59:53.80,22.20,-56.73,-992.35,271.25,-673.75,-437.50,1,94.328,
01/01/2000,00:59:53.81,22.08,-56.61,-992.23,175.0,-691.25,-350.0,1,94.332,
01/01/2000,00:59:53.82,22.20,-56.61,-992.10,280.0,-743.75,-323.75,1,94.336,
01/01/2000,00:59:53.84,22.20,-56.24,-991.98,183.75,-735.0,-218.75,1,94.274,
01/01/2000,00:59:53.85,21.96,-56.24,-991.98,140.0,-708.75,-393.75,1,94.278,
01/01/2000,00:59:53.86,22.08,-56.36,-992.10,183.75,-586.25,-341.25,1,94.282,
01/01/2000,00:59:53.87,22.20,-56.61,-992.10,8.75,-726.25,-350.0,1,94.286,
01/01/2000,00:59:53.88,22.45,-56.61,-992.10,157.50,-743.75,-323.75,1,94.290,
01/01/2000,00:59:53.89,22.33,-56.49,-992.10,148.75,-708.75,-332.50,1,94.294,
01/01/2000,00:59:53.90,22.20,-56.36,-991.98,113.75,-726.25,-367.50,1,94.298,
01/01/2000,00:59:53.91,21.96,-56.36,-992.10,61.25,-638.75,-297.50,1,94.302,
01/01/2000,00:59:53.92,22.08,-56.49,-992.35,166.25,-770.0,-210.0,1,94.306,
01/01/2000,00:59:53.93,22.08,-56.61,-992.35,70.0,-735.0,-446.25,1,94.244,
01/01/2000,00:59:53.94,22.20,-56.73,-992.10,113.75,-770.0,-148.75,1,94.248,
01/01/2000,00:59:53.95,22.33,-56.61,-991.98,192.50,-700.0,-297.50,1,94.252,
01/01/2000,00:59:53.96,22.33,-56.61,-991.98,306.25,-603.75,-262.50,1,94.256,
01/01/2000,00:59:53.97,22.45,-56.73,-992.10,157.50,-787.50,-350.0,1,94.260,
01/01/2000,00:59:53.99,22.45,-56.36,-992.10,87.50,-673.75,-271.25,1,94.264,
01/01/2000,00:59:54.00,22.45,-56.36,-991.86,323.75,-630.0,-262.50,1,94.268,
01/01/2000,00:59:54.01,22.57,-56.36,-991.98,297.50,-691.25,-341.25,1,94.272,
01/01/2000,00:59:54.02,22.45,-56.61,-992.10,253.75,-603.75,-385.0,1,94.276,
01/01/2000,00:59:54.03,22.20,-56.61,-992.23,96.25,-647.50,-402.50,1,94.280,
01/01/2000,00:59:54.04,22.20,-56.61,-992.23,113.75,-630.0,-262.50,1,94.284,
01/01/2000,00:59:54.05,22.20,-56.36,-992.23,192.50,-691.25,-376.25,1,94.288,
01/01/2000,00:59:54.06,22.08,-56.36,-992.10,262.50,-761.25,-437.50,1,94.292,
01/01/2000,00:59:54.07,22.08,-56.61,-992.10,166.25,-752.50,-306.25,1,94.296,
01/01/2000,00:59:54.08,21.96,-56.49,-992.23,201.25,-665.0,-437.50,1,94.299,
01/01/2000,00:59:54.09,21.96,-56.49,-992.47,131.25,-656.25,-411.25,1,94.303,
01/01/2000,00:59:54.10,22.20,-56.49,-992.47,61.25,-761.25,-385.0,1,94.307,
01/01/2000,00:59:54.11,22.33,-56.36,-992.47,17.50,-568.75,-341.25,1,94.311,
01/01/2000,00:59:54.12,22.20,-56.24,-992.35,245.0,-752.50,-288.75,1,94.251,
01/01/2000,00:59:54.13,22.20,-56.49,-992.23,236.25,-735.0,-306.25,1,94.254,
01/01/2000,00:59:54.14,22.33,-56.36,-992.23,175.0,-638.75,-350.0,1,94.258,
01/01/2000,00:59:54.15,22.20,-56.49,-992.10,341.25,-682.50,-227.50,1,94.262,
01/01/2000,00:59:54.16,22.20,-56.61,-992.10,227.50,-630.0,-306.25,1,94.266,
01/01/2000,00:59:54.17,22.20,-56.36,-992.10,175.0,-691.25,-271.25,1,94.270,
01/01/2000,00:59:54.18,22.33,-56.61,-992.35,192.50,-665.0,-280.0,1,94.274,
01/01/2000,00:59:54.20,22.33,-56.49,-992.35,245.0,-542.50,-306.25,1,94.278,
01/01/2000,00:59:54.21,22.45,-56.36,-992.10,122.50,-743.75,-376.25,1,94.282,
01/01/2000,00:59:54.22,22.45,-56.36,-991.86,262.50,-621.25,-332.50,1,94.286,
01/01/2000,00:59:54.23,22.45,-56.61,-991.74,52.50,-691.25,-341.25,1,94.290,
01/01/2000,00:59:54.24,22.20,-56.36,-991.86,61.25,-770.0,-341.25,1,94.293,
01/01/2000,00:59:54.25,22.20,-56.61,-992.10,131.25,-735.0,-306.25,1,94.297,
01/01/2000,00:59:54.26,22.20,-56.49,-992.35,148.75,-621.25,-402.50,1,94.301,
01/01/2000,00:59:54.27,22.33,-56.49,-992.35,157.50,-656.25,-280.0,1,94.241,
01/01/2000,00:59:54.28,22.45,-56.49,-992.35,105.0,-568.75,-297.50,1,94.245,
01/01/2000,00:59:54.29,22.45,-56.61,-992.23,122.50,-691.25,-341.25,1,94.249,
01/01/2000,00:59:54.30,22.33,-56.61,-992.23,175.0,-743.75,-376.25,1,94.253,
01/01/2000,00:59:54.31,22.20,-56.73,-992.23,288.75,-717.50,-341.25,1,94.257,
01/01/2000,00:59:54.32,22.20,-56.61,-992.35,52.50,-752.50,-350.0,1,94.261,
01/01/2000,00:59:54.34,22.33,-56.61,-992.59,183.75,-752.50,-332.50,1,94.265,
01/01/2000,00:59:54.35,22.45,-56.61,-992.59,253.75,-743.75,-323.75,1,94.268,
01/01/2000,00:59:54.36,22.45,-56.61,-992.59,236.25,-612.50,-385.0,1,94.272,
01/01/2000,00:59:54.37,22.20,-56.61,-992.59,183.75,-691.25,-385.0,1,94.276,
01/01/2000,00:59:54.38,22.45,-56.36,-992.47,157.50,-708.75,-437.50,1,94.280,
01/01/2000,00:59:54.39,22.45,-56.36,-992.35,175.0,-621.25,-280.0,1,94.220,
01/01/2000,00:59:54.40,22.20,-56.36,-992.47,175.0,-717.50,-402.50,1,94.224,
01/01/2000,00:59:54.41,22.20,-56.61,-992.59,70.0,-691.25,-358.75,1,94.228,
01/01/2000,00:59:54.42,22.45,-56.73,-992.59,210.0,-673.75,-262.50,1,94.232,
01/01/2000,00:59:54.43,22.57,-56.73,-992.84,271.25,-673.75,-376.25,1,94.236,
01/01/2000,00:59:54.44,22.57,-56.61,-992.84,87.50,-717.50,-297.50,1,94.240,
01/01/2000,00:59:54.45,22.57,-56.61,-992.71,210.0,-761.25,-262.50,1,94.244,
01/01/2000,00:59:54.46,22.57,-56.61,-992.47,210.0,-665.0,-358.75,1,94.247,
01/01/2000,00:59:54.47,22.45,-56.61,-992.35,148.75,-778.75,-297.50,1,94.251,
01/01/2000,00:59:54.49,22.45,-56.49,-992.23,192.50,-752.50,-341.25,1,94.255,
01/01/2000,00:59:54.50,22.45,-56.36,-992.35,140.0,-665.0,-227.50,1,94.259,
01/01/2000,00:59:54.51,22.33,-56.36,-992.35,236.25,-726.25,-455.0,1,94.263,
01/01/2000,00:59:54.52,22.45,-56.49,-992.35,192.50,-743.75,-350.0,1,94.267,
01/01/2000,00:59:54.53,22.45,-56.61,-992.47,201.25,-673.75,-437.50,1,94.270,
01/01/2000,00:59:54.54,22.45,-56.73,-992.59,96.25,-682.50,-402.50,1,94.274,
01/01/2000,00:59:54.55,22.45,-56.49,-992.59,61.25,-700.0,-236.25,1,94.278,
01/01/2000,00:59:54.56,22.45,-56.61,-992.35,78.75,-700.0,-218.75,1,94.282,
01/01/2000,00:59:54.57,22.08,-56.61,-992.10,218.75,-603.75,-262.50,1,94.286,
01/01/2000,00:59:54.58,22.08,-56.73,-992.35,227.50,-621.25,-315.0,1,94.290,
01/01/2000,00:59:54.59,22.33,-56.61,-992.47,140.0,-691.25,-262.50,1,94.293,
01/01/2000,00:59:54.60,22.45,-56.49,-992.59,175.0,-665.0,-332.50,1,94.297,
01/01/2000,00:59:54.61,22.45,-56.85,-992.59,210.0,-761.25,-323.75,1,94.301,
01/01/2000,00:59:54.62,22.08,-56.85,-992.35,210.0,-717.50,-455.0,1,94.242,
01/01/2000,00:59:54.63,22.20,-56.97,-992.35,210.0,-647.50,-385.0,1,94.246,
01/01/2000,00:59:54.64,22.45,-56.73,-992.59,105.0,-752.50,-262.50,1,94.250,
01/01/2000,00:59:54.65,22.45,-56.73,-992.47,280.0,-752.50,-376.25,1,94.254,
01/01/2000,00:59:54.66,22.45,-56.85,-992.23,183.75,-743.75,-323.75,1,94.257,
01/01/2000,00:59:54.67,22.20,-56.85,-991.98,140.0,-673.75,-306.25,1,94.261,
01/01/2000,00:59:54.68,22.08,-56.85,-992.10,157.50,-743.75,-358.75,1,94.265,
01/01/2000,00:59:54.70,22.33,-56.36,-992.35,166.25,-656.25,-323.75,1,94.269,
01/01/2000,00:59:54.71,22.69,-56.36,-992.59,315.0,-761.25,-288.75,1,94.273,
01/01/2000,00:59:54.72,22.69,-56.49,-992.59,192.50,-708.75,-210.0,1,94.276,
01/01/2000,00:59:54.73,22.57,-56.85,-992.47,218.75,-726.25,-367.50,1,94.280,
01/01/2000,00:59:54.74,22.45,-57.10,-992.10,262.50,-770.0,-402.50,1,94.284,
01/01/2000,00:59:54.75,22.33,-56.85,-991.98,210.0,-630.0,-393.75,1,94.288,
01/01/2000,00:59:54.76,22.20,-56.49,-992.10,192.50,-813.75,-341.25,1,94.291,
01/01/2000,00:59:54.77,22.20,-56.36,-992.10,43.75,-577.50,-280.0,1,94.295,
01/01/2000,00:59:54.78,22.08,-56.49,-992.23,87.50,-761.25,-271.25,1,94.299,
01/01/2000,00:59:54.79,22.20,-56.61,-992.23,218.75,-691.25,-437.50,1,94.303,
01/01/2000,00:59:54.80,22.33,-56.61,-992.35,183.75,-647.50,-376.25,1,94.306,
01/01/2000,00:59:54.81,22.45,-56.73,-992.47,227.50,-752.50,-253.75,1,94.310,
01/01/2000,00:59:54.82,22.45,-56.73,-992.35,262.50,-673.75,-376.25,1,94.314,
01/01/2000,00:59:54.84,22.45,-56.49,-992.10,87.50,-621.25,-455.0,1,94.256,
01/01/2000,00:59:54.85,22.33,-56.36,-992.10,245.0,-647.50,-376.25,1,94.260,
01/01/2000,00:59:54.86,22.45,-56.49,-992.10,-35.0,-708.75,-253.75,1,94.263,
01/01/2000,00:59:54.87,22.57,-56.73,-992.23,201.25,-673.75,-288.75,1,94.267,
01/01/2000,00:59:54.88,22.45,-56.97,-992.47,78.75,-691.25,-393.75,1,94.271,
01/01/2000,00:59:54.89,22.45,-56.85,-992.35,262.50,-717.50,-393.75,1,94.275,
01/01/2000,00:59:54.90,22.33,-56.49,-992.35,166.25,-726.25,-402.50,1,94.217,
01/01/2000,00:59:54.91,22.33,-56.49,-992.35,70.0,-691.25,-192.50,1,94.221,
01/01/2000,00:59:54.92,22.20,-56.49,-992.35,218.75,-700.0,-367.50,1,94.225,
01/01/2000,00:59:54.93,22.33,-56.61,-992.47,210.0,-682.50,-297.50,1,94.228,
01/01/2000,00:59:54.94,22.33,-56.61,-992.47,218.75,-743.75,-280.0,1,94.232,
01/01/2000,00:59:54.95,22.33,-56.49,-992.47,253.75,-656.25,-385.0,1,94.236,
01/01/2000,00:59:54.96,22.33,-56.49,-992.59,148.75,-813.75,-350.0,1,94.239,
01/01/2000,00:59:54.97,22.45,-56.12,-992.59,148.75,-708.75,-350.0,1,94.243,
01/01/2000,00:59:54.98,22.45,-56.36,-992.59,201.25,-691.25,-350.0,1,94.247,
01/01/2000,00:59:54.99,22.33,-56.36,-992.47,140.0,-673.75,-271.25,1,94.251,
01/01/2000,00:59:55.00,22.33,-56.36,-992.23,17.50,-682.50,-262.50,1,94.254,
01/01/2000,00:59:55.01,22.33,-56.49,-992.10,210.0,-717.50,-367.50,1,94.258,
01/01/2000,00:59:55.02,22.20,-56.36,-992.35,271.25,-708.75,-358.75,1,94.262,
01/01/2000,00:59:55.03,22.20,-56.36,-992.35,148.75,-595.0,-376.25,1,94.265,
01/01/2000,00:59:55.05,22.33,-56.36,-992.59,201.25,-638.75,-315.0,1,94.269,
01/01/2000,00:59:55.06,22.20,-56.49,-992.35,96.25,-621.25,-455.0,1,94.273,
01/01/2000,00:59:55.07,22.20,-56.36,-992.10,271.25,-682.50,-306.25,1,94.277,
01/01/2000,00:59:55.08,22.20,-56.61,-991.74,280.0,-665.0,-367.50,1,94.280,
01/01/2000,00:59:55.09,22.20,-56.61,-991.74,105.0,-708.75,-315.0,1,94.284,
01/01/2000,00:59:55.10,22.20,-56.49,-992.10,183.75,-586.25,-323.75,1,94.288,
01/01/2000,00:59:55.11,22.20,-56.61,-992.47,262.50,-743.75,-306.25,1,94.231,
01/01/2000,00:59:55.12,22.08,-56.36,-992.47,26.25,-700.0,-253.75,1,94.295,
01/01/2000,00:59:55.13,22.20,-56.61,-992.35,87.50,-621.25,-306.25,1,94.238,
01/01/2000,00:59:55.14,22.20,-56.61,-992.23,288.75,-638.75,-411.25,1,94.242,
01/01/2000,00:59:55.15,22.08,-56.49,-992.23,61.25,-778.75,-315.0,1,94.246,
01/01/2000,00:59:55.16,22.08,-56.61,-992.10,350.0,-752.50,-367.50,1,94.249,
01/01/2000,00:59:55.17,22.08,-56.36,-992.23,105.0,-857.50,-288.75,1,94.253,
01/01/2000,00:59:55.19,22.08,-56.24,-992.23,131.25,-621.25,-420.0,1,94.257,
01/01/2000,00:59:55.20,22.20,-56.36,-992.35,105.0,-708.75,-306.25,1,94.260,
01/01/2000,00:59:55.21,22.20,-56.61,-992.35,105.0,-691.25,-332.50,1,94.264,
01/01/2000,00:59:55.22,22.45,-56.36,-992.35,227.50,-691.25,-350.0,1,94.268,
01/01/2000,00:59:55.23,22.45,-56.61,-992.35,288.75,-770.0,-297.50,1,94.271,
01/01/2000,00:59:55.24,22.33,-56.61,-992.10,332.50,-735.0,-350.0,1,94.275,
01/01/2000,00:59:55.25,22.20,-56.49,-991.98,105.0,-726.25,-323.75,1,94.278,
01/01/2000,00:59:55.26,22.33,-56.61,-992.10,201.25,-743.75,-306.25,1,94.282,
01/01/2000,00:59:55.27,22.20,-56.49,-992.10,78.75,-665.0,-376.25,1,94.286,
01/01/2000,00:59:55.28,22.33,-56.73,-992.23,96.25,-735.0,-262.50,1,94.289,
01/01/2000,00:59:55.29,22.33,-56.85,-992.35,166.25,-805.0,-525.0,1,94.293,
01/01/2000,00:59:55.30,22.20,-56.85,-992.10,218.75,-647.50,-280.0,1,94.297,
01/01/2000,00:59:55.31,22.20,-56.61,-992.23,166.25,-796.25,-253.75,1,94.300,
01/01/2000,00:59:55.32,22.20,-56.49,-992.23,52.50,-848.75,-262.50,1,94.244,
01/01/2000,00:59:55.33,22.20,-56.61,-992.10,122.50,-761.25,-385.0,1,94.248,
01/01/2000,00:59:55.34,22.20,-56.73,-992.10,61.25,-621.25,-420.0,1,94.251,
01/01/2000,00:59:55.35,22.20,-56.85,-992.10,35.0,-656.25,-402.50,1,94.255,
01/01/2000,00:59:55.37,22.20,-56.61,-992.35,140.0,-673.75,-402.50,1,94.259,
01/01/2000,00:59:55.38,22.33,-56.49,-992.35,140.0,-577.50,-358.75,1,94.262,
01/01/2000,00:59:55.39,22.33,-56.61,-992.35,192.50,-691.25,-350.0,1,94.266,
01/01/2000,00:59:55.40,22.20,-56.49,-992.35,52.50,-892.50,-350.0,1,94.270,
01/01/2000,00:59:55.41,22.45,-56.85,-992.10,140.0,-647.50,-280.0,1,94.273,
01/01/2000,00:59:55.42,22.45,-56.61,-991.98,113.75,-691.25,-262.50,1,94.277,
01/01/2000,00:59:55.43,22.20,-56.85,-991.98,157.50,-726.25,-385.0,1,94.280,
01/01/2000,00:59:55.44,22.08,-56.61,-992.23,210.0,-577.50,-297.50,1,94.284,
01/01/2000,00:59:55.45,21.96,-56.49,-992.35,52.50,-638.75,-306.25,1,94.288,
01/01/2000,00:59:55.46,22.20,-56.36,-992.35,192.50,-796.25,-210.0,1,94.291,
01/01/2000,00:59:55.47,22.20,-56.36,-992.59,157.50,-638.75,-385.0,1,94.236,
01/01/2000,00:59:55.48,22.20,-56.49,-992.35,271.25,-691.25,-262.50,1,94.239,
01/01/2000,00:59:55.49,22.20,-56.61,-992.23,262.50,-743.75,-341.25,1,94.243,
01/01/2000,00:59:55.50,22.20,-56.61,-992.23,43.75,-665.0,-315.0,1,94.246,
01/01/2000,00:59:55.51,22.20,-56.61,-992.23,61.25,-726.25,-271.25,1,94.250,
01/01/2000,00:59:55.52,22.20,-56.49,-992.23,140.0,-717.50,-341.25,1,94.254,
01/01/2000,00:59:55.54,22.33,-56.61,-992.10,61.25,-752.50,-306.25,1,94.257,
01/01/2000,00:59:55.55,22.20,-56.61,-992.23,157.50,-577.50,-280.0,1,94.261,
01/01/2000,00:59:55.56,22.20,-56.73,-992.23,218.75,-717.50,-350.0,1,94.264,
01/01/2000,00:59:55.57,22.33,-56.73,-991.37,8.75,-542.50,-297.50,1,94.268,
01/01/2000,00:59:55.58,21.96,-56.61,-988.81,122.50,-665.0,-411.25,1,94.271,
01/01/2000,00:59:55.59,21.59,-56.36,-987.59,17.50,-717.50,-323.75,1,94.275,
01/01/2000,00:59:55.60,21.72,-56.36,-987.10,105.0,-708.75,-315.0,1,94.279,
01/01/2000,00:59:55.61,21.72,-56.61,-986.49,122.50,-603.75,-367.50,1,94.282,
01/01/2000,00:59:55.62,21.96,-56.49,-985.76,192.50,-560.0,-420.0,1,94.286,
01/01/2000,00:59:55.63,22.45,-56.12,-984.78,-35.0,-586.25,-227.50,1,94.289,
01/01/2000,00:59:55.64,22.81,-56.12,-984.05,227.50,-717.50,-210.0,1,94.293,
01/01/2000,00:59:55.65,23.06,-56.24,-984.54,-96.25,-708.75,-358.75,1,94.296,
01/01/2000,00:59:55.66,22.69,-56.85,-985.39,393.75,-656.25,-402.50,1,94.300,
01/01/2000,00:59:55.67,21.96,-56.36,-986.00,78.75,-752.50,-218.75,1,94.303,
01/01/2000,00:59:55.68,22.45,-56.12,-984.91,253.75,-516.25,-411.25,1,94.249,
01/01/2000,00:59:55.69,22.45,-55.51,-982.83,35.0,-708.75,-183.75,1,94.252,
01/01/2000,00:59:55.71,21.96,-55.75,-978.56,78.75,-752.50,-61.25,1,94.256,
01/01/2000,00:59:55.71,21.72,-56.12,-976.24,113.75,-621.25,-140.0,1,94.259,
01/01/2000,00:59:55.73,21.23,-56.36,-975.39,78.75,-813.75,-376.25,1,94.263,
01/01/2000,00:59:55.73,20.62,-56.61,-976.49,43.75,-831.25,-411.25,1,94.266,
01/01/2000,00:59:55.75,21.23,-56.36,-981.12,26.25,-691.25,-376.25,1,94.270,
01/01/2000,00:59:55.76,21.96,-55.63,-985.52,131.25,-595.0,-183.75,1,94.273,
01/01/2000,00:59:55.77,22.20,-55.75,-987.10,210.0,-673.75,-192.50,1,94.277,
01/01/2000,00:59:55.78,22.33,-56.12,-986.86,332.50,-586.25,-157.50,1,94.280,
01/01/2000,00:59:55.79,22.69,-56.61,-985.52,192.50,-612.50,-227.50,1,94.284,
01/01/2000,00:59:55.80,22.45,-56.73,-983.81,70.0,-691.25,-367.50,1,94.287,
01/01/2000,00:59:55.81,21.96,-56.61,-982.83,35.0,-770.0,-402.50,1,94.291,
01/01/2000,00:59:55.82,22.20,-56.24,-984.54,78.75,-665.0,-306.25,1,94.237,
01/01/2000,00:59:55.83,22.08,-56.00,-986.13,131.25,-638.75,-253.75,1,94.240,
01/01/2000,00:59:55.84,21.96,-56.12,-987.59,-8.75,-665.0,-218.75,1,94.244,
01/01/2000,00:59:55.85,22.20,-56.12,-988.57,166.25,-700.0,-271.25,1,94.247,
01/01/2000,00:59:55.86,22.81,-56.61,-989.66,166.25,-595.0,-306.25,1,94.251,
01/01/2000,00:59:55.88,22.57,-56.61,-989.79,26.25,-717.50,-280.0,1,94.254,
01/01/2000,00:59:55.89,22.69,-56.61,-989.18,332.50,-700.0,-288.75,1,94.258,
01/01/2000,00:59:55.90,22.20,-55.88,-988.20,201.25,-595.0,-201.25,1,94.261,
01/01/2000,00:59:55.91,21.72,-55.75,-988.32,218.75,-735.0,-280.0,1,94.265,
01/01/2000,00:59:55.92,21.59,-56.24,-988.81,131.25,-638.75,-192.50,1,94.268,
01/01/2000,00:59:55.93,21.96,-56.36,-990.03,148.75,-743.75,-376.25,1,94.272,
01/01/2000,00:59:55.94,21.84,-56.61,-991.62,210.0,-595.0,-227.50,1,94.275,
01/01/2000,00:59:55.95,22.08,-56.61,-991.86,166.25,-630.0,-376.25,1,94.279,
01/01/2000,00:59:55.96,22.45,-56.24,-991.86,113.75,-560.0,-332.50,1,94.282,
01/01/2000,00:59:55.97,22.69,-56.00,-991.37,148.75,-735.0,-218.75,1,94.286,
01/01/2000,00:59:55.98,22.45,-56.36,-990.88,297.50,-752.50,-306.25,1,94.289,
01/01/2000,00:59:55.99,22.45,-56.36,-991.13,78.75,-612.50,-385.0,1,94.293,
01/01/2000,00:59:56.00,22.45,-56.49,-991.62,96.25,-822.50,-323.75,1,94.296,
01/01/2000,00:59:56.01,22.33,-56.36,-992.35,192.50,-682.50,-420.0,1,94.300,
01/01/2000,00:59:56.02,22.08,-56.00,-993.08,192.50,-656.25,-271.25,1,94.303,
01/01/2000,00:59:56.03,22.20,-55.75,-992.84,78.75,-603.75,-253.75,1,94.249,
01/01/2000,00:59:56.04,22.33,-56.12,-992.59,297.50,-787.50,-385.0,1,94.253,
01/01/2000,00:59:56.05,21.96,-56.24,-992.23,262.50,-743.75,-297.50,1,94.256,
01/01/2000,00:59:56.06,22.08,-56.36,-991.86,192.50,-621.25,-323.75,1,94.260,
01/01/2000,00:59:56.07,21.96,-56.61,-991.37,157.50,-691.25,-490.0,1,94.263,
01/01/2000,00:59:56.08,21.72,-56.12,-991.37,183.75,-656.25,-367.50,1,94.267,
01/01/2000,00:59:56.09,21.72,-55.88,-991.62,-8.75,-770.0,-428.75,1,94.270,
01/01/2000,00:59:56.11,22.08,-56.00,-992.35,218.75,-708.75,-376.25,1,94.274,
01/01/2000,00:59:56.12,22.20,-56.36,-992.47,157.50,-691.25,-280.0,1,94.277,
01/01/2000,00:59:56.13,22.33,-56.49,-991.98,96.25,-682.50,-463.75,1,94.281,
01/01/2000,00:59:56.14,22.20,-56.49,-991.49,26.25,-761.25,-393.75,1,94.284,
01/01/2000,00:59:56.15,22.20,-56.36,-991.62,148.75,-700.0,-367.50,1,94.287,
01/01/2000,00:59:56.16,22.33,-56.24,-992.10,140.0,-761.25,-245.0,1,94.291,
01/01/2000,00:59:56.17,22.20,-56.00,-992.96,166.25,-603.75,-385.0,1,94.294,
01/01/2000,00:59:56.18,22.20,-56.00,-993.08,306.25,-568.75,-227.50,1,94.298,
01/01/2000,00:59:56.19,22.33,-56.12,-992.71,218.75,-682.50,-332.50,1,94.301,
01/01/2000,00:59:56.20,22.20,-56.24,-991.86,166.25,-735.0,-323.75,1,94.305,
01/01/2000,00:59:56.21,22.45,-56.36,-991.74,105.0,-673.75,-262.50,1,94.308,
01/01/2000,00:59:56.22,22.57,-56.61,-992.23,210.0,-665.0,-385.0,1,94.311,
01/01/2000,00:59:56.23,22.69,-56.36,-992.84,140.0,-708.75,-341.25,1,94.315,
01/01/2000,00:59:56.25,22.57,-56.00,-993.32,78.75,-647.50,-245.0,1,94.262,
01/01/2000,00:59:56.25,22.57,-56.12,-992.96,87.50,-638.75,-420.0,1,94.265,
