rtcDate,rtcTime,aX,aY,aZ,gX,gY,gZ,dataRdy,output_Hz,
01/01/2000,01:45:30.01,10.61,-68.44,-862.05,0.0,-673.75,-323.75,1,0.0,
01/01/2000,01:45:30.02,11.10,-70.76,-891.82,183.75,-743.75,-385.0,1,100.0,
01/01/2000,01:45:30.03,11.22,-71.61,-904.02,78.75,-595.0,-306.25,1,100.0,
01/01/2000,01:45:30.04,11.47,-73.08,-919.39,192.50,-673.75,-490.0,1,100.0,
01/01/2000,01:45:30.05,11.59,-73.81,-928.18,96.25,-665.0,-280.0,1,100.0,
01/01/2000,01:45:30.06,11.71,-74.30,-935.86,332.50,-770.0,-358.75,1,100.0,
01/01/2000,01:45:30.07,11.71,-74.91,-942.94,113.75,-630.0,-393.75,1,100.0,
01/01/2000,01:45:30.08,11.96,-75.52,-951.72,183.75,-787.50,-341.25,1,100.0,
01/01/2000,01:45:30.10,11.96,-75.88,-956.60,61.25,-691.25,-350.0,1,100.0,
01/01/2000,01:45:30.11,11.96,-76.49,-960.87,192.50,-673.75,-455.0,1,100.0,
01/01/2000,01:45:30.12,11.96,-76.62,-964.65,78.75,-673.75,-297.50,1,100.0,
01/01/2000,01:45:30.13,12.08,-76.86,-969.53,113.75,-700.0,-297.50,1,100.0,
01/01/2000,01:45:30.14,12.20,-77.35,-972.10,175.0,-708.75,-315.0,1,100.0,
01/01/2000,01:45:30.15,12.32,-77.59,-974.29,245.0,-743.75,-306.25,1,100.0,
01/01/2000,01:45:30.16,12.20,-77.71,-977.46,227.50,-743.75,-420.0,1,100.0,
01/01/2000,01:45:30.17,12.20,-77.71,-979.54,323.75,-673.75,-350.0,1,100.0,
01/01/2000,01:45:30.18,12.32,-77.71,-981.37,175.0,-735.0,-236.25,1,100.0,
01/01/2000,01:45:30.19,12.32,-78.08,-982.83,315.0,-682.50,-332.50,1,100.0,
01/01/2000,01:45:30.20,12.20,-78.08,-983.93,157.50,-726.25,-288.75,1,100.0,
01/01/2000,01:45:30.21,12.20,-78.45,-985.03,183.75,-726.25,-455.0,1,100.0,
01/01/2000,01:45:30.22,12.32,-78.45,-985.76,210.0,-638.75,-271.25,1,100.0,
01/01/2000,01:45:30.23,12.44,-78.57,-986.61,105.0,-568.75,-288.75,1,100.0,
01/01/2000,01:45:30.24,12.32,-78.57,-987.47,218.75,-673.75,-253.75,1,100.0,
01/01/2000,01:45:30.25,12.08,-78.57,-987.96,122.50,-586.25,-253.75,1,100.0,
01/01/2000,01:45:30.26,12.08,-78.57,-988.44,140.0,-647.50,-411.25,1,100.0,
01/01/2000,01:45:30.27,12.20,-78.57,-988.93,166.25,-621.25,-393.75,1,100.0,
01/01/2000,01:45:30.28,12.44,-78.45,-989.42,87.50,-691.25,-297.50,1,100.0,
01/01/2000,01:45:30.29,12.44,-78.57,-989.79,166.25,-700.0,-297.50,1,96.552,
01/01/2000,01:45:30.30,12.32,-78.81,-990.03,157.50,-665.0,-341.25,1,96.667,
01/01/2000,01:45:30.31,12.32,-78.81,-990.40,131.25,-743.75,-288.75,1,96.774,
01/01/2000,01:45:30.32,12.44,-78.69,-990.64,175.0,-787.50,-420.0,1,96.875,
01/01/2000,01:45:30.33,12.44,-78.57,-990.76,183.75,-586.25,-245.0,1,96.970,
01/01/2000,01:45:30.34,12.44,-78.69,-990.88,201.25,-735.0,-446.25,1,97.059,
01/01/2000,01:45:30.36,12.32,-78.81,-990.88,166.25,-612.50,-288.75,1,97.143,
01/01/2000,01:45:30.37,12.44,-78.81,-991.13,332.50,-665.0,-376.25,1,97.222,
01/01/2000,01:45:30.38,12.44,-78.69,-991.25,131.25,-726.25,-376.25,1,97.297,
01/01/2000,01:45:30.39,12.44,-78.57,-991.37,201.25,-656.25,-350.0,1,97.368,
01/01/2000,01:45:30.40,12.44,-78.57,-991.25,87.50,-743.75,-376.25,1,97.436,
01/01/2000,01:45:30.41,12.20,-78.81,-991.25,288.75,-743.75,-367.50,1,97.500,
01/01/2000,01:45:30.42,12.32,-78.81,-991.37,87.50,-568.75,-393.75,1,97.561,
01/01/2000,01:45:30.43,12.69,-78.69,-991.62,113.75,-586.25,-385.0,1,97.619,
01/01/2000,01:45:30.44,12.57,-78.57,-991.62,183.75,-743.75,-323.75,1,97.674,
01/01/2000,01:45:30.45,12.20,-78.57,-991.49,175.0,-700.0,-393.75,1,97.727,
01/01/2000,01:45:30.46,12.20,-78.57,-991.62,201.25,-682.50,-341.25,1,97.778,
01/01/2000,01:45:30.47,12.20,-78.57,-991.62,201.25,-621.25,-376.25,1,97.826,
01/01/2000,01:45:30.48,12.32,-78.57,-991.86,140.0,-717.50,-332.50,1,97.872,
01/01/2000,01:45:30.49,12.20,-78.57,-991.62,306.25,-735.0,-358.75,1,97.917,
01/01/2000,01:45:30.50,12.20,-78.69,-991.62,157.50,-708.75,-306.25,1,96.0,
01/01/2000,01:45:30.51,12.20,-78.69,-991.74,105.0,-577.50,-288.75,1,96.078,
01/01/2000,01:45:30.52,12.44,-78.69,-991.86,306.25,-621.25,-315.0,1,96.154,
01/01/2000,01:45:30.54,12.44,-78.57,-991.86,210.0,-560.0,-280.0,1,96.226,
01/01/2000,01:45:30.55,12.32,-78.57,-991.62,96.25,-761.25,-253.75,1,96.296,
01/01/2000,01:45:30.56,12.32,-78.57,-991.62,157.50,-848.75,-323.75,1,96.364,
01/01/2000,01:45:30.57,12.44,-78.57,-991.62,96.25,-700.0,-472.50,1,96.429,
01/01/2000,01:45:30.58,12.57,-78.57,-991.62,131.25,-656.25,-323.75,1,96.491,
01/01/2000,01:45:30.59,12.44,-78.57,-991.62,148.75,-673.75,-306.25,1,96.552,
01/01/2000,01:45:30.60,12.32,-78.45,-991.62,245.0,-761.25,-297.50,1,96.610,
01/01/2000,01:45:30.61,12.20,-78.57,-991.62,227.50,-787.50,-367.50,1,96.667,
01/01/2000,01:45:30.62,12.32,-78.45,-991.74,87.50,-805.0,-367.50,1,96.721,
01/01/2000,01:45:30.63,12.44,-78.57,-991.86,201.25,-717.50,-253.75,1,95.238,
01/01/2000,01:45:30.64,12.44,-78.81,-991.74,70.0,-647.50,-376.25,1,95.313,
01/01/2000,01:45:30.65,12.20,-78.81,-991.74,140.0,-726.25,-358.75,1,95.385,
01/01/2000,01:45:30.66,12.20,-78.81,-991.74,70.0,-752.50,-411.25,1,95.455,
01/01/2000,01:45:30.67,12.20,-78.69,-991.86,288.75,-603.75,-280.0,1,95.522,
01/01/2000,01:45:30.68,12.32,-78.45,-991.86,87.50,-708.75,-367.50,1,95.588,
01/01/2000,01:45:30.69,12.32,-78.57,-991.62,192.50,-656.25,-332.50,1,95.652,
01/01/2000,01:45:30.70,12.20,-78.57,-991.62,210.0,-612.50,-245.0,1,95.714,
01/01/2000,01:45:30.72,12.32,-78.69,-991.37,122.50,-682.50,-385.0,1,95.775,
01/01/2000,01:45:30.73,12.32,-78.57,-991.62,183.75,-630.0,-437.50,1,95.833,
01/01/2000,01:45:30.74,12.44,-78.45,-991.74,78.75,-700.0,-271.25,1,95.890,
01/01/2000,01:45:30.75,12.32,-78.57,-991.62,166.25,-603.75,-280.0,1,95.946,
01/01/2000,01:45:30.76,12.32,-78.81,-991.49,175.0,-708.75,-341.25,1,96.0,
01/01/2000,01:45:30.77,12.20,-78.57,-991.49,166.25,-638.75,-420.0,1,96.053,
01/01/2000,01:45:30.78,12.44,-78.57,-991.49,96.25,-726.25,-280.0,1,96.104,
01/01/2000,01:45:30.79,12.69,-78.57,-991.25,175.0,-752.50,-341.25,1,96.154,
01/01/2000,01:45:30.80,12.44,-78.57,-991.13,70.0,-673.75,-420.0,1,96.203,
01/01/2000,01:45:30.81,12.44,-78.69,-991.13,175.0,-603.75,-262.50,1,96.250,
01/01/2000,01:45:30.82,12.44,-78.69,-991.25,113.75,-673.75,-420.0,1,95.122,
01/01/2000,01:45:30.83,12.44,-78.57,-991.37,210.0,-796.25,-376.25,1,96.341,
01/01/2000,01:45:30.84,12.57,-78.57,-991.37,122.50,-700.0,-358.75,1,95.238,
01/01/2000,01:45:30.86,12.32,-78.69,-991.25,218.75,-673.75,-393.75,1,95.294,
01/01/2000,01:45:30.87,12.44,-78.69,-991.25,122.50,-630.0,-315.0,1,95.349,
01/01/2000,01:45:30.88,12.44,-78.45,-991.49,148.75,-673.75,-341.25,1,95.402,
01/01/2000,01:45:30.89,12.57,-78.32,-991.62,122.50,-595.0,-306.25,1,95.455,
01/01/2000,01:45:30.90,12.44,-78.20,-991.37,61.25,-726.25,-271.25,1,95.506,
01/01/2000,01:45:30.91,12.32,-78.32,-991.25,70.0,-673.75,-253.75,1,95.556,
01/01/2000,01:45:30.92,12.32,-78.32,-991.37,271.25,-752.50,-376.25,1,95.604,
01/01/2000,01:45:30.93,12.32,-78.32,-991.37,70.0,-761.25,-271.25,1,95.652,
01/01/2000,01:45:30.94,12.44,-78.20,-991.13,192.50,-673.75,-341.25,1,95.699,
01/01/2000,01:45:30.95,12.20,-78.32,-991.01,227.50,-647.50,-420.0,1,95.745,
01/01/2000,01:45:30.96,12.20,-78.57,-990.88,183.75,-621.25,-411.25,1,95.789,
01/01/2000,01:45:30.97,12.20,-78.57,-991.01,105.0,-691.25,-323.75,1,95.833,
01/01/2000,01:45:30.98,12.32,-78.45,-991.13,131.25,-656.25,-341.25,1,95.876,
01/01/2000,01:45:30.99,12.32,-78.45,-991.01,183.75,-743.75,-280.0,1,94.949,
01/01/2000,01:45:31.00,12.20,-78.20,-990.88,218.75,-700.0,-332.50,1,95.0,
01/01/2000,01:45:31.01,12.32,-78.57,-991.01,175.0,-743.75,-402.50,1,95.050,
01/01/2000,01:45:31.02,12.44,-78.57,-991.25,218.75,-612.50,-271.25,1,95.098,
01/01/2000,01:45:31.03,12.57,-78.45,-991.37,113.75,-673.75,-367.50,1,95.146,
01/01/2000,01:45:31.05,12.44,-78.57,-991.13,183.75,-656.25,-411.25,1,95.192,
01/01/2000,01:45:31.06,12.20,-78.57,-991.13,148.75,-717.50,-297.50,1,95.238,
01/01/2000,01:45:31.07,12.32,-78.57,-991.13,236.25,-621.25,-358.75,1,95.283,
01/01/2000,01:45:31.08,12.32,-78.32,-991.13,87.50,-761.25,-245.0,1,95.327,
01/01/2000,01:45:31.09,12.32,-78.57,-991.25,70.0,-673.75,-393.75,1,95.370,
01/01/2000,01:45:31.10,12.32,-78.57,-991.13,166.25,-612.50,-385.0,1,95.413,
01/01/2000,01:45:31.11,12.44,-78.57,-991.13,148.75,-638.75,-402.50,1,94.595,
01/01/2000,01:45:31.12,12.57,-78.57,-991.13,61.25,-761.25,-297.50,1,95.495,
01/01/2000,01:45:31.13,12.69,-78.57,-991.13,148.75,-691.25,-367.50,1,94.690,
01/01/2000,01:45:31.14,12.44,-78.69,-991.25,218.75,-717.50,-218.75,1,94.737,
01/01/2000,01:45:31.15,12.20,-78.57,-991.25,61.25,-761.25,-262.50,1,94.783,
01/01/2000,01:45:31.16,12.44,-78.57,-991.37,78.75,-638.75,-367.50,1,94.828,
01/01/2000,01:45:31.17,12.69,-78.57,-991.49,43.75,-708.75,-297.50,1,94.872,
01/01/2000,01:45:31.18,12.69,-78.69,-991.49,210.0,-656.25,-288.75,1,94.915,
01/01/2000,01:45:31.19,12.57,-78.81,-991.37,113.75,-542.50,-411.25,1,94.958,
01/01/2000,01:45:31.21,12.57,-78.81,-991.13,201.25,-682.50,-315.0,1,95.0,
01/01/2000,01:45:31.22,12.69,-78.69,-991.13,175.0,-673.75,-315.0,1,95.041,
01/01/2000,01:45:31.23,12.69,-78.57,-991.37,140.0,-735.0,-227.50,1,95.082,
01/01/2000,01:45:31.24,12.57,-78.69,-991.37,245.0,-743.75,-350.0,1,95.122,
01/01/2000,01:45:31.25,12.57,-78.69,-991.25,43.75,-735.0,-306.25,1,95.161,
01/01/2000,01:45:31.26,12.57,-78.69,-991.37,236.25,-638.75,-358.75,1,95.200,
01/01/2000,01:45:31.27,12.57,-78.45,-991.37,157.50,-813.75,-262.50,1,95.238,
01/01/2000,01:45:31.28,12.44,-78.45,-991.25,87.50,-700.0,-385.0,1,94.531,
01/01/2000,01:45:31.29,12.32,-78.45,-991.37,183.75,-735.0,-323.75,1,95.313,
01/01/2000,01:45:31.30,12.32,-78.45,-991.25,175.0,-577.50,-376.25,1,94.615,
01/01/2000,01:45:31.31,12.44,-78.57,-991.13,201.25,-682.50,-323.75,1,94.656,
01/01/2000,01:45:31.32,12.44,-78.45,-991.01,-17.50,-630.0,-350.0,1,94.697,
01/01/2000,01:45:31.33,12.69,-78.45,-990.88,61.25,-735.0,-341.25,1,94.737,
01/01/2000,01:45:31.34,12.69,-78.57,-990.88,140.0,-682.50,-323.75,1,94.776,
01/01/2000,01:45:31.36,12.44,-78.45,-991.01,96.25,-752.50,-376.25,1,94.815,
01/01/2000,01:45:31.37,12.57,-78.45,-991.01,236.25,-735.0,-376.25,1,94.853,
01/01/2000,01:45:31.38,12.69,-78.32,-991.01,113.75,-726.25,-350.0,1,94.891,
01/01/2000,01:45:31.39,12.57,-78.32,-990.88,288.75,-787.50,-306.25,1,94.928,
01/01/2000,01:45:31.40,12.44,-78.57,-990.88,262.50,-717.50,-446.25,1,94.964,
01/01/2000,01:45:31.41,12.44,-78.57,-990.88,96.25,-673.75,-385.0,1,95.0,
01/01/2000,01:45:31.42,12.57,-78.32,-991.01,157.50,-638.75,-446.25,1,95.035,
01/01/2000,01:45:31.43,12.57,-78.32,-991.13,148.75,-638.75,-297.50,1,95.070,
01/01/2000,01:45:31.44,12.57,-78.20,-991.01,175.0,-638.75,-315.0,1,95.105,
01/01/2000,01:45:31.45,12.69,-78.20,-991.01,201.25,-568.75,-341.25,1,95.139,
01/01/2000,01:45:31.46,12.57,-78.32,-991.13,148.75,-612.50,-192.50,1,95.172,
01/01/2000,01:45:31.47,12.57,-78.32,-991.13,236.25,-560.0,-411.25,1,95.205,
01/01/2000,01:45:31.48,12.57,-78.32,-991.25,113.75,-638.75,-315.0,1,95.238,
01/01/2000,01:45:31.49,12.69,-78.32,-991.13,148.75,-568.75,-315.0,1,94.631,
01/01/2000,01:45:31.50,12.44,-78.57,-991.01,105.0,-665.0,-358.75,1,94.667,
01/01/2000,01:45:31.51,12.32,-78.81,-990.88,288.75,-630.0,-402.50,1,94.702,
01/01/2000,01:45:31.52,12.44,-78.69,-990.88,105.0,-525.0,-385.0,1,94.737,
01/01/2000,01:45:31.53,12.44,-78.45,-991.13,166.25,-577.50,-227.50,1,94.771,
01/01/2000,01:45:31.54,12.44,-78.57,-991.25,157.50,-621.25,-332.50,1,94.805,
01/01/2000,01:45:31.56,12.20,-78.69,-991.13,131.25,-735.0,-393.75,1,94.839,
01/01/2000,01:45:31.57,12.44,-78.57,-991.25,288.75,-743.75,-402.50,1,94.268,
01/01/2000,01:45:31.58,12.69,-78.32,-991.25,148.75,-770.0,-271.25,1,94.304,
01/01/2000,01:45:31.59,12.57,-78.32,-991.13,245.0,-586.25,-315.0,1,94.340,
01/01/2000,01:45:31.60,12.32,-78.45,-990.88,227.50,-717.50,-306.25,1,94.375,
01/01/2000,01:45:31.61,12.20,-78.57,-990.88,288.75,-621.25,-393.75,1,94.410,
01/01/2000,01:45:31.62,12.32,-78.57,-990.88,122.50,-796.25,-358.75,1,94.444,
01/01/2000,01:45:31.64,12.44,-78.45,-991.01,131.25,-647.50,-280.0,1,94.479,
01/01/2000,01:45:31.65,12.20,-78.45,-990.88,148.75,-691.25,-376.25,1,94.512,
01/01/2000,01:45:31.66,11.96,-78.57,-990.52,-26.25,-682.50,-341.25,1,94.545,
01/01/2000,01:45:31.67,11.83,-78.81,-990.40,140.0,-735.0,-420.0,1,94.578,
01/01/2000,01:45:31.68,11.96,-78.32,-990.88,210.0,-752.50,-411.25,1,94.611,
01/01/2000,01:45:31.69,12.69,-78.08,-991.13,183.75,-717.50,-288.75,1,94.643,
01/01/2000,01:45:31.70,12.93,-78.20,-991.13,131.25,-743.75,-105.0,1,94.675,
01/01/2000,01:45:31.71,12.44,-78.81,-990.88,140.0,-647.50,-245.0,1,94.706,
01/01/2000,01:45:31.72,11.83,-78.93,-990.40,288.75,-612.50,-691.25,1,94.737,
01/01/2000,01:45:31.73,12.44,-78.45,-990.64,210.0,-665.0,-665.0,1,94.767,
01/01/2000,01:45:31.74,12.93,-78.20,-991.25,96.25,-857.50,-262.50,1,94.798,
01/01/2000,01:45:31.75,12.69,-78.45,-991.62,175.0,-586.25,113.75,1,94.828,
01/01/2000,01:45:31.76,12.08,-78.81,-990.88,113.75,-621.25,-315.0,1,94.857,
01/01/2000,01:45:31.77,12.20,-78.81,-990.64,376.25,-691.25,-603.75,1,94.886,
01/01/2000,01:45:31.78,12.44,-78.57,-991.13,131.25,-726.25,-455.0,1,94.915,
01/01/2000,01:45:31.79,12.57,-78.32,-991.25,0.0,-743.75,-148.75,1,94.944,
01/01/2000,01:45:31.80,12.57,-78.45,-991.01,253.75,-778.75,-236.25,1,94.972,
01/01/2000,01:45:31.81,12.20,-78.69,-990.76,61.25,-647.50,-393.75,1,95.0,
01/01/2000,01:45:31.82,11.96,-79.06,-990.88,262.50,-647.50,-446.25,1,94.505,
01/01/2000,01:45:31.83,12.32,-78.69,-991.25,157.50,-735.0,-402.50,1,95.055,
01/01/2000,01:45:31.85,12.69,-78.32,-991.25,140.0,-630.0,-218.75,1,94.565,
01/01/2000,01:45:31.86,12.44,-78.57,-990.88,236.25,-700.0,-201.25,1,94.595,
01/01/2000,01:45:31.87,12.20,-78.69,-990.40,105.0,-656.25,-341.25,1,94.624,
01/01/2000,01:45:31.88,12.32,-78.81,-990.52,332.50,-656.25,-507.50,1,94.652,
01/01/2000,01:45:31.89,12.57,-78.69,-991.01,96.25,-621.25,-341.25,1,94.681,
01/01/2000,01:45:31.90,12.69,-78.45,-991.13,183.75,-752.50,-367.50,1,94.709,
01/01/2000,01:45:31.91,12.57,-78.57,-991.01,210.0,-682.50,-253.75,1,94.737,
01/01/2000,01:45:31.92,12.20,-78.69,-990.64,271.25,-691.25,-271.25,1,94.764,
01/01/2000,01:45:31.93,12.20,-78.69,-991.01,157.50,-752.50,-437.50,1,94.792,
01/01/2000,01:45:31.94,12.57,-78.81,-991.37,-52.50,-778.75,-288.75,1,94.819,
01/01/2000,01:45:31.95,12.57,-78.69,-991.25,122.50,-656.25,-393.75,1,94.845,
01/01/2000,01:45:31.96,12.20,-78.57,-991.01,245.0,-656.25,-288.75,1,94.872,
01/01/2000,01:45:31.97,12.08,-78.57,-990.64,166.25,-673.75,-446.25,1,94.898,
01/01/2000,01:45:31.98,12.20,-78.57,-990.88,166.25,-735.0,-402.50,1,94.444,
01/01/2000,01:45:31.99,12.32,-78.57,-991.37,43.75,-673.75,-262.50,1,94.472,
01/01/2000,01:45:32.00,12.32,-78.69,-991.25,175.0,-647.50,-358.75,1,94.500,
01/01/2000,01:45:32.01,12.20,-78.57,-990.88,140.0,-717.50,-411.25,1,94.527,
01/01/2000,01:45:32.02,12.08,-78.69,-990.64,218.75,-743.75,-306.25,1,94.554,
01/01/2000,01:45:32.03,12.20,-78.57,-991.01,210.0,-735.0,-262.50,1,94.581,
01/01/2000,01:45:32.04,12.44,-78.45,-991.25,113.75,-665.0,-367.50,1,94.608,
01/01/2000,01:45:32.06,12.20,-78.69,-991.37,113.75,-700.0,-402.50,1,94.175,
01/01/2000,01:45:32.07,12.08,-78.81,-991.13,192.50,-656.25,-463.75,1,94.203,
01/01/2000,01:45:32.08,11.96,-78.93,-991.01,288.75,-673.75,-533.75,1,94.231,
01/01/2000,01:45:32.09,12.32,-78.57,-991.13,61.25,-761.25,-297.50,1,94.258,
01/01/2000,01:45:32.10,12.44,-78.57,-991.37,70.0,-743.75,-297.50,1,94.286,
01/01/2000,01:45:32.11,12.20,-78.81,-991.37,122.50,-560.0,-280.0,1,94.313,
01/01/2000,01:45:32.12,12.20,-78.81,-991.13,183.75,-700.0,-411.25,1,94.340,
01/01/2000,01:45:32.14,12.32,-78.57,-991.01,245.0,-743.75,-376.25,1,94.366,
01/01/2000,01:45:32.15,12.44,-78.57,-991.13,148.75,-708.75,-411.25,1,94.393,
01/01/2000,01:45:32.16,12.44,-78.69,-991.13,227.50,-708.75,-428.75,1,94.419,
01/01/2000,01:45:32.17,12.20,-78.93,-990.88,227.50,-665.0,-376.25,1,94.444,
01/01/2000,01:45:32.18,12.08,-78.81,-990.88,157.50,-682.50,-420.0,1,94.470,
01/01/2000,01:45:32.19,12.08,-78.93,-991.13,166.25,-700.0,-358.75,1,94.495,
01/01/2000,01:45:32.20,12.44,-78.57,-991.25,52.50,-726.25,-262.50,1,94.521,
01/01/2000,01:45:32.21,12.44,-78.57,-991.37,288.75,-630.0,-358.75,1,94.545,
01/01/2000,01:45:32.22,12.20,-78.81,-991.25,183.75,-743.75,-306.25,1,94.570,
01/01/2000,01:45:32.23,12.08,-79.06,-991.37,192.50,-682.50,-568.75,1,94.595,
01/01/2000,01:45:32.24,12.08,-78.81,-991.37,148.75,-603.75,-288.75,1,94.619,
01/01/2000,01:45:32.25,12.20,-78.57,-991.25,70.0,-726.25,-297.50,1,94.643,
01/01/2000,01:45:32.26,12.08,-78.57,-991.13,350.0,-717.50,-297.50,1,94.667,
01/01/2000,01:45:32.28,11.96,-78.81,-991.13,166.25,-752.50,-332.50,1,94.273,
01/01/2000,01:45:32.29,12.08,-78.81,-991.37,157.50,-603.75,-490.0,1,94.298,
01/01/2000,01:45:32.30,12.08,-78.81,-991.37,61.25,-743.75,-306.25,1,94.323,
01/01/2000,01:45:32.31,12.20,-78.81,-991.37,236.25,-595.0,-323.75,1,94.348,
01/01/2000,01:45:32.32,12.20,-78.69,-991.13,227.50,-743.75,-516.25,1,94.372,
01/01/2000,01:45:32.33,12.20,-78.81,-991.25,157.50,-717.50,-332.50,1,94.397,
01/01/2000,01:45:32.34,12.32,-78.81,-991.49,175.0,-595.0,-236.25,1,94.421,
01/01/2000,01:45:32.35,12.44,-79.06,-991.62,131.25,-673.75,-323.75,1,94.444,
01/01/2000,01:45:32.36,12.44,-79.06,-991.62,175.0,-560.0,-306.25,1,94.468,
01/01/2000,01:45:32.37,12.32,-79.06,-991.37,175.0,-673.75,-358.75,1,94.492,
01/01/2000,01:45:32.38,12.20,-79.06,-991.49,201.25,-656.25,-358.75,1,94.515,
01/01/2000,01:45:32.39,12.32,-78.81,-991.62,175.0,-743.75,-402.50,1,94.538,
01/01/2000,01:45:32.40,12.57,-78.69,-991.74,105.0,-735.0,-297.50,1,94.561,
01/01/2000,01:45:32.41,12.57,-78.81,-991.62,175.0,-717.50,-297.50,1,94.191,
01/01/2000,01:45:32.42,12.44,-78.81,-991.25,201.25,-726.25,-358.75,1,94.215,
01/01/2000,01:45:32.43,12.44,-78.81,-991.25,166.25,-700.0,-376.25,1,94.239,
01/01/2000,01:45:32.44,12.57,-78.57,-991.37,78.75,-708.75,-245.0,1,94.262,
01/01/2000,01:45:32.45,12.69,-78.81,-991.37,131.25,-673.75,-288.75,1,94.286,
01/01/2000,01:45:32.46,12.44,-78.81,-991.37,175.0,-656.25,-297.50,1,94.309,
01/01/2000,01:45:32.48,12.32,-78.81,-991.13,140.0,-735.0,-341.25,1,94.332,
01/01/2000,01:45:32.49,12.44,-78.81,-991.25,175.0,-717.50,-315.0,1,94.355,
01/01/2000,01:45:32.50,12.44,-78.81,-991.25,87.50,-691.25,-297.50,1,94.378,
01/01/2000,01:45:32.51,12.44,-78.69,-991.37,113.75,-682.50,-402.50,1,94.400,
01/01/2000,01:45:32.52,12.32,-78.57,-991.37,253.75,-656.25,-341.25,1,94.422,
01/01/2000,01:45:32.53,12.20,-78.69,-991.13,17.50,-665.0,-385.0,1,94.444,
01/01/2000,01:45:32.54,12.20,-78.69,-991.37,148.75,-621.25,-358.75,1,94.466,
01/01/2000,01:45:32.55,12.44,-78.81,-991.37,157.50,-603.75,-385.0,1,94.118,
01/01/2000,01:45:32.56,12.32,-78.81,-991.25,201.25,-743.75,-288.75,1,94.141,
01/01/2000,01:45:32.58,12.32,-79.06,-991.25,157.50,-621.25,-402.50,1,94.163,
01/01/2000,01:45:32.59,12.20,-78.93,-991.25,201.25,-700.0,-315.0,1,94.186,
01/01/2000,01:45:32.60,12.32,-78.93,-991.37,87.50,-726.25,-376.25,1,94.208,
01/01/2000,01:45:32.61,12.32,-78.93,-991.37,87.50,-700.0,-315.0,1,94.231,
01/01/2000,01:45:32.62,12.32,-79.06,-991.37,157.50,-726.25,-350.0,1,94.253,
01/01/2000,01:45:32.63,12.20,-78.93,-991.37,210.0,-743.75,-402.50,1,94.275,
01/01/2000,01:45:32.64,12.44,-78.81,-991.49,210.0,-708.75,-358.75,1,94.297,
01/01/2000,01:45:32.65,12.32,-78.69,-991.49,70.0,-691.25,-323.75,1,94.318,
01/01/2000,01:45:32.66,12.44,-78.57,-991.37,131.25,-586.25,-323.75,1,94.340,
01/01/2000,01:45:32.67,12.32,-78.81,-991.37,253.75,-691.25,-428.75,1,94.361,
01/01/2000,01:45:32.68,12.44,-78.93,-991.37,148.75,-656.25,-341.25,1,94.382,
01/01/2000,01:45:32.69,12.44,-78.93,-991.49,26.25,-682.50,-323.75,1,94.403,
01/01/2000,01:45:32.70,12.44,-78.93,-991.62,166.25,-665.0,-218.75,1,94.424,
01/01/2000,01:45:32.71,12.32,-79.06,-991.62,35.0,-700.0,-323.75,1,94.444,
01/01/2000,01:45:32.72,12.32,-79.06,-991.49,148.75,-735.0,-306.25,1,94.465,
01/01/2000,01:45:32.73,12.20,-79.18,-991.62,131.25,-700.0,-315.0,1,94.485,
01/01/2000,01:45:32.74,12.20,-79.06,-991.62,218.75,-603.75,-350.0,1,94.505,
01/01/2000,01:45:32.75,12.32,-79.06,-991.74,122.50,-621.25,-306.25,1,94.526,
01/01/2000,01:45:32.76,12.20,-79.18,-991.62,148.75,-647.50,-411.25,1,94.203,
01/01/2000,01:45:32.77,11.71,-79.54,-991.62,192.50,-691.25,-105.0,1,94.224,
01/01/2000,01:45:32.78,12.81,-78.45,-991.37,-131.25,-647.50,-848.75,1,94.245,
01/01/2000,01:45:32.79,12.32,-79.30,-991.25,595.0,-691.25,17.50,1,94.265,
01/01/2000,01:45:32.81,12.44,-78.81,-991.25,166.25,-647.50,-210.0,1,94.286,
01/01/2000,01:45:32.81,11.96,-79.06,-991.37,166.25,-708.75,-577.50,1,94.306,
01/01/2000,01:45:32.83,12.44,-78.81,-991.62,297.50,-735.0,-638.75,1,94.326,
01/01/2000,01:45:32.84,12.69,-78.45,-991.49,-78.75,-665.0,-87.50,1,94.346,
01/01/2000,01:45:32.85,12.32,-78.93,-991.13,341.25,-708.75,-148.75,1,94.366,
01/01/2000,01:45:32.86,12.32,-78.81,-991.01,105.0,-761.25,-393.75,1,94.386,
01/01/2000,01:45:32.87,12.32,-78.93,-991.37,113.75,-665.0,-376.25,1,94.406,
01/01/2000,01:45:32.88,12.44,-78.93,-991.62,253.75,-612.50,-315.0,1,94.425,
01/01/2000,01:45:32.89,12.44,-78.57,-991.62,52.50,-752.50,-306.25,1,94.444,
01/01/2000,01:45:32.90,12.20,-78.81,-991.49,140.0,-717.50,-253.75,1,94.464,
01/01/2000,01:45:32.91,12.08,-78.93,-991.49,210.0,-621.25,-507.50,1,94.158,
01/01/2000,01:45:32.92,12.20,-79.06,-991.62,157.50,-665.0,-463.75,1,94.178,
01/01/2000,01:45:32.93,12.44,-79.06,-991.98,183.75,-735.0,-227.50,1,94.198,
01/01/2000,01:45:32.94,12.20,-78.69,-991.86,17.50,-656.25,-367.50,1,94.218,
01/01/2000,01:45:32.95,12.20,-78.57,-991.62,192.50,-647.50,-271.25,1,94.237,
01/01/2000,01:45:32.96,12.32,-78.45,-991.37,96.25,-507.50,-323.75,1,94.257,
01/01/2000,01:45:32.98,12.32,-78.45,-991.49,96.25,-603.75,-358.75,1,94.276,
01/01/2000,01:45:32.99,12.44,-78.69,-991.74,157.50,-647.50,-411.25,1,94.295,
01/01/2000,01:45:33.00,12.44,-78.69,-991.49,87.50,-665.0,-385.0,1,94.314,
01/01/2000,01:45:33.01,12.32,-78.57,-991.13,175.0,-787.50,-420.0,1,94.333,
01/01/2000,01:45:33.02,12.20,-78.57,-991.13,113.75,-630.0,-271.25,1,94.352,
01/01/2000,01:45:33.03,12.20,-78.57,-991.37,166.25,-665.0,-420.0,1,94.371,
01/01/2000,01:45:33.04,12.44,-78.57,-991.37,8.75,-621.25,-253.75,1,94.389,
01/01/2000,01:45:33.05,12.57,-78.57,-991.13,105.0,-673.75,-227.50,1,94.408,
01/01/2000,01:45:33.06,12.32,-78.57,-990.88,122.50,-665.0,-315.0,1,94.426,
01/01/2000,01:45:33.07,12.44,-78.57,-991.01,122.50,-647.50,-455.0,1,94.444,
01/01/2000,01:45:33.08,12.57,-78.57,-991.37,332.50,-717.50,-332.50,1,94.156,
01/01/2000,01:45:33.10,12.44,-78.57,-991.49,227.50,-726.25,-376.25,1,94.175,
01/01/2000,01:45:33.11,12.20,-78.69,-991.25,192.50,-682.50,-385.0,1,94.194,
01/01/2000,01:45:33.12,12.20,-78.69,-991.13,192.50,-682.50,-411.25,1,94.212,
01/01/2000,01:45:33.13,12.20,-78.69,-991.37,175.0,-612.50,-332.50,1,94.231,
01/01/2000,01:45:33.14,12.44,-78.69,-991.49,105.0,-700.0,-411.25,1,94.249,
01/01/2000,01:45:33.15,12.44,-78.93,-991.49,78.75,-647.50,-358.75,1,94.268,
01/01/2000,01:45:33.16,12.32,-78.81,-991.25,210.0,-700.0,-385.0,1,94.286,
01/01/2000,01:45:33.17,12.32,-78.81,-991.13,113.75,-691.25,-385.0,1,94.304,
01/01/2000,01:45:33.18,12.32,-78.69,-991.49,201.25,-673.75,-350.0,1,94.322,
01/01/2000,01:45:33.19,12.57,-78.57,-991.49,61.25,-778.75,-393.75,1,94.340,
01/01/2000,01:45:33.20,12.44,-78.57,-991.37,122.50,-778.75,-411.25,1,94.357,
01/01/2000,01:45:33.21,12.20,-78.57,-991.25,210.0,-735.0,-306.25,1,94.375,
01/01/2000,01:45:33.22,12.08,-78.69,-991.13,148.75,-717.50,-332.50,1,94.393,
01/01/2000,01:45:33.23,12.20,-78.45,-991.37,166.25,-700.0,-376.25,1,94.410,
01/01/2000,01:45:33.24,12.32,-78.32,-991.37,227.50,-700.0,-315.0,1,94.427,
01/01/2000,01:45:33.25,12.20,-78.45,-991.25,61.25,-778.75,-420.0,1,94.444,
01/01/2000,01:45:33.26,12.20,-78.57,-991.13,105.0,-656.25,-350.0,1,94.462,
01/01/2000,01:45:33.27,12.20,-78.57,-991.13,236.25,-691.25,-323.75,1,94.479,
01/01/2000,01:45:33.28,12.32,-78.57,-991.25,323.75,-700.0,-288.75,1,94.495,
01/01/2000,01:45:33.29,12.32,-78.57,-991.37,192.50,-726.25,-245.0,1,94.512,
01/01/2000,01:45:33.30,12.44,-78.57,-991.13,87.50,-656.25,-376.25,1,94.529,
01/01/2000,01:45:33.31,12.32,-78.69,-991.13,210.0,-735.0,-288.75,1,94.545,
01/01/2000,01:45:33.32,12.44,-78.69,-991.01,288.75,-638.75,-315.0,1,94.562,
01/01/2000,01:45:33.33,12.57,-78.57,-991.13,148.75,-612.50,-271.25,1,94.294,
01/01/2000,01:45:33.34,12.69,-78.57,-991.13,341.25,-595.0,-332.50,1,94.311,
01/01/2000,01:45:33.35,12.57,-78.57,-991.13,227.50,-743.75,-367.50,1,94.328,
01/01/2000,01:45:33.36,12.57,-78.69,-991.13,183.75,-630.0,-367.50,1,94.345,
01/01/2000,01:45:33.37,12.69,-78.69,-991.13,262.50,-621.25,-402.50,1,94.362,
01/01/2000,01:45:33.38,12.57,-78.57,-991.13,192.50,-638.75,-350.0,1,94.379,
01/01/2000,01:45:33.40,12.44,-78.57,-991.13,140.0,-665.0,-358.75,1,94.395,
01/01/2000,01:45:33.41,12.44,-78.69,-990.88,35.0,-603.75,-376.25,1,94.412,
01/01/2000,01:45:33.42,12.44,-78.81,-990.88,175.0,-700.0,-455.0,1,94.428,
01/01/2000,01:45:33.43,12.44,-78.69,-990.88,113.75,-752.50,-446.25,1,94.444,
01/01/2000,01:45:33.44,12.44,-78.57,-990.88,35.0,-673.75,-297.50,1,94.461,
01/01/2000,01:45:33.45,12.44,-78.57,-991.01,105.0,-665.0,-271.25,1,94.477,
01/01/2000,01:45:33.46,12.32,-78.57,-991.01,183.75,-761.25,-411.25,1,94.493,
01/01/2000,01:45:33.47,12.20,-78.69,-991.01,175.0,-752.50,-315.0,1,94.236,
01/01/2000,01:45:33.48,12.20,-78.57,-991.13,218.75,-682.50,-280.0,1,94.253,
01/01/2000,01:45:33.49,12.32,-78.57,-991.25,192.50,-673.75,-350.0,1,94.269,
01/01/2000,01:45:33.50,12.32,-78.57,-991.25,78.75,-735.0,-323.75,1,94.286,
01/01/2000,01:45:33.51,12.32,-78.69,-991.13,157.50,-656.25,-367.50,1,94.302,
01/01/2000,01:45:33.52,12.20,-78.69,-991.13,113.75,-665.0,-350.0,1,94.318,
01/01/2000,01:45:33.53,12.20,-78.69,-991.01,280.0,-735.0,-402.50,1,94.334,
01/01/2000,01:45:33.55,12.32,-78.81,-991.13,201.25,-673.75,-201.25,1,94.350,
01/01/2000,01:45:33.56,12.32,-78.81,-991.01,70.0,-665.0,-411.25,1,94.366,
01/01/2000,01:45:33.57,12.20,-78.93,-990.88,218.75,-673.75,-428.75,1,94.382,
01/01/2000,01:45:33.58,12.08,-78.93,-990.76,157.50,-708.75,-385.0,1,94.398,
01/01/2000,01:45:33.59,12.32,-78.81,-990.88,175.0,-463.75,-341.25,1,94.413,
01/01/2000,01:45:33.60,12.20,-78.81,-990.88,192.50,-700.0,-393.75,1,94.429,
01/01/2000,01:45:33.61,12.32,-78.93,-990.64,148.75,-708.75,-262.50,1,94.183,
01/01/2000,01:45:33.62,12.20,-78.93,-990.76,122.50,-647.50,-393.75,1,94.199,
01/01/2000,01:45:33.63,12.32,-78.93,-990.64,166.25,-647.50,-227.50,1,94.215,
01/01/2000,01:45:33.64,12.44,-78.81,-990.64,113.75,-612.50,-297.50,1,94.231,
01/01/2000,01:45:33.65,12.44,-78.81,-990.76,218.75,-778.75,-358.75,1,94.247,
01/01/2000,01:45:33.66,12.44,-78.81,-990.76,105.0,-656.25,-315.0,1,94.262,
01/01/2000,01:45:33.67,12.44,-79.06,-990.88,227.50,-743.75,-376.25,1,94.278,
01/01/2000,01:45:33.68,12.44,-79.06,-990.88,183.75,-595.0,-385.0,1,94.293,
01/01/2000,01:45:33.69,12.44,-78.93,-990.88,183.75,-612.50,-358.75,1,94.309,
01/01/2000,01:45:33.70,12.32,-78.81,-990.88,236.25,-717.50,-175.0,1,94.324,
01/01/2000,01:45:33.71,12.20,-78.93,-990.88,166.25,-595.0,-411.25,1,94.340,
01/01/2000,01:45:33.72,12.08,-78.81,-991.01,253.75,-665.0,-297.50,1,94.355,
01/01/2000,01:45:33.73,12.32,-78.93,-991.13,96.25,-700.0,-323.75,1,94.370,
01/01/2000,01:45:33.75,12.32,-78.81,-991.13,17.50,-621.25,-306.25,1,94.385,
01/01/2000,01:45:33.76,12.20,-78.81,-990.88,113.75,-752.50,-332.50,1,94.400,
01/01/2000,01:45:33.77,12.32,-78.81,-991.01,131.25,-735.0,-280.0,1,94.415,
01/01/2000,01:45:33.78,12.44,-78.81,-991.13,122.50,-778.75,-490.0,1,94.430,
01/01/2000,01:45:33.79,12.44,-78.81,-991.25,262.50,-673.75,-393.75,1,94.444,
01/01/2000,01:45:33.80,12.57,-78.81,-991.13,131.25,-717.50,-393.75,1,94.459,
01/01/2000,01:45:33.81,12.69,-78.81,-991.13,236.25,-735.0,-358.75,1,94.474,
01/01/2000,01:45:33.82,12.57,-79.06,-991.01,70.0,-682.50,-463.75,1,94.241,
01/01/2000,01:45:33.83,12.57,-79.06,-991.01,166.25,-761.25,-358.75,1,94.256,
01/01/2000,01:45:33.84,12.44,-79.06,-991.13,227.50,-778.75,-393.75,1,94.271,
01/01/2000,01:45:33.85,12.44,-79.06,-991.13,131.25,-665.0,-420.0,1,94.286,
01/01/2000,01:45:33.86,12.32,-78.93,-991.13,61.25,-612.50,-358.75,1,94.301,
01/01/2000,01:45:33.87,12.32,-79.06,-991.01,87.50,-630.0,-323.75,1,94.315,
01/01/2000,01:45:33.88,12.32,-79.06,-991.01,192.50,-656.25,-315.0,1,94.330,
01/01/2000,01:45:33.90,12.32,-78.93,-991.25,122.50,-691.25,-393.75,1,94.344,
01/01/2000,01:45:33.91,12.44,-78.81,-991.13,201.25,-700.0,-245.0,1,94.359,
01/01/2000,01:45:33.92,12.44,-78.81,-991.01,166.25,-673.75,-350.0,1,94.373,
01/01/2000,01:45:33.93,12.32,-78.69,-990.88,131.25,-560.0,-332.50,1,94.388,
01/01/2000,01:45:33.94,12.32,-78.69,-991.01,96.25,-691.25,-402.50,1,94.402,
01/01/2000,01:45:33.95,12.32,-78.69,-991.13,157.50,-752.50,-402.50,1,94.416,
01/01/2000,01:45:33.96,12.32,-78.81,-991.13,236.25,-770.0,-367.50,1,94.430,
01/01/2000,01:45:33.97,12.32,-78.57,-991.01,96.25,-752.50,-297.50,1,94.444,
01/01/2000,01:45:33.98,12.44,-78.69,-991.13,113.75,-752.50,-358.75,1,94.458,
01/01/2000,01:45:33.99,12.44,-78.57,-991.13,78.75,-691.25,-385.0,1,94.472,
01/01/2000,01:45:34.00,12.32,-78.57,-991.13,113.75,-708.75,-350.0,1,94.486,
01/01/2000,01:45:34.01,12.44,-78.69,-991.13,166.25,-717.50,-358.75,1,94.500,
01/01/2000,01:45:34.02,12.32,-78.57,-991.13,210.0,-726.25,-183.75,1,94.514,
01/01/2000,01:45:34.03,12.32,-78.57,-991.01,122.50,-700.0,-376.25,1,94.293,
01/01/2000,01:45:34.04,12.32,-78.57,-991.13,192.50,-656.25,-420.0,1,94.307,
01/01/2000,01:45:34.05,12.44,-78.45,-991.13,131.25,-656.25,-350.0,1,94.321,
01/01/2000,01:45:34.06,12.20,-78.69,-991.13,210.0,-682.50,-393.75,1,94.335,
01/01/2000,01:45:34.07,12.32,-78.69,-991.25,192.50,-665.0,-280.0,1,94.349,
01/01/2000,01:45:34.08,12.32,-78.81,-991.25,253.75,-700.0,-376.25,1,94.363,
01/01/2000,01:45:34.09,12.44,-78.57,-991.37,236.25,-805.0,-385.0,1,94.377,
01/01/2000,01:45:34.11,12.32,-78.57,-991.25,236.25,-682.50,-271.25,1,94.161,
01/01/2000,01:45:34.12,12.32,-78.81,-991.13,192.50,-673.75,-367.50,1,94.175,
01/01/2000,01:45:34.13,12.44,-78.69,-991.01,96.25,-691.25,-306.25,1,94.189,
01/01/2000,01:45:34.14,12.32,-78.81,-991.01,157.50,-752.50,-288.75,1,94.203,
01/01/2000,01:45:34.15,12.32,-78.57,-990.88,96.25,-682.50,-262.50,1,94.217,
01/01/2000,01:45:34.16,12.32,-78.69,-990.88,271.25,-770.0,-323.75,1,94.231,
01/01/2000,01:45:34.17,12.20,-78.57,-990.88,183.75,-752.50,-393.75,1,94.245,
01/01/2000,01:45:34.19,12.20,-78.57,-990.64,131.25,-700.0,-315.0,1,94.258,
01/01/2000,01:45:34.19,12.20,-78.57,-990.76,192.50,-708.75,-315.0,1,94.272,
01/01/2000,01:45:34.21,12.32,-78.57,-990.88,166.25,-726.25,-350.0,1,94.286,
01/01/2000,01:45:34.22,12.44,-78.57,-991.01,297.50,-621.25,-315.0,1,94.299,
01/01/2000,01:45:34.23,12.44,-78.69,-991.01,262.50,-726.25,-428.75,1,94.313,
01/01/2000,01:45:34.24,12.44,-78.69,-991.01,210.0,-708.75,-297.50,1,94.326,
01/01/2000,01:45:34.25,12.44,-78.57,-990.88,192.50,-700.0,-341.25,1,94.340,
01/01/2000,01:45:34.26,12.57,-78.45,-991.01,210.0,-708.75,-402.50,1,94.353,
01/01/2000,01:45:34.27,12.44,-78.57,-991.01,148.75,-752.50,-253.75,1,94.366,
01/01/2000,01:45:34.28,12.57,-78.32,-991.01,96.25,-665.0,-288.75,1,94.379,
01/01/2000,01:45:34.29,12.57,-78.57,-990.88,218.75,-778.75,-350.0,1,94.393,
01/01/2000,01:45:34.30,12.81,-78.57,-991.01,70.0,-717.50,-376.25,1,94.406,
01/01/2000,01:45:34.31,12.69,-78.57,-991.13,210.0,-752.50,-402.50,1,94.419,
01/01/2000,01:45:34.32,12.57,-78.45,-991.13,306.25,-621.25,-411.25,1,94.432,
01/01/2000,01:45:34.33,12.57,-78.32,-991.01,87.50,-708.75,-350.0,1,94.444,
01/01/2000,01:45:34.34,12.57,-78.57,-991.13,113.75,-700.0,-350.0,1,94.457,
01/01/2000,01:45:34.35,12.44,-78.57,-991.37,332.50,-717.50,-288.75,1,94.470,
01/01/2000,01:45:34.36,12.44,-78.57,-991.25,96.25,-656.25,-332.50,1,94.483,
01/01/2000,01:45:34.37,12.32,-78.69,-991.13,148.75,-612.50,-428.75,1,94.495,
01/01/2000,01:45:34.38,12.32,-78.69,-991.13,0.0,-656.25,-306.25,1,94.292,
01/01/2000,01:45:34.39,12.44,-78.81,-991.13,341.25,-577.50,-376.25,1,94.305,
01/01/2000,01:45:34.40,12.57,-78.81,-991.25,-8.75,-691.25,-297.50,1,94.318,
01/01/2000,01:45:34.41,12.32,-78.93,-991.37,306.25,-595.0,-332.50,1,94.331,
01/01/2000,01:45:34.42,12.32,-79.06,-991.37,-17.50,-743.75,-376.25,1,94.344,
01/01/2000,01:45:34.44,12.57,-78.93,-991.37,288.75,-665.0,-402.50,1,94.357,
01/01/2000,01:45:34.44,12.44,-79.06,-991.25,262.50,-682.50,-288.75,1,94.369,
01/01/2000,01:45:34.46,12.32,-78.81,-990.88,-61.25,-595.0,-323.75,1,94.382,
01/01/2000,01:45:34.47,-0.24,-79.30,-967.95,-78.75,-525.0,4095.0,1,94.395,
01/01/2000,01:45:34.48,-6.95,-78.81,-950.14,3395.0,-1312.50,192.50,1,94.407,
01/01/2000,01:45:34.49,3.05,-76.86,-976.0,1277.50,-1653.75,-7358.75,1,94.420,
01/01/2000,01:45:34.50,17.08,-80.03,-1008.94,586.25,-857.50,-5267.50,1,94.432,
01/01/2000,01:45:34.51,28.79,-79.79,-1031.14,-997.50,87.50,875.0,1,94.444,
01/01/2000,01:45:34.52,30.62,-78.20,-1031.75,-805.0,-253.75,5232.50,1,94.457,
01/01/2000,01:45:34.53,24.52,-76.86,-1006.01,253.75,-866.25,-752.50,1,94.260,
01/01/2000,01:45:34.54,13.18,-78.57,-981.49,700.0,-1093.75,-1356.25,1,94.273,
01/01/2000,01:45:34.55,7.81,-80.15,-977.46,840.0,-1032.50,-105.0,1,94.286,
01/01/2000,01:45:34.56,7.32,-81.13,-984.05,997.50,-892.50,-612.50,1,94.298,
01/01/2000,01:45:34.57,9.88,-80.03,-995.28,481.25,-402.50,-1671.25,1,94.311,
01/01/2000,01:45:34.58,12.69,-77.35,-1002.72,-288.75,-402.50,70.0,1,94.323,
01/01/2000,01:45:34.60,15.86,-75.40,-1000.52,-201.25,-568.75,1128.75,1,94.336,
01/01/2000,01:45:34.61,15.13,-78.45,-990.40,-8.75,-630.0,166.25,1,94.348,
01/01/2000,01:45:34.62,12.32,-81.50,-984.17,463.75,-875.0,-980.0,1,94.156,
01/01/2000,01:45:34.63,10.98,-81.13,-987.10,446.25,-752.50,-1128.75,1,94.168,
01/01/2000,01:45:34.64,11.35,-78.93,-991.62,306.25,-700.0,-1295.0,1,94.181,
01/01/2000,01:45:34.65,11.59,-76.74,-994.42,-96.25,-656.25,-280.0,1,94.194,
01/01/2000,01:45:34.66,11.59,-75.64,-993.57,-70.0,-437.50,1181.25,1,94.206,
01/01/2000,01:45:34.68,11.71,-77.84,-989.42,192.50,-621.25,831.25,1,94.218,
01/01/2000,01:45:34.69,12.44,-80.52,-987.59,350.0,-708.75,-236.25,1,94.231,
01/01/2000,01:45:34.70,12.81,-82.11,-987.96,148.75,-927.50,-1050.0,1,94.243,
01/01/2000,01:45:34.71,12.69,-81.01,-991.01,183.75,-743.75,-1085.0,1,94.255,
01/01/2000,01:45:34.72,12.20,-78.45,-992.59,35.0,-656.25,-603.75,1,94.268,
01/01/2000,01:45:34.73,11.22,-76.62,-992.35,96.25,-490.0,175.0,1,94.280,
01/01/2000,01:45:34.74,10.98,-76.25,-991.13,227.50,-682.50,183.75,1,94.292,
01/01/2000,01:45:34.75,11.35,-78.81,-989.66,192.50,-656.25,-166.25,1,94.304,
01/01/2000,01:45:34.76,12.08,-81.01,-989.91,253.75,-700.0,-612.50,1,94.316,
01/01/2000,01:45:34.77,12.93,-81.62,-990.64,52.50,-743.75,-840.0,1,94.328,
01/01/2000,01:45:34.78,13.30,-80.89,-991.37,218.75,-717.50,-481.25,1,94.340,
01/01/2000,01:45:34.79,12.69,-78.08,-991.37,17.50,-717.50,52.50,1,94.351,
01/01/2000,01:45:34.80,11.83,-76.98,-991.01,166.25,-621.25,332.50,1,94.363,
01/01/2000,01:45:34.81,11.35,-77.59,-990.88,105.0,-595.0,157.50,1,94.375,
01/01/2000,01:45:34.82,11.59,-78.57,-991.25,131.25,-647.50,-402.50,1,94.387,
01/01/2000,01:45:34.83,12.57,-80.52,-991.37,236.25,-647.50,-796.25,1,94.398,
01/01/2000,01:45:34.84,12.93,-80.52,-991.13,105.0,-630.0,-1058.75,1,94.410,
01/01/2000,01:45:34.85,12.93,-79.30,-990.88,-26.25,-813.75,-498.75,1,94.421,
01/01/2000,01:45:34.86,12.44,-78.45,-990.64,280.0,-700.0,0.0,1,94.433,
01/01/2000,01:45:34.87,11.71,-78.08,-991.25,245.0,-647.50,-140.0,1,94.444,
01/01/2000,01:45:34.88,11.71,-78.81,-992.10,78.75,-586.25,-227.50,1,94.262,
01/01/2000,01:45:34.89,12.08,-79.42,-992.10,166.25,-630.0,-227.50,1,94.274,
01/01/2000,01:45:34.90,12.69,-79.67,-991.49,26.25,-621.25,-428.75,1,94.286,
01/01/2000,01:45:34.91,12.93,-79.42,-991.13,306.25,-726.25,-201.25,1,94.297,
01/01/2000,01:45:34.92,12.93,-79.30,-991.13,350.0,-726.25,-332.50,1,94.309,
01/01/2000,01:45:34.93,12.44,-79.06,-991.98,253.75,-761.25,-341.25,1,94.320,
01/01/2000,01:45:34.95,12.20,-79.06,-992.35,192.50,-586.25,-428.75,1,94.332,
01/01/2000,01:45:34.96,12.08,-78.93,-992.10,148.75,-752.50,-420.0,1,94.343,
01/01/2000,01:45:34.97,12.44,-79.06,-991.62,288.75,-621.25,-472.50,1,94.355,
01/01/2000,01:45:34.98,12.81,-79.18,-991.13,183.75,-700.0,-332.50,1,94.366,
01/01/2000,01:45:34.99,13.05,-79.54,-991.62,157.50,-665.0,-262.50,1,94.378,
01/01/2000,01:45:35.00,12.81,-79.54,-991.98,87.50,-717.50,-323.75,1,94.389,
01/01/2000,01:45:35.01,12.32,-79.18,-992.10,227.50,-603.75,-332.50,1,94.400,
01/01/2000,01:45:35.02,12.08,-78.69,-991.86,253.75,-621.25,-218.75,1,94.411,
01/01/2000,01:45:35.03,12.20,-78.32,-991.74,35.0,-752.50,-323.75,1,94.422,
01/01/2000,01:45:35.04,12.69,-78.57,-991.62,148.75,-691.25,-341.25,1,94.433,
01/01/2000,01:45:35.05,13.05,-79.42,-991.62,210.0,-595.0,-420.0,1,94.444,
01/01/2000,01:45:35.06,12.93,-79.67,-991.86,78.75,-848.75,-323.75,1,94.455,
01/01/2000,01:45:35.07,12.44,-79.54,-991.74,122.50,-726.25,-411.25,1,94.466,
01/01/2000,01:45:35.08,12.20,-79.06,-991.62,227.50,-630.0,-350.0,1,94.477,
01/01/2000,01:45:35.09,12.20,-78.57,-991.74,306.25,-717.50,-148.75,1,94.303,
01/01/2000,01:45:35.10,12.44,-78.81,-991.86,148.75,-612.50,-245.0,1,94.314,
01/01/2000,01:45:35.11,12.69,-79.30,-991.86,218.75,-525.0,-148.75,1,94.325,
01/01/2000,01:45:35.12,12.93,-79.30,-991.74,52.50,-700.0,-175.0,1,94.336,
01/01/2000,01:45:35.14,12.57,-79.06,-991.62,70.0,-612.50,-341.25,1,94.347,
01/01/2000,01:45:35.15,12.57,-78.81,-991.62,245.0,-673.75,-192.50,1,94.358,
01/01/2000,01:45:35.16,12.32,-78.57,-991.98,192.50,-612.50,-332.50,1,94.369,
01/01/2000,01:45:35.17,12.32,-78.69,-992.23,-87.50,-717.50,-297.50,1,94.380,
01/01/2000,01:45:35.18,12.32,-78.93,-992.10,61.25,-761.25,-297.50,1,94.391,
01/01/2000,01:45:35.19,12.57,-79.06,-991.62,87.50,-691.25,-472.50,1,94.402,
01/01/2000,01:45:35.20,12.69,-79.30,-991.37,376.25,-665.0,-411.25,1,94.412,
01/01/2000,01:45:35.21,12.69,-79.18,-991.74,78.75,-665.0,-227.50,1,94.423,
01/01/2000,01:45:35.22,12.44,-79.06,-991.98,236.25,-673.75,-306.25,1,94.434,
01/01/2000,01:45:35.23,12.08,-78.93,-992.10,105.0,-612.50,-367.50,1,94.264,
01/01/2000,01:45:35.24,12.20,-78.93,-991.98,323.75,-875.0,-323.75,1,94.275,
01/01/2000,01:45:35.25,12.20,-79.06,-991.74,105.0,-551.25,-218.75,1,94.286,
01/01/2000,01:45:35.26,12.32,-78.81,-991.62,140.0,-621.25,-376.25,1,94.297,
01/01/2000,01:45:35.27,12.44,-78.81,-991.74,236.25,-787.50,-376.25,1,94.307,
01/01/2000,01:45:35.28,12.57,-78.93,-991.86,341.25,-691.25,-402.50,1,94.318,
01/01/2000,01:45:35.29,12.44,-78.69,-991.98,-43.75,-813.75,-367.50,1,94.329,
01/01/2000,01:45:35.31,12.20,-78.57,-991.86,236.25,-647.50,-472.50,1,94.340,
01/01/2000,01:45:35.32,12.32,-78.57,-991.86,113.75,-638.75,-218.75,1,94.350,
01/01/2000,01:45:35.33,12.44,-78.57,-991.86,218.75,-630.0,-376.25,1,94.361,
01/01/2000,01:45:35.34,12.57,-79.06,-992.10,113.75,-778.75,-253.75,1,94.371,
01/01/2000,01:45:35.35,12.69,-79.06,-992.10,175.0,-708.75,-271.25,1,94.382,
01/01/2000,01:45:35.36,12.57,-79.30,-991.98,236.25,-700.0,-262.50,1,94.393,
01/01/2000,01:45:35.37,12.20,-79.06,-991.74,227.50,-708.75,-428.75,1,94.403,
01/01/2000,01:45:35.38,12.20,-79.06,-991.74,166.25,-630.0,-323.75,1,94.413,
01/01/2000,01:45:35.39,12.20,-78.81,-991.86,166.25,-647.50,-367.50,1,94.424,
01/01/2000,01:45:35.40,12.44,-79.06,-991.86,393.75,-656.25,-332.50,1,94.434,
01/01/2000,01:45:35.41,12.20,-79.06,-991.74,17.50,-796.25,-358.75,1,94.444,
01/01/2000,01:45:35.42,12.32,-79.18,-991.49,306.25,-761.25,-385.0,1,94.455,
01/01/2000,01:45:35.43,12.20,-79.18,-991.49,253.75,-673.75,-341.25,1,94.465,
01/01/2000,01:45:35.44,12.20,-78.93,-991.62,87.50,-735.0,-183.75,1,94.301,
01/01/2000,01:45:35.45,12.32,-78.93,-991.74,280.0,-726.25,-385.0,1,94.312,
01/01/2000,01:45:35.46,12.32,-78.93,-991.62,87.50,-726.25,-288.75,1,94.322,
01/01/2000,01:45:35.47,12.44,-78.81,-991.62,96.25,-708.75,-463.75,1,94.333,
01/01/2000,01:45:35.48,12.32,-79.18,-991.62,227.50,-603.75,-385.0,1,94.343,
01/01/2000,01:45:35.50,12.44,-79.18,-991.74,105.0,-700.0,-358.75,1,94.353,
01/01/2000,01:45:35.50,12.57,-79.06,-991.86,105.0,-743.75,-341.25,1,94.364,
01/01/2000,01:45:35.52,12.44,-78.93,-991.86,78.75,-665.0,-271.25,1,94.374,
01/01/2000,01:45:35.53,12.44,-78.69,-991.74,131.25,-708.75,-393.75,1,94.384,
01/01/2000,01:45:35.54,12.32,-79.06,-991.62,175.0,-717.50,-201.25,1,94.394,
01/01/2000,01:45:35.55,12.32,-78.93,-991.62,131.25,-647.50,-288.75,1,94.404,
01/01/2000,01:45:35.56,12.44,-79.06,-991.86,166.25,-665.0,-393.75,1,94.414,
01/01/2000,01:45:35.57,12.44,-79.06,-991.86,332.50,-708.75,-288.75,1,94.424,
01/01/2000,01:45:35.58,12.32,-79.06,-991.98,280.0,-682.50,-332.50,1,94.265,
01/01/2000,01:45:35.59,12.32,-78.81,-991.98,245.0,-577.50,-367.50,1,94.275,
01/01/2000,01:45:35.60,12.32,-78.93,-991.86,122.50,-665.0,-236.25,1,94.286,
01/01/2000,01:45:35.61,12.44,-79.06,-991.62,148.75,-656.25,-437.50,1,94.296,
01/01/2000,01:45:35.62,12.44,-79.30,-991.74,297.50,-787.50,-297.50,1,94.306,
01/01/2000,01:45:35.63,12.32,-79.18,-991.62,105.0,-665.0,-437.50,1,94.316,
01/01/2000,01:45:35.65,12.32,-78.81,-991.62,148.75,-761.25,-367.50,1,94.326,
01/01/2000,01:45:35.66,12.44,-79.06,-991.62,210.0,-612.50,-411.25,1,94.336,
01/01/2000,01:45:35.67,12.20,-79.18,-991.62,78.75,-726.25,-236.25,1,94.346,
01/01/2000,01:45:35.68,12.20,-79.06,-991.62,166.25,-787.50,-297.50,1,94.190,
01/01/2000,01:45:35.69,12.57,-79.06,-991.62,157.50,-621.25,-385.0,1,94.366,
01/01/2000,01:45:35.70,12.44,-79.06,-991.49,183.75,-831.25,-332.50,1,94.211,
01/01/2000,01:45:35.71,12.57,-79.06,-991.49,105.0,-577.50,-262.50,1,94.221,
01/01/2000,01:45:35.72,12.44,-79.18,-991.74,306.25,-533.75,-315.0,1,94.231,
01/01/2000,01:45:35.73,12.44,-79.06,-991.86,8.75,-691.25,-350.0,1,94.241,
01/01/2000,01:45:35.74,12.32,-79.18,-991.74,288.75,-673.75,-350.0,1,94.251,
01/01/2000,01:45:35.75,12.32,-79.18,-991.62,78.75,-700.0,-402.50,1,94.261,
01/01/2000,01:45:35.76,12.44,-79.30,-991.62,175.0,-656.25,-332.50,1,94.271,
01/01/2000,01:45:35.77,12.44,-79.06,-991.49,315.0,-717.50,-402.50,1,94.281,
01/01/2000,01:45:35.78,12.44,-79.30,-991.49,148.75,-612.50,-367.50,1,94.291,
01/01/2000,01:45:35.79,12.20,-79.06,-991.62,175.0,-621.25,-358.75,1,94.301,
01/01/2000,01:45:35.81,12.20,-79.18,-991.62,341.25,-656.25,-472.50,1,94.310,
01/01/2000,01:45:35.82,12.20,-78.93,-991.62,166.25,-630.0,-393.75,1,94.320,
01/01/2000,01:45:35.83,12.20,-79.06,-991.62,253.75,-691.25,-411.25,1,94.330,
01/01/2000,01:45:35.84,12.32,-79.06,-991.62,192.50,-621.25,-341.25,1,94.340,
01/01/2000,01:45:35.85,12.32,-79.06,-991.49,96.25,-612.50,-402.50,1,94.349,
01/01/2000,01:45:35.86,12.20,-78.93,-991.49,0.0,-700.0,-341.25,1,94.359,
01/01/2000,01:45:35.87,12.20,-78.93,-991.49,70.0,-560.0,-385.0,1,94.369,
01/01/2000,01:45:35.88,12.32,-78.93,-991.62,262.50,-743.75,-297.50,1,94.378,
01/01/2000,01:45:35.89,12.44,-78.93,-991.74,105.0,-673.75,-306.25,1,94.388,
01/01/2000,01:45:35.90,12.57,-79.06,-991.62,201.25,-787.50,-385.0,1,94.397,
01/01/2000,01:45:35.91,12.44,-79.06,-991.37,192.50,-682.50,-385.0,1,94.407,
01/01/2000,01:45:35.92,12.57,-79.06,-991.25,122.50,-647.50,-498.75,1,94.416,
01/01/2000,01:45:35.93,12.44,-78.93,-991.37,78.75,-665.0,-358.75,1,94.266,
01/01/2000,01:45:35.94,12.44,-78.93,-991.49,201.25,-691.25,-332.50,1,94.276,
01/01/2000,01:45:35.95,12.44,-79.06,-991.49,297.50,-761.25,-350.0,1,94.286,
01/01/2000,01:45:35.96,12.32,-78.93,-991.62,70.0,-656.25,-253.75,1,94.295,
01/01/2000,01:45:35.97,12.44,-78.81,-991.62,245.0,-708.75,-446.25,1,94.305,
01/01/2000,01:45:35.98,12.44,-79.06,-991.62,218.75,-673.75,-420.0,1,94.314,
01/01/2000,01:45:35.99,12.44,-78.81,-991.74,26.25,-726.25,-323.75,1,94.324,
01/01/2000,01:45:36.01,12.32,-78.93,-991.74,288.75,-673.75,-358.75,1,94.333,
01/01/2000,01:45:36.02,12.32,-78.93,-991.62,192.50,-682.50,-315.0,1,94.343,
01/01/2000,01:45:36.03,12.57,-78.93,-991.62,61.25,-647.50,-385.0,1,94.352,
01/01/2000,01:45:36.04,12.44,-79.06,-991.62,113.75,-778.75,-315.0,1,94.362,
01/01/2000,01:45:36.05,12.44,-79.06,-991.62,236.25,-700.0,-280.0,1,94.371,
01/01/2000,01:45:36.06,12.44,-79.06,-991.37,192.50,-700.0,-393.75,1,94.380,
01/01/2000,01:45:36.07,12.57,-79.06,-991.37,-26.25,-638.75,-376.25,1,94.389,
01/01/2000,01:45:36.08,12.44,-78.81,-991.62,175.0,-665.0,-262.50,1,94.399,
01/01/2000,01:45:36.09,12.44,-78.93,-991.74,227.50,-787.50,-420.0,1,94.408,
01/01/2000,01:45:36.10,12.57,-78.81,-991.74,166.25,-752.50,-192.50,1,94.417,
01/01/2000,01:45:36.11,12.57,-78.93,-991.62,210.0,-647.50,-341.25,1,94.426,
01/01/2000,01:45:36.12,12.44,-79.06,-991.62,78.75,-647.50,-332.50,1,94.435,
01/01/2000,01:45:36.13,12.44,-78.69,-991.62,43.75,-682.50,-271.25,1,94.444,
01/01/2000,01:45:36.14,12.57,-78.81,-991.49,157.50,-630.0,-323.75,1,94.300,
01/01/2000,01:45:36.16,12.57,-78.69,-991.62,210.0,-743.75,-280.0,1,94.309,
01/01/2000,01:45:36.17,12.44,-78.81,-991.62,8.75,-770.0,-341.25,1,94.318,
01/01/2000,01:45:36.18,12.20,-79.18,-991.74,105.0,-638.75,-455.0,1,94.327,
01/01/2000,01:45:36.19,12.32,-79.06,-991.62,166.25,-551.25,-376.25,1,94.337,
01/01/2000,01:45:36.20,12.20,-78.93,-991.49,210.0,-700.0,-297.50,1,94.346,
01/01/2000,01:45:36.21,12.20,-78.93,-991.37,61.25,-673.75,-376.25,1,94.355,
01/01/2000,01:45:36.22,12.08,-78.93,-991.62,17.50,-665.0,-183.75,1,94.364,
01/01/2000,01:45:36.23,12.08,-78.81,-991.49,52.50,-840.0,-446.25,1,94.373,
01/01/2000,01:45:36.24,11.96,-79.30,-991.49,210.0,-752.50,-358.75,1,94.382,
01/01/2000,01:45:36.25,11.96,-79.06,-991.37,210.0,-595.0,-297.50,1,94.391,
01/01/2000,01:45:36.26,12.20,-78.93,-991.37,-140.0,-708.75,-446.25,1,94.400,
01/01/2000,01:45:36.27,12.32,-79.06,-991.62,157.50,-647.50,-253.75,1,94.409,
01/01/2000,01:45:36.28,12.20,-79.06,-991.86,26.25,-621.25,-288.75,1,94.418,
01/01/2000,01:45:36.29,12.20,-79.42,-991.62,210.0,-621.25,-376.25,1,94.277,
01/01/2000,01:45:36.30,12.20,-79.30,-991.62,0.0,-656.25,-455.0,1,94.286,
01/01/2000,01:45:36.31,12.20,-79.30,-991.49,70.0,-708.75,-411.25,1,94.295,
01/01/2000,01:45:36.32,12.20,-79.30,-991.49,131.25,-673.75,-350.0,1,94.304,
01/01/2000,01:45:36.33,12.08,-79.30,-991.49,166.25,-673.75,-350.0,1,94.313,
01/01/2000,01:45:36.34,12.08,-79.42,-991.49,175.0,-656.25,-262.50,1,94.322,
01/01/2000,01:45:36.36,11.96,-79.18,-991.49,201.25,-647.50,-332.50,1,94.331,
01/01/2000,01:45:36.37,12.20,-79.18,-991.37,323.75,-630.0,-341.25,1,94.340,
01/01/2000,01:45:36.38,12.20,-78.93,-991.62,35.0,-770.0,-315.0,1,94.349,
01/01/2000,01:45:36.39,12.32,-78.81,-991.62,26.25,-621.25,-280.0,1,94.357,
01/01/2000,01:45:36.40,12.20,-79.06,-991.62,157.50,-586.25,-315.0,1,94.366,
01/01/2000,01:45:36.41,12.20,-79.06,-991.62,0.0,-708.75,-463.75,1,94.375,
01/01/2000,01:45:36.42,12.32,-78.93,-991.37,192.50,-717.50,-332.50,1,94.384,
01/01/2000,01:45:36.43,12.32,-78.81,-991.25,262.50,-700.0,-288.75,1,94.393,
01/01/2000,01:45:36.44,12.44,-78.81,-991.25,183.75,-726.25,-280.0,1,94.401,
01/01/2000,01:45:36.45,12.44,-78.81,-991.25,201.25,-638.75,-411.25,1,94.410,
01/01/2000,01:45:36.46,12.32,-79.06,-991.25,78.75,-656.25,-306.25,1,94.419,
01/01/2000,01:45:36.47,12.44,-79.06,-991.13,157.50,-691.25,-490.0,1,94.427,
01/01/2000,01:45:36.48,12.32,-79.06,-991.25,131.25,-560.0,-315.0,1,94.436,
01/01/2000,01:45:36.49,12.44,-78.93,-991.37,131.25,-743.75,-385.0,1,94.444,
01/01/2000,01:45:36.50,12.57,-79.06,-991.37,201.25,-682.50,-402.50,1,94.308,
01/01/2000,01:45:36.52,12.69,-79.06,-991.62,131.25,-682.50,-315.0,1,94.316,
01/01/2000,01:45:36.52,12.32,-79.06,-991.49,227.50,-647.50,-437.50,1,94.325,
01/01/2000,01:45:36.54,12.20,-79.06,-991.49,70.0,-700.0,-306.25,1,94.334,
01/01/2000,01:45:36.55,12.44,-78.93,-991.62,271.25,-647.50,-358.75,1,94.343,
01/01/2000,01:45:36.56,12.32,-78.93,-991.62,253.75,-761.25,-393.75,1,94.351,
01/01/2000,01:45:36.57,12.44,-78.93,-991.62,245.0,-595.0,-323.75,1,94.360,
01/01/2000,01:45:36.58,12.44,-79.06,-991.49,236.25,-822.50,-376.25,1,94.368,
01/01/2000,01:45:36.59,12.44,-78.81,-991.74,-35.0,-735.0,-341.25,1,94.377,
01/01/2000,01:45:36.60,12.44,-79.06,-991.62,341.25,-647.50,-393.75,1,94.385,
01/01/2000,01:45:36.61,12.44,-78.93,-991.74,140.0,-743.75,-376.25,1,94.394,
01/01/2000,01:45:36.62,12.32,-79.06,-991.62,52.50,-682.50,-428.75,1,94.402,
01/01/2000,01:45:36.63,12.20,-78.93,-991.62,350.0,-595.0,-271.25,1,94.411,
01/01/2000,01:45:36.64,12.08,-78.81,-991.62,131.25,-656.25,-315.0,1,94.277,
01/01/2000,01:45:36.65,12.08,-78.81,-991.62,218.75,-700.0,-393.75,1,94.286,
01/01/2000,01:45:36.67,12.20,-78.81,-991.74,131.25,-665.0,-315.0,1,94.294,
01/01/2000,01:45:36.68,12.20,-78.81,-991.74,306.25,-691.25,-332.50,1,94.303,
01/01/2000,01:45:36.69,12.20,-78.81,-991.74,166.25,-752.50,-393.75,1,94.311,
01/01/2000,01:45:36.70,12.32,-78.57,-991.62,201.25,-691.25,-358.75,1,94.320,
01/01/2000,01:45:36.71,12.20,-78.69,-991.62,140.0,-743.75,-315.0,1,94.328,
01/01/2000,01:45:36.72,12.32,-78.93,-991.74,245.0,-656.25,-350.0,1,94.337,
01/01/2000,01:45:36.73,12.20,-78.81,-991.74,210.0,-665.0,-306.25,1,94.345,
01/01/2000,01:45:36.74,12.32,-78.81,-991.62,131.25,-656.25,-315.0,1,94.354,
01/01/2000,01:45:36.75,12.20,-78.81,-991.62,131.25,-647.50,-323.75,1,94.362,
01/01/2000,01:45:36.76,12.20,-78.81,-991.62,236.25,-691.25,-218.75,1,94.370,
01/01/2000,01:45:36.77,12.08,-78.81,-991.74,148.75,-665.0,-411.25,1,94.379,
01/01/2000,01:45:36.78,12.08,-78.93,-991.74,61.25,-656.25,-306.25,1,94.387,
01/01/2000,01:45:36.79,12.20,-78.93,-991.62,35.0,-813.75,-393.75,1,94.395,
01/01/2000,01:45:36.80,12.20,-78.93,-991.62,131.25,-673.75,-385.0,1,94.404,
01/01/2000,01:45:36.81,12.20,-78.81,-991.74,122.50,-568.75,-358.75,1,94.412,
01/01/2000,01:45:36.82,12.20,-78.69,-991.74,271.25,-647.50,-306.25,1,94.420,
01/01/2000,01:45:36.83,12.20,-78.81,-991.74,78.75,-673.75,-455.0,1,94.428,
01/01/2000,01:45:36.84,12.20,-78.93,-991.74,113.75,-708.75,-341.25,1,94.436,
01/01/2000,01:45:36.85,12.20,-78.81,-991.62,140.0,-665.0,-367.50,1,94.307,
01/01/2000,01:45:36.86,12.32,-78.69,-991.62,183.75,-726.25,-315.0,1,94.315,
01/01/2000,01:45:36.87,12.44,-78.69,-991.74,192.50,-682.50,-358.75,1,94.323,
01/01/2000,01:45:36.88,12.20,-78.81,-991.62,297.50,-726.25,-332.50,1,94.331,
01/01/2000,01:45:36.89,12.20,-78.69,-991.49,35.0,-691.25,-350.0,1,94.340,
01/01/2000,01:45:36.90,12.20,-78.93,-991.37,183.75,-726.25,-393.75,1,94.348,
01/01/2000,01:45:36.91,12.44,-78.93,-991.37,148.75,-665.0,-358.75,1,94.356,
01/01/2000,01:45:36.93,12.44,-78.81,-991.49,8.75,-726.25,-350.0,1,94.364,
01/01/2000,01:45:36.94,12.44,-78.81,-991.62,43.75,-717.50,-262.50,1,94.372,
01/01/2000,01:45:36.95,12.44,-78.81,-991.62,341.25,-682.50,-341.25,1,94.380,
01/01/2000,01:45:36.96,12.44,-78.81,-991.62,70.0,-743.75,-288.75,1,94.388,
01/01/2000,01:45:36.97,12.44,-79.06,-991.49,280.0,-682.50,-385.0,1,94.397,
01/01/2000,01:45:36.98,12.57,-78.93,-991.37,96.25,-691.25,-428.75,1,94.405,
01/01/2000,01:45:36.99,12.69,-78.69,-991.62,105.0,-726.25,-367.50,1,94.413,
01/01/2000,01:45:37.00,12.69,-78.57,-991.62,210.0,-708.75,-271.25,1,94.421,
01/01/2000,01:45:37.01,12.44,-78.57,-991.37,105.0,-595.0,-227.50,1,94.429,
01/01/2000,01:45:37.02,12.57,-78.69,-991.37,43.75,-735.0,-358.75,1,94.437,
01/01/2000,01:45:37.03,12.32,-78.81,-991.25,455.0,-673.75,-332.50,1,94.444,
01/01/2000,01:45:37.04,12.44,-78.69,-991.37,341.25,-726.25,-306.25,1,94.452,
01/01/2000,01:45:37.05,12.44,-78.57,-991.37,70.0,-656.25,-350.0,1,94.460,
01/01/2000,01:45:37.06,12.44,-78.45,-991.37,227.50,-822.50,-332.50,1,94.334,
01/01/2000,01:45:37.07,12.20,-78.57,-991.25,210.0,-691.25,-175.0,1,94.342,
01/01/2000,01:45:37.08,12.08,-78.69,-991.13,218.75,-673.75,-420.0,1,94.350,
01/01/2000,01:45:37.09,11.96,-78.81,-991.13,236.25,-717.50,-262.50,1,94.358,
01/01/2000,01:45:37.10,12.20,-78.81,-991.25,262.50,-726.25,-437.50,1,94.366,
01/01/2000,01:45:37.11,12.20,-78.57,-991.01,61.25,-726.25,-358.75,1,94.374,
01/01/2000,01:45:37.12,12.20,-78.93,-990.88,201.25,-691.25,-367.50,1,94.382,
01/01/2000,01:45:37.14,12.08,-79.06,-991.01,236.25,-568.75,-341.25,1,94.390,
01/01/2000,01:45:37.15,12.08,-79.06,-991.13,-35.0,-700.0,-385.0,1,94.398,
01/01/2000,01:45:37.16,12.08,-79.06,-991.25,192.50,-682.50,-428.75,1,94.406,
01/01/2000,01:45:37.17,12.20,-79.06,-991.37,315.0,-673.75,-393.75,1,94.282,
01/01/2000,01:45:37.18,12.44,-78.81,-991.49,17.50,-665.0,-315.0,1,94.290,
01/01/2000,01:45:37.19,12.44,-78.81,-991.62,113.75,-700.0,-271.25,1,94.298,
01/01/2000,01:45:37.21,12.44,-78.81,-991.62,35.0,-700.0,-210.0,1,94.306,
01/01/2000,01:45:37.21,12.44,-78.69,-991.37,288.75,-603.75,-376.25,1,94.313,
01/01/2000,01:45:37.23,12.32,-78.81,-991.37,350.0,-630.0,-280.0,1,94.321,
01/01/2000,01:45:37.24,12.57,-78.69,-991.62,201.25,-726.25,-306.25,1,94.329,
01/01/2000,01:45:37.25,12.44,-78.81,-991.74,157.50,-630.0,-367.50,1,94.337,
01/01/2000,01:45:37.26,12.44,-78.81,-991.62,175.0,-708.75,-288.75,1,94.345,
01/01/2000,01:45:37.27,12.20,-78.81,-991.62,122.50,-586.25,-271.25,1,94.353,
01/01/2000,01:45:37.28,12.32,-78.69,-991.37,245.0,-708.75,0.0,1,94.360,
01/01/2000,01:45:37.29,12.20,-78.20,-991.37,341.25,-717.50,586.25,1,94.368,
01/01/2000,01:45:37.30,12.08,-77.84,-991.25,-52.50,-612.50,1417.50,1,94.376,
01/01/2000,01:45:37.31,12.20,-77.23,-991.25,148.75,-507.50,2493.75,1,94.384,
01/01/2000,01:45:37.32,12.08,-77.10,-991.37,192.50,-367.50,6160.0,1,94.391,
01/01/2000,01:45:37.33,11.96,-76.86,-991.37,105.0,-288.75,8373.75,1,94.399,
01/01/2000,01:45:37.34,12.20,-77.10,-991.25,332.50,-35.0,9931.25,1,94.407,
01/01/2000,01:45:37.35,12.20,-77.47,-991.13,245.0,-26.25,10841.25,1,94.414,
01/01/2000,01:45:37.36,12.32,-77.59,-991.25,-43.75,-148.75,10430.0,1,94.422,
01/01/2000,01:45:37.37,12.44,-77.84,-991.25,323.75,-262.50,9992.50,1,94.429,
01/01/2000,01:45:37.38,12.44,-77.35,-991.13,113.75,-166.25,10018.75,1,94.437,
01/01/2000,01:45:37.39,12.08,-76.25,-991.13,70.0,-87.50,11121.25,1,94.444,
01/01/2000,01:45:37.40,11.96,-75.27,-991.37,35.0,-43.75,13168.75,1,94.452,
01/01/2000,01:45:37.41,11.83,-74.54,-991.62,-87.50,271.25,17071.25,1,94.332,
01/01/2000,01:45:37.42,11.96,-75.88,-991.62,358.75,411.25,19810.0,1,94.340,
01/01/2000,01:45:37.43,11.96,-76.74,-991.62,43.75,498.75,21848.75,1,94.347,
01/01/2000,01:45:37.44,12.20,-78.45,-991.13,218.75,463.75,23126.25,1,94.355,
01/01/2000,01:45:37.45,12.69,-79.06,-990.88,638.75,586.25,23458.75,1,94.362,
01/01/2000,01:45:37.46,12.44,-76.98,-991.25,-577.50,463.75,23651.25,1,94.370,
01/01/2000,01:45:37.47,12.32,-77.10,-991.25,647.50,551.25,23808.75,1,94.378,
01/01/2000,01:45:37.49,11.71,-76.74,-991.98,201.25,481.25,21682.50,1,94.385,
01/01/2000,01:45:37.50,11.83,-77.59,-991.98,43.75,236.25,16712.50,1,94.393,
01/01/2000,01:45:37.51,11.96,-78.93,-991.37,218.75,26.25,13746.25,1,94.400,
01/01/2000,01:45:37.52,12.44,-79.18,-991.01,-35.0,-192.50,12005.0,1,94.407,
01/01/2000,01:45:37.53,12.69,-79.30,-990.88,280.0,43.75,12967.50,1,94.415,
01/01/2000,01:45:37.54,12.57,-78.69,-991.37,262.50,140.0,16546.25,1,94.422,
01/01/2000,01:45:37.55,12.32,-77.47,-992.10,245.0,533.75,24150.0,1,94.305,
01/01/2000,01:45:37.56,11.96,-77.35,-991.98,175.0,1041.25,30581.25,1,94.312,
01/01/2000,01:45:37.57,12.08,-77.84,-991.74,183.75,945.0,32331.25,1,94.320,
01/01/2000,01:45:37.58,12.44,-78.69,-991.37,0.0,980.0,31036.25,1,94.327,
01/01/2000,01:45:37.59,12.44,-79.54,-991.13,166.25,735.0,27746.25,1,94.335,
01/01/2000,01:45:37.60,12.69,-80.52,-991.13,245.0,498.75,22356.25,1,94.342,
01/01/2000,01:45:37.61,12.44,-80.89,-991.37,87.50,341.25,18865.0,1,94.350,
01/01/2000,01:45:37.63,12.20,-80.52,-991.37,105.0,113.75,14288.75,1,94.357,
01/01/2000,01:45:37.64,11.96,-79.54,-991.37,218.75,-17.50,12197.50,1,94.364,
01/01/2000,01:45:37.65,11.96,-79.18,-991.25,166.25,-131.25,11016.25,1,94.372,
01/01/2000,01:45:37.66,11.96,-79.42,-991.13,148.75,-105.0,11278.75,1,94.379,
01/01/2000,01:45:37.67,12.20,-79.91,-991.13,306.25,26.25,12258.75,1,94.386,
01/01/2000,01:45:37.68,12.32,-80.64,-991.13,96.25,78.75,12836.25,1,94.394,
01/01/2000,01:45:37.69,12.20,-80.89,-991.01,-87.50,17.50,12775.0,1,94.401,
01/01/2000,01:45:37.70,12.44,-81.01,-991.13,411.25,-96.25,10876.25,1,94.286,
01/01/2000,01:45:37.71,12.20,-80.15,-991.13,271.25,-262.50,8137.50,1,94.293,
01/01/2000,01:45:37.72,12.20,-80.03,-991.25,166.25,-376.25,5442.50,1,94.301,
01/01/2000,01:45:37.73,12.08,-80.28,-991.37,140.0,-533.75,3613.75,1,94.308,
01/01/2000,01:45:37.74,11.96,-80.52,-991.37,70.0,-568.75,2808.75,1,94.315,
01/01/2000,01:45:37.75,12.08,-81.01,-991.37,245.0,-542.50,2940.0,1,94.323,
01/01/2000,01:45:37.76,12.44,-80.76,-990.88,140.0,-525.0,3570.0,1,94.330,
01/01/2000,01:45:37.77,12.44,-80.52,-991.01,218.75,-437.50,4243.75,1,94.337,
01/01/2000,01:45:37.78,12.44,-80.03,-991.25,306.25,-411.25,4908.75,1,94.344,
01/01/2000,01:45:37.79,12.20,-79.79,-991.37,175.0,-437.50,4768.75,1,94.352,
01/01/2000,01:45:37.80,11.96,-79.79,-991.49,43.75,-393.75,4287.50,1,94.359,
01/01/2000,01:45:37.81,12.20,-80.28,-991.37,210.0,-472.50,3211.25,1,94.366,
01/01/2000,01:45:37.82,12.20,-80.52,-991.01,227.50,-551.25,1828.75,1,94.373,
01/01/2000,01:45:37.84,12.44,-80.52,-991.01,210.0,-682.50,218.75,1,94.381,
01/01/2000,01:45:37.85,12.57,-80.15,-991.01,140.0,-735.0,-183.75,1,94.388,
01/01/2000,01:45:37.86,12.57,-79.79,-991.13,245.0,-752.50,-253.75,1,94.395,
01/01/2000,01:45:37.87,12.32,-79.42,-991.25,131.25,-638.75,105.0,1,94.402,
01/01/2000,01:45:37.88,12.20,-79.18,-991.13,175.0,-717.50,-52.50,1,94.409,
01/01/2000,01:45:37.89,12.08,-79.30,-990.88,245.0,-638.75,-122.50,1,94.416,
01/01/2000,01:45:37.90,12.32,-79.54,-990.88,113.75,-630.0,-297.50,1,94.423,
01/01/2000,01:45:37.91,12.57,-79.54,-990.88,192.50,-743.75,-358.75,1,94.430,
01/01/2000,01:45:37.92,12.44,-79.54,-991.01,175.0,-568.75,-236.25,1,94.437,
01/01/2000,01:45:37.93,12.32,-79.18,-991.13,148.75,-761.25,-201.25,1,94.444,
01/01/2000,01:45:37.94,12.08,-78.93,-991.13,210.0,-700.0,-271.25,1,94.451,
01/01/2000,01:45:37.95,12.08,-78.93,-991.13,332.50,-603.75,-78.75,1,94.458,
01/01/2000,01:45:37.96,12.20,-79.06,-991.13,201.25,-665.0,-227.50,1,94.465,
01/01/2000,01:45:37.97,12.20,-79.30,-991.13,140.0,-708.75,-288.75,1,94.354,
01/01/2000,01:45:37.98,12.20,-79.30,-991.13,253.75,-691.25,-393.75,1,94.361,
01/01/2000,01:45:37.99,12.20,-79.06,-991.13,8.75,-673.75,-280.0,1,94.368,
01/01/2000,01:45:38.00,12.20,-78.93,-991.13,140.0,-717.50,-437.50,1,94.375,
01/01/2000,01:45:38.01,12.08,-78.81,-991.25,297.50,-665.0,-341.25,1,94.382,
01/01/2000,01:45:38.02,12.08,-79.06,-991.37,183.75,-630.0,-262.50,1,94.389,
01/01/2000,01:45:38.03,12.20,-79.30,-991.13,245.0,-665.0,-411.25,1,94.396,
01/01/2000,01:45:38.05,12.32,-79.30,-991.01,236.25,-656.25,-367.50,1,94.403,
01/01/2000,01:45:38.06,12.32,-79.18,-991.01,96.25,-805.0,-323.75,1,94.410,
01/01/2000,01:45:38.07,12.20,-79.06,-991.01,218.75,-770.0,-306.25,1,94.417,
01/01/2000,01:45:38.08,12.20,-78.93,-991.25,358.75,-612.50,-306.25,1,94.424,
01/01/2000,01:45:38.09,12.08,-78.81,-991.37,175.0,-708.75,-227.50,1,94.431,
01/01/2000,01:45:38.10,12.08,-78.93,-991.13,140.0,-787.50,-323.75,1,94.438,
01/01/2000,01:45:38.11,12.20,-79.06,-991.13,-17.50,-752.50,-245.0,1,94.444,
01/01/2000,01:45:38.12,12.20,-79.06,-991.01,218.75,-665.0,-455.0,1,94.451,
01/01/2000,01:45:38.13,12.20,-79.06,-991.13,376.25,-621.25,-341.25,1,94.458,
01/01/2000,01:45:38.14,11.96,-79.06,-991.13,315.0,-682.50,-341.25,1,94.465,
01/01/2000,01:45:38.15,11.83,-78.93,-991.25,157.50,-638.75,-402.50,1,94.472,
01/01/2000,01:45:38.16,11.83,-79.06,-991.25,227.50,-717.50,-262.50,1,94.363,
01/01/2000,01:45:38.17,11.96,-79.18,-991.13,175.0,-612.50,-376.25,1,94.485,
01/01/2000,01:45:38.19,12.08,-79.18,-991.25,236.25,-752.50,-350.0,1,94.377,
01/01/2000,01:45:38.20,11.96,-79.06,-991.25,140.0,-665.0,-236.25,1,94.383,
01/01/2000,01:45:38.21,11.96,-79.06,-991.13,113.75,-638.75,-367.50,1,94.390,
01/01/2000,01:45:38.22,11.83,-79.06,-991.25,122.50,-708.75,-411.25,1,94.397,
01/01/2000,01:45:38.23,11.83,-79.06,-991.25,183.75,-700.0,-455.0,1,94.404,
01/01/2000,01:45:38.24,11.83,-78.93,-991.01,105.0,-796.25,-315.0,1,94.411,
01/01/2000,01:45:38.25,11.96,-79.06,-990.88,332.50,-682.50,-323.75,1,94.417,
01/01/2000,01:45:38.26,11.96,-79.18,-991.13,87.50,-647.50,-350.0,1,94.310,
01/01/2000,01:45:38.27,12.20,-79.18,-991.25,218.75,-726.25,-393.75,1,94.317,
01/01/2000,01:45:38.28,11.96,-79.06,-991.37,166.25,-743.75,-393.75,1,94.324,
01/01/2000,01:45:38.29,11.96,-79.06,-991.13,52.50,-735.0,-323.75,1,94.331,
01/01/2000,01:45:38.30,11.96,-79.06,-991.37,385.0,-717.50,-323.75,1,94.337,
01/01/2000,01:45:38.31,12.08,-78.93,-991.37,105.0,-682.50,-393.75,1,94.344,
01/01/2000,01:45:38.32,11.96,-79.06,-991.37,227.50,-726.25,-376.25,1,94.351,
01/01/2000,01:45:38.33,11.96,-79.06,-991.25,218.75,-638.75,-411.25,1,94.358,
01/01/2000,01:45:38.34,11.96,-78.93,-991.37,35.0,-638.75,-385.0,1,94.365,
01/01/2000,01:45:38.35,11.83,-78.81,-991.37,236.25,-708.75,-376.25,1,94.371,
01/01/2000,01:45:38.36,12.20,-78.81,-991.37,253.75,-735.0,-393.75,1,94.378,
01/01/2000,01:45:38.37,12.20,-78.81,-991.62,166.25,-638.75,-288.75,1,94.385,
01/01/2000,01:45:38.38,12.20,-78.93,-991.62,61.25,-656.25,-358.75,1,94.391,
01/01/2000,01:45:38.40,12.20,-79.06,-991.37,148.75,-700.0,-315.0,1,94.398,
01/01/2000,01:45:38.41,12.20,-79.06,-991.37,105.0,-708.75,-402.50,1,94.405,
01/01/2000,01:45:38.42,12.08,-79.06,-991.37,140.0,-726.25,-315.0,1,94.411,
01/01/2000,01:45:38.43,11.83,-79.06,-991.49,122.50,-805.0,-428.75,1,94.418,
01/01/2000,01:45:38.44,12.32,-78.93,-991.25,113.75,-673.75,-288.75,1,94.425,
01/01/2000,01:45:38.45,12.32,-79.06,-991.37,140.0,-612.50,-218.75,1,94.431,
01/01/2000,01:45:38.46,11.96,-79.30,-991.62,253.75,-717.50,-341.25,1,94.438,
01/01/2000,01:45:38.47,11.71,-79.30,-991.62,218.75,-691.25,-393.75,1,94.333,
01/01/2000,01:45:38.48,11.96,-79.06,-991.37,131.25,-682.50,-411.25,1,94.340,
01/01/2000,01:45:38.49,12.08,-79.06,-991.25,210.0,-717.50,-323.75,1,94.346,
01/01/2000,01:45:38.50,11.96,-79.06,-991.25,157.50,-717.50,-280.0,1,94.353,
01/01/2000,01:45:38.51,12.20,-79.18,-991.25,-43.75,-656.25,-481.25,1,94.360,
01/01/2000,01:45:38.52,12.20,-79.30,-991.25,166.25,-761.25,-385.0,1,94.366,
01/01/2000,01:45:38.53,12.20,-79.30,-991.01,201.25,-708.75,-472.50,1,94.373,
01/01/2000,01:45:38.55,12.20,-79.06,-991.01,26.25,-665.0,-315.0,1,94.379,
01/01/2000,01:45:38.56,12.20,-79.06,-991.01,315.0,-726.25,-402.50,1,94.386,
01/01/2000,01:45:38.57,12.20,-78.93,-991.01,70.0,-656.25,-411.25,1,94.393,
01/01/2000,01:45:38.58,12.20,-78.93,-990.88,105.0,-726.25,-393.75,1,94.399,
01/01/2000,01:45:38.59,12.08,-79.18,-990.88,236.25,-691.25,-271.25,1,94.406,
01/01/2000,01:45:38.60,12.08,-79.06,-990.88,26.25,-665.0,-306.25,1,94.412,
01/01/2000,01:45:38.61,12.20,-79.18,-990.88,192.50,-726.25,-411.25,1,94.419,
01/01/2000,01:45:38.62,12.20,-78.93,-991.25,245.0,-665.0,-376.25,1,94.425,
01/01/2000,01:45:38.63,12.20,-79.06,-991.25,96.25,-647.50,-192.50,1,94.432,
01/01/2000,01:45:38.64,12.08,-79.06,-991.13,201.25,-857.50,-437.50,1,94.438,
01/01/2000,01:45:38.65,11.96,-79.06,-991.13,236.25,-700.0,-472.50,1,94.444,
01/01/2000,01:45:38.66,12.08,-78.93,-991.01,358.75,-708.75,-253.75,1,94.451,
01/01/2000,01:45:38.67,11.96,-78.81,-991.13,192.50,-673.75,-358.75,1,94.457,
01/01/2000,01:45:38.68,12.08,-79.06,-991.01,323.75,-743.75,-218.75,1,94.355,
01/01/2000,01:45:38.69,12.08,-79.06,-990.88,166.25,-647.50,-358.75,1,94.361,
01/01/2000,01:45:38.71,12.08,-79.06,-990.88,157.50,-586.25,-420.0,1,94.368,
01/01/2000,01:45:38.72,12.08,-79.06,-991.01,306.25,-726.25,-358.75,1,94.374,
01/01/2000,01:45:38.73,12.20,-78.93,-991.25,87.50,-805.0,-341.25,1,94.381,
01/01/2000,01:45:38.74,12.20,-79.06,-991.25,175.0,-726.25,-332.50,1,94.387,
01/01/2000,01:45:38.75,12.08,-78.81,-991.25,61.25,-726.25,-323.75,1,94.394,
01/01/2000,01:45:38.76,11.96,-78.81,-991.37,96.25,-673.75,-306.25,1,94.400,
01/01/2000,01:45:38.77,12.08,-78.93,-991.37,43.75,-638.75,-306.25,1,94.406,
01/01/2000,01:45:38.78,12.20,-78.81,-991.62,122.50,-656.25,-402.50,1,94.413,
01/01/2000,01:45:38.79,12.20,-79.06,-991.62,192.50,-691.25,-297.50,1,94.419,
01/01/2000,01:45:38.80,12.20,-79.06,-991.62,131.25,-603.75,-402.50,1,94.425,
01/01/2000,01:45:38.81,12.20,-79.30,-991.49,43.75,-612.50,-323.75,1,94.432,
01/01/2000,01:45:38.82,12.08,-79.06,-991.49,140.0,-805.0,-323.75,1,94.331,
01/01/2000,01:45:38.83,11.71,-79.18,-991.49,183.75,-708.75,-341.25,1,94.337,
01/01/2000,01:45:38.84,11.83,-79.06,-991.49,236.25,-665.0,-411.25,1,94.344,
01/01/2000,01:45:38.85,11.71,-79.06,-991.62,96.25,-691.25,-437.50,1,94.350,
01/01/2000,01:45:38.86,11.71,-79.06,-991.37,201.25,-638.75,-262.50,1,94.357,
01/01/2000,01:45:38.87,11.71,-79.06,-991.37,201.25,-595.0,-280.0,1,94.363,
01/01/2000,01:45:38.88,11.83,-79.06,-991.13,-43.75,-647.50,-385.0,1,94.369,
01/01/2000,01:45:38.90,11.83,-79.06,-991.13,131.25,-770.0,-402.50,1,94.376,
01/01/2000,01:45:38.91,11.96,-79.06,-991.25,131.25,-726.25,-315.0,1,94.382,
01/01/2000,01:45:38.92,12.20,-79.06,-991.25,78.75,-743.75,-490.0,1,94.388,
01/01/2000,01:45:38.93,12.20,-79.06,-991.37,253.75,-691.25,-332.50,1,94.395,
01/01/2000,01:45:38.94,12.20,-79.18,-991.25,358.75,-752.50,-323.75,1,94.401,
01/01/2000,01:45:38.95,12.32,-79.30,-991.25,210.0,-726.25,-393.75,1,94.407,
01/01/2000,01:45:38.96,12.32,-79.06,-991.25,175.0,-743.75,-490.0,1,94.413,
01/01/2000,01:45:38.97,12.44,-79.18,-991.13,245.0,-831.25,-323.75,1,94.420,
01/01/2000,01:45:38.98,12.20,-79.06,-991.13,8.75,-743.75,-280.0,1,94.426,
01/01/2000,01:45:38.99,12.20,-79.30,-991.13,332.50,-551.25,-376.25,1,94.432,
01/01/2000,01:45:39.00,12.20,-79.30,-991.01,245.0,-743.75,-288.75,1,94.438,
01/01/2000,01:45:39.01,12.20,-79.18,-991.13,43.75,-796.25,-358.75,1,94.444,
01/01/2000,01:45:39.02,12.32,-79.06,-991.13,175.0,-630.0,-358.75,1,94.451,
01/01/2000,01:45:39.03,12.32,-79.30,-991.13,262.50,-691.25,-402.50,1,94.352,
01/01/2000,01:45:39.04,12.20,-79.18,-991.13,35.0,-700.0,-350.0,1,94.358,
01/01/2000,01:45:39.05,12.08,-79.18,-991.01,-26.25,-726.25,-358.75,1,94.365,
01/01/2000,01:45:39.06,12.20,-79.18,-990.88,253.75,-778.75,-385.0,1,94.371,
01/01/2000,01:45:39.07,12.20,-79.06,-991.01,96.25,-638.75,-280.0,1,94.377,
01/01/2000,01:45:39.08,12.32,-79.18,-991.01,350.0,-647.50,-437.50,1,94.383,
01/01/2000,01:45:39.09,12.32,-79.18,-990.88,52.50,-630.0,-402.50,1,94.389,
01/01/2000,01:45:39.11,12.20,-79.18,-990.76,70.0,-717.50,-385.0,1,94.396,
01/01/2000,01:45:39.12,12.08,-79.18,-991.01,122.50,-638.75,-341.25,1,94.402,
01/01/2000,01:45:39.13,12.20,-78.93,-991.13,78.75,-770.0,-411.25,1,94.408,
01/01/2000,01:45:39.14,12.20,-78.93,-991.13,140.0,-717.50,-323.75,1,94.414,
01/01/2000,01:45:39.15,12.20,-78.93,-991.01,288.75,-700.0,-288.75,1,94.420,
01/01/2000,01:45:39.16,12.20,-78.93,-990.88,166.25,-621.25,-525.0,1,94.426,
01/01/2000,01:45:39.17,12.20,-79.06,-990.88,192.50,-708.75,-358.75,1,94.432,
01/01/2000,01:45:39.18,12.08,-78.81,-991.01,218.75,-796.25,-446.25,1,94.336,
01/01/2000,01:45:39.19,12.08,-79.06,-990.88,131.25,-586.25,-350.0,1,94.444,
01/01/2000,01:45:39.20,12.20,-78.81,-990.88,78.75,-726.25,-280.0,1,94.348,
01/01/2000,01:45:39.22,12.08,-79.06,-990.88,201.25,-735.0,-367.50,1,94.354,
01/01/2000,01:45:39.23,12.20,-79.18,-990.88,26.25,-743.75,-341.25,1,94.360,
01/01/2000,01:45:39.24,12.20,-79.06,-990.88,96.25,-735.0,-358.75,1,94.366,
01/01/2000,01:45:39.25,12.08,-78.93,-991.13,17.50,-717.50,-367.50,1,94.372,
01/01/2000,01:45:39.26,12.08,-79.06,-991.13,323.75,-717.50,-332.50,1,94.378,
01/01/2000,01:45:39.27,12.08,-79.06,-991.13,131.25,-656.25,-358.75,1,94.384,
01/01/2000,01:45:39.28,11.96,-79.30,-991.37,166.25,-647.50,-306.25,1,94.391,
01/01/2000,01:45:39.29,11.96,-79.06,-991.37,87.50,-656.25,-253.75,1,94.397,
01/01/2000,01:45:39.30,12.20,-79.06,-991.49,306.25,-787.50,-481.25,1,94.403,
01/01/2000,01:45:39.31,12.20,-78.93,-991.37,183.75,-621.25,-376.25,1,94.409,
01/01/2000,01:45:39.32,12.20,-78.93,-991.37,262.50,-726.25,-411.25,1,94.313,
01/01/2000,01:45:39.33,12.20,-79.06,-991.37,192.50,-717.50,-280.0,1,94.319,
01/01/2000,01:45:39.34,12.20,-79.06,-991.25,140.0,-735.0,-367.50,1,94.325,
01/01/2000,01:45:39.35,12.20,-78.81,-991.37,183.75,-638.75,-306.25,1,94.332,
01/01/2000,01:45:39.36,12.20,-78.93,-991.37,201.25,-647.50,-323.75,1,94.338,
01/01/2000,01:45:39.37,12.20,-78.81,-991.25,-8.75,-673.75,-236.25,1,94.344,
01/01/2000,01:45:39.39,12.20,-78.81,-991.25,78.75,-656.25,-341.25,1,94.350,
01/01/2000,01:45:39.40,12.20,-78.93,-991.25,148.75,-586.25,-350.0,1,94.356,
01/01/2000,01:45:39.41,12.20,-78.81,-991.25,297.50,-770.0,-350.0,1,94.362,
01/01/2000,01:45:39.42,12.08,-78.93,-991.37,122.50,-630.0,-323.75,1,94.368,
01/01/2000,01:45:39.43,12.20,-78.93,-991.49,192.50,-761.25,-332.50,1,94.374,
01/01/2000,01:45:39.44,12.20,-78.81,-991.49,148.75,-630.0,-332.50,1,94.380,
01/01/2000,01:45:39.45,12.20,-78.93,-991.49,253.75,-743.75,-341.25,1,94.386,
01/01/2000,01:45:39.46,12.32,-79.06,-991.25,140.0,-743.75,-297.50,1,94.392,
01/01/2000,01:45:39.47,12.44,-79.06,-991.37,140.0,-796.25,-358.75,1,94.397,
01/01/2000,01:45:39.48,12.44,-79.06,-991.37,288.75,-743.75,-385.0,1,94.403,
01/01/2000,01:45:39.49,12.57,-78.93,-991.25,148.75,-568.75,-367.50,1,94.409,
01/01/2000,01:45:39.50,12.32,-78.93,-991.37,218.75,-901.25,-332.50,1,94.415,
01/01/2000,01:45:39.51,12.20,-79.06,-991.37,122.50,-673.75,-297.50,1,94.421,
01/01/2000,01:45:39.52,12.08,-78.93,-991.37,140.0,-682.50,-402.50,1,94.328,
01/01/2000,01:45:39.54,12.20,-79.06,-991.37,-17.50,-586.25,-367.50,1,94.334,
01/01/2000,01:45:39.55,12.20,-79.06,-991.25,140.0,-673.75,-411.25,1,94.340,
01/01/2000,01:45:39.56,12.32,-78.93,-991.25,166.25,-717.50,-245.0,1,94.346,
01/01/2000,01:45:39.57,12.32,-79.06,-991.25,271.25,-770.0,-306.25,1,94.351,
01/01/2000,01:45:39.58,12.32,-78.69,-991.37,166.25,-726.25,-271.25,1,94.357,
01/01/2000,01:45:39.59,12.08,-78.93,-991.25,315.0,-743.75,-306.25,1,94.363,
01/01/2000,01:45:39.60,11.96,-78.81,-991.37,288.75,-630.0,-367.50,1,94.369,
01/01/2000,01:45:39.61,12.08,-78.81,-991.25,-43.75,-638.75,-288.75,1,94.375,
01/01/2000,01:45:39.62,12.08,-78.93,-991.25,367.50,-700.0,-420.0,1,94.381,
01/01/2000,01:45:39.63,12.20,-78.81,-991.37,87.50,-691.25,-350.0,1,94.387,
01/01/2000,01:45:39.64,12.08,-78.81,-991.37,-43.75,-726.25,-367.50,1,94.393,
01/01/2000,01:45:39.65,12.08,-78.93,-991.37,183.75,-770.0,-402.50,1,94.398,
01/01/2000,01:45:39.66,12.08,-78.93,-991.25,201.25,-752.50,-385.0,1,94.404,
01/01/2000,01:45:39.67,12.20,-78.93,-991.37,166.25,-787.50,-323.75,1,94.312,
01/01/2000,01:45:39.68,12.20,-79.06,-991.37,87.50,-665.0,-218.75,1,94.318,
01/01/2000,01:45:39.69,12.44,-79.06,-991.25,113.75,-805.0,-350.0,1,94.324,
01/01/2000,01:45:39.70,12.44,-79.18,-991.13,87.50,-682.50,-455.0,1,94.330,
01/01/2000,01:45:39.71,12.32,-79.06,-991.01,96.25,-717.50,-428.75,1,94.336,
01/01/2000,01:45:39.73,12.20,-79.18,-991.13,271.25,-822.50,-472.50,1,94.342,
01/01/2000,01:45:39.74,12.08,-79.06,-991.13,157.50,-700.0,-288.75,1,94.347,
01/01/2000,01:45:39.75,12.32,-78.93,-991.25,210.0,-621.25,-385.0,1,94.353,
01/01/2000,01:45:39.76,12.20,-79.06,-991.25,245.0,-656.25,-376.25,1,94.359,
01/01/2000,01:45:39.77,12.20,-79.18,-991.25,96.25,-673.75,-350.0,1,94.365,
01/01/2000,01:45:39.78,12.20,-79.30,-991.13,183.75,-735.0,-376.25,1,94.371,
01/01/2000,01:45:39.79,12.20,-79.30,-991.13,288.75,-621.25,-437.50,1,94.376,
01/01/2000,01:45:39.80,12.20,-79.30,-991.25,96.25,-665.0,-227.50,1,94.382,
01/01/2000,01:45:39.81,12.32,-79.06,-991.25,131.25,-665.0,-271.25,1,94.388,
01/01/2000,01:45:39.82,12.20,-79.18,-991.25,148.75,-700.0,-262.50,1,94.393,
01/01/2000,01:45:39.83,12.32,-79.30,-991.25,131.25,-691.25,-437.50,1,94.399,
01/01/2000,01:45:39.84,12.20,-79.06,-991.25,201.25,-665.0,-420.0,1,94.405,
01/01/2000,01:45:39.85,12.32,-79.30,-991.13,218.75,-770.0,-280.0,1,94.411,
01/01/2000,01:45:39.86,12.32,-79.06,-991.25,218.75,-735.0,-192.50,1,94.320,
01/01/2000,01:45:39.87,12.20,-79.06,-991.37,140.0,-682.50,-306.25,1,94.422,
01/01/2000,01:45:39.89,12.20,-79.06,-991.37,350.0,-682.50,-376.25,1,94.332,
01/01/2000,01:45:39.90,12.20,-78.93,-991.37,306.25,-761.25,-420.0,1,94.338,
01/01/2000,01:45:39.91,12.08,-79.06,-991.37,113.75,-630.0,-280.0,1,94.343,
01/01/2000,01:45:39.92,12.08,-79.06,-991.37,113.75,-638.75,-367.50,1,94.349,
01/01/2000,01:45:39.93,11.96,-78.93,-991.13,8.75,-612.50,-332.50,1,94.355,
01/01/2000,01:45:39.94,11.96,-79.06,-991.13,332.50,-577.50,-332.50,1,94.361,
01/01/2000,01:45:39.95,11.96,-79.18,-991.13,201.25,-735.0,-297.50,1,94.366,
01/01/2000,01:45:39.96,12.08,-79.06,-991.13,122.50,-621.25,-385.0,1,94.372,
01/01/2000,01:45:39.97,11.96,-79.18,-991.13,253.75,-665.0,-411.25,1,94.378,
01/01/2000,01:45:39.98,12.08,-78.81,-991.01,236.25,-612.50,-402.50,1,94.383,
01/01/2000,01:45:39.99,12.20,-78.81,-991.01,288.75,-577.50,-306.25,1,94.389,
01/01/2000,01:45:40.00,12.08,-78.81,-990.88,157.50,-673.75,-148.75,1,94.394,
01/01/2000,01:45:40.01,11.96,-78.93,-991.01,166.25,-673.75,-358.75,1,94.400,
01/01/2000,01:45:40.02,12.08,-79.06,-991.13,105.0,-630.0,-332.50,1,94.311,
01/01/2000,01:45:40.03,11.96,-78.81,-991.13,227.50,-673.75,-306.25,1,94.317,
01/01/2000,01:45:40.04,12.08,-79.06,-990.88,245.0,-778.75,-367.50,1,94.323,
01/01/2000,01:45:40.05,11.96,-78.69,-991.13,52.50,-708.75,-245.0,1,94.328,
01/01/2000,01:45:40.06,12.08,-78.81,-991.01,288.75,-778.75,-385.0,1,94.334,
01/01/2000,01:45:40.07,11.96,-79.06,-991.13,-17.50,-726.25,-271.25,1,94.340,
01/01/2000,01:45:40.08,11.96,-78.81,-991.01,113.75,-726.25,-376.25,1,94.345,
01/01/2000,01:45:40.10,11.96,-79.06,-990.88,175.0,-691.25,-332.50,1,94.351,
01/01/2000,01:45:40.11,11.96,-78.93,-991.01,280.0,-735.0,-280.0,1,94.356,
01/01/2000,01:45:40.12,12.08,-78.81,-991.13,96.25,-612.50,-420.0,1,94.362,
01/01/2000,01:45:40.13,11.96,-78.93,-991.13,218.75,-700.0,-350.0,1,94.368,
01/01/2000,01:45:40.14,12.08,-78.93,-991.25,35.0,-621.25,-245.0,1,94.373,
01/01/2000,01:45:40.15,11.96,-78.93,-991.25,148.75,-656.25,-393.75,1,94.379,
01/01/2000,01:45:40.16,12.20,-78.93,-991.13,70.0,-708.75,-183.75,1,94.384,
01/01/2000,01:45:40.17,12.20,-79.06,-991.13,131.25,-647.50,-411.25,1,94.390,
01/01/2000,01:45:40.18,12.08,-79.06,-991.13,35.0,-673.75,-315.0,1,94.395,
01/01/2000,01:45:40.19,11.96,-79.30,-991.01,183.75,-717.50,-253.75,1,94.401,
01/01/2000,01:45:40.20,12.08,-79.30,-991.13,236.25,-673.75,-428.75,1,94.314,
01/01/2000,01:45:40.21,12.20,-79.18,-990.88,105.0,-717.50,-288.75,1,94.412,
01/01/2000,01:45:40.22,12.20,-79.06,-990.88,87.50,-735.0,-350.0,1,94.325,
01/01/2000,01:45:40.24,11.96,-78.93,-990.88,166.25,-787.50,-350.0,1,94.330,
01/01/2000,01:45:40.25,11.96,-79.18,-990.88,315.0,-630.0,-376.25,1,94.336,
01/01/2000,01:45:40.26,11.96,-79.06,-991.01,52.50,-700.0,-297.50,1,94.341,
01/01/2000,01:45:40.27,11.96,-78.93,-990.88,175.0,-831.25,-306.25,1,94.347,
01/01/2000,01:45:40.28,11.96,-78.93,-990.88,218.75,-621.25,-358.75,1,94.352,
01/01/2000,01:45:40.29,11.83,-79.06,-990.88,183.75,-752.50,-306.25,1,94.358,
01/01/2000,01:45:40.30,11.83,-78.93,-990.88,87.50,-673.75,-358.75,1,94.363,
01/01/2000,01:45:40.31,11.96,-78.93,-990.76,183.75,-621.25,-437.50,1,94.277,
01/01/2000,01:45:40.32,11.96,-78.81,-990.76,148.75,-638.75,-446.25,1,94.283,
01/01/2000,01:45:40.33,11.96,-78.93,-990.76,271.25,-630.0,-367.50,1,94.288,
01/01/2000,01:45:40.34,11.83,-79.06,-990.76,306.25,-647.50,-288.75,1,94.294,
01/01/2000,01:45:40.35,11.83,-78.93,-990.88,0.0,-717.50,-297.50,1,94.300,
01/01/2000,01:45:40.36,11.83,-79.18,-990.88,96.25,-770.0,-367.50,1,94.305,
01/01/2000,01:45:40.37,11.71,-78.93,-990.88,105.0,-577.50,-315.0,1,94.311,
01/01/2000,01:45:40.38,11.71,-78.69,-990.76,-35.0,-673.75,-262.50,1,94.316,
01/01/2000,01:45:40.39,11.71,-79.06,-991.01,306.25,-778.75,-332.50,1,94.321,
01/01/2000,01:45:40.40,11.96,-78.93,-991.13,96.25,-761.25,-411.25,1,94.327,
01/01/2000,01:45:40.41,11.96,-79.30,-991.13,227.50,-682.50,-227.50,1,94.332,
01/01/2000,01:45:40.42,11.83,-79.06,-990.88,192.50,-726.25,-218.75,1,94.338,
01/01/2000,01:45:40.43,11.83,-78.81,-990.76,35.0,-700.0,-358.75,1,94.343,
01/01/2000,01:45:40.45,11.96,-78.93,-990.88,306.25,-673.75,-332.50,1,94.349,
01/01/2000,01:45:40.46,11.96,-79.06,-990.88,157.50,-691.25,-332.50,1,94.354,
01/01/2000,01:45:40.47,11.96,-79.06,-991.01,-87.50,-665.0,-323.75,1,94.359,
01/01/2000,01:45:40.48,11.83,-79.18,-990.88,113.75,-665.0,-183.75,1,94.365,
01/01/2000,01:45:40.49,11.96,-79.06,-990.88,157.50,-708.75,-350.0,1,94.370,
01/01/2000,01:45:40.50,11.96,-79.18,-990.88,113.75,-673.75,-350.0,1,94.376,
01/01/2000,01:45:40.51,11.96,-78.93,-991.01,43.75,-691.25,-332.50,1,94.381,
01/01/2000,01:45:40.52,12.20,-79.06,-991.13,271.25,-638.75,-393.75,1,94.386,
01/01/2000,01:45:40.53,12.20,-78.93,-991.13,-26.25,-577.50,-315.0,1,94.392,
01/01/2000,01:45:40.54,12.20,-79.06,-991.01,113.75,-682.50,-376.25,1,94.397,
01/01/2000,01:45:40.55,12.20,-79.06,-991.13,52.50,-743.75,-341.25,1,94.402,
01/01/2000,01:45:40.56,12.32,-79.06,-991.13,122.50,-700.0,-376.25,1,94.408,
01/01/2000,01:45:40.57,12.32,-79.06,-991.37,113.75,-717.50,-306.25,1,94.413,
01/01/2000,01:45:40.58,12.20,-78.93,-991.13,323.75,-735.0,-297.50,1,94.329,
01/01/2000,01:45:40.59,12.20,-78.81,-991.13,288.75,-647.50,-350.0,1,94.334,
01/01/2000,01:45:40.60,12.20,-78.81,-991.25,70.0,-630.0,-323.75,1,94.340,
01/01/2000,01:45:40.61,12.32,-79.06,-991.25,297.50,-708.75,-297.50,1,94.345,
01/01/2000,01:45:40.62,12.20,-79.18,-991.13,52.50,-752.50,-385.0,1,94.350,
01/01/2000,01:45:40.63,11.96,-79.18,-991.01,428.75,-647.50,-367.50,1,94.356,
01/01/2000,01:45:40.64,11.96,-79.18,-991.01,245.0,-673.75,-455.0,1,94.361,
01/01/2000,01:45:40.66,12.08,-79.06,-991.13,262.50,-761.25,-297.50,1,94.366,
01/01/2000,01:45:40.67,12.08,-78.93,-991.13,131.25,-761.25,-192.50,1,94.371,
01/01/2000,01:45:40.68,12.08,-78.93,-991.25,236.25,-743.75,-367.50,1,94.377,
01/01/2000,01:45:40.69,11.96,-79.06,-991.13,17.50,-752.50,-341.25,1,94.382,
01/01/2000,01:45:40.70,12.20,-79.06,-991.25,140.0,-691.25,-376.25,1,94.387,
01/01/2000,01:45:40.71,11.96,-78.93,-991.25,87.50,-717.50,-358.75,1,94.393,
01/01/2000,01:45:40.72,11.96,-79.06,-991.25,201.25,-726.25,-350.0,1,94.398,
01/01/2000,01:45:40.73,11.96,-79.06,-991.13,218.75,-682.50,-358.75,1,94.403,
01/01/2000,01:45:40.74,11.83,-79.06,-991.13,140.0,-612.50,-481.25,1,94.408,
01/01/2000,01:45:40.76,11.96,-79.06,-991.13,175.0,-743.75,-358.75,1,94.326,
01/01/2000,01:45:40.77,12.08,-79.06,-991.25,210.0,-778.75,-358.75,1,94.331,
01/01/2000,01:45:40.78,11.96,-79.06,-991.37,-17.50,-805.0,-183.75,1,94.336,
01/01/2000,01:45:40.79,11.83,-78.93,-991.37,-8.75,-743.75,-253.75,1,94.341,
01/01/2000,01:45:40.80,11.83,-79.06,-991.37,306.25,-682.50,-306.25,1,94.347,
01/01/2000,01:45:40.81,11.96,-78.93,-991.37,131.25,-752.50,-376.25,1,94.352,
01/01/2000,01:45:40.82,11.96,-78.93,-991.13,218.75,-717.50,-332.50,1,94.357,
01/01/2000,01:45:40.83,12.08,-78.93,-991.13,131.25,-682.50,-297.50,1,94.362,
01/01/2000,01:45:40.84,11.96,-78.93,-991.13,113.75,-700.0,-341.25,1,94.368,
01/01/2000,01:45:40.85,11.96,-79.30,-991.01,87.50,-621.25,-376.25,1,94.373,
01/01/2000,01:45:40.86,11.96,-79.18,-991.13,236.25,-796.25,-341.25,1,94.378,
01/01/2000,01:45:40.87,11.96,-79.18,-991.13,175.0,-726.25,-350.0,1,94.383,
01/01/2000,01:45:40.88,11.96,-78.93,-991.13,122.50,-752.50,-350.0,1,94.388,
01/01/2000,01:45:40.89,12.08,-78.93,-991.13,253.75,-656.25,-437.50,1,94.393,
01/01/2000,01:45:40.90,11.96,-79.06,-991.25,122.50,-796.25,-367.50,1,94.399,
01/01/2000,01:45:40.91,12.20,-79.30,-991.37,148.75,-665.0,-315.0,1,94.404,
01/01/2000,01:45:40.92,12.20,-79.30,-991.37,70.0,-787.50,-341.25,1,94.409,
01/01/2000,01:45:40.93,12.20,-78.93,-991.37,105.0,-700.0,-323.75,1,94.328,
01/01/2000,01:45:40.94,12.20,-78.81,-991.37,262.50,-822.50,-306.25,1,94.333,
01/01/2000,01:45:40.95,12.08,-78.69,-991.37,0.0,-638.75,-201.25,1,94.338,
01/01/2000,01:45:40.96,12.08,-78.81,-991.49,-35.0,-770.0,-446.25,1,94.343,
01/01/2000,01:45:40.97,12.08,-79.06,-991.49,148.75,-647.50,-271.25,1,94.348,
01/01/2000,01:45:40.98,12.08,-79.18,-991.49,201.25,-735.0,-376.25,1,94.353,
01/01/2000,01:45:40.99,12.08,-79.06,-991.49,43.75,-743.75,-183.75,1,94.359,
01/01/2000,01:45:41.01,12.20,-79.18,-991.37,-78.75,-796.25,-262.50,1,94.364,
01/01/2000,01:45:41.02,12.32,-79.18,-991.37,175.0,-735.0,-210.0,1,94.369,
01/01/2000,01:45:41.03,12.20,-79.30,-991.13,210.0,-603.75,-358.75,1,94.374,
01/01/2000,01:45:41.04,12.08,-79.42,-991.13,210.0,-647.50,-227.50,1,94.379,
01/01/2000,01:45:41.05,12.20,-79.06,-991.13,61.25,-586.25,-385.0,1,94.384,
01/01/2000,01:45:41.06,12.32,-79.30,-991.37,280.0,-700.0,-297.50,1,94.389,
01/01/2000,01:45:41.07,12.32,-79.18,-991.37,192.50,-700.0,-323.75,1,94.394,
01/01/2000,01:45:41.08,12.08,-79.18,-991.37,315.0,-717.50,-420.0,1,94.399,
01/01/2000,01:45:41.09,12.20,-79.18,-991.37,122.50,-761.25,-402.50,1,94.404,
01/01/2000,01:45:41.10,12.20,-79.06,-991.37,245.0,-761.25,-376.25,1,94.409,
01/01/2000,01:45:41.11,12.32,-79.30,-991.37,271.25,-726.25,-376.25,1,94.414,
01/01/2000,01:45:41.12,12.32,-79.06,-991.37,113.75,-682.50,-297.50,1,94.419,
01/01/2000,01:45:41.13,12.08,-79.18,-991.37,122.50,-752.50,-358.75,1,94.424,
01/01/2000,01:45:41.15,12.08,-79.30,-991.25,227.50,-682.50,-455.0,1,94.345,
01/01/2000,01:45:41.16,12.08,-79.30,-991.13,271.25,-577.50,-192.50,1,94.350,
01/01/2000,01:45:41.17,12.20,-79.30,-991.13,43.75,-691.25,-271.25,1,94.355,
01/01/2000,01:45:41.18,12.32,-79.30,-991.01,131.25,-770.0,-350.0,1,94.360,
01/01/2000,01:45:41.19,12.20,-79.30,-991.01,87.50,-621.25,-402.50,1,94.365,
01/01/2000,01:45:41.20,12.08,-79.18,-991.25,78.75,-761.25,-236.25,1,94.370,
01/01/2000,01:45:41.21,12.08,-79.06,-991.37,201.25,-708.75,-288.75,1,94.375,
01/01/2000,01:45:41.22,12.20,-79.18,-991.25,113.75,-761.25,-306.25,1,94.380,
01/01/2000,01:45:41.23,12.20,-79.18,-991.13,210.0,-665.0,-385.0,1,94.385,
01/01/2000,01:45:41.24,12.20,-79.30,-991.13,245.0,-735.0,-297.50,1,94.390,
01/01/2000,01:45:41.25,12.32,-79.54,-991.13,376.25,-551.25,-393.75,1,94.395,
01/01/2000,01:45:41.26,12.32,-79.30,-991.37,175.0,-603.75,-262.50,1,94.316,
01/01/2000,01:45:41.27,12.32,-79.18,-991.37,192.50,-778.75,-297.50,1,94.321,
01/01/2000,01:45:41.29,12.20,-79.06,-991.25,271.25,-717.50,-358.75,1,94.326,
01/01/2000,01:45:41.30,12.32,-79.42,-991.25,262.50,-595.0,-306.25,1,94.331,
01/01/2000,01:45:41.31,12.20,-79.18,-991.25,8.75,-787.50,-367.50,1,94.336,
01/01/2000,01:45:41.32,12.08,-79.30,-991.25,280.0,-673.75,-428.75,1,94.341,
01/01/2000,01:45:41.33,12.20,-79.18,-991.37,175.0,-700.0,-341.25,1,94.346,
01/01/2000,01:45:41.34,12.08,-79.06,-991.25,253.75,-796.25,-315.0,1,94.351,
01/01/2000,01:45:41.35,11.83,-79.06,-991.25,43.75,-638.75,-192.50,1,94.356,
01/01/2000,01:45:41.36,11.96,-79.06,-991.13,157.50,-630.0,-323.75,1,94.361,
01/01/2000,01:45:41.37,11.96,-79.18,-991.13,227.50,-726.25,-332.50,1,94.366,
01/01/2000,01:45:41.38,11.96,-78.93,-991.13,26.25,-796.25,-393.75,1,94.371,
01/01/2000,01:45:41.39,11.96,-79.06,-991.01,236.25,-717.50,-376.25,1,94.376,
01/01/2000,01:45:41.40,11.96,-79.18,-991.01,166.25,-621.25,-350.0,1,94.381,
01/01/2000,01:45:41.41,12.08,-78.81,-991.13,87.50,-717.50,-350.0,1,94.386,
01/01/2000,01:45:41.42,11.96,-78.69,-991.25,78.75,-595.0,-271.25,1,94.391,
01/01/2000,01:45:41.43,11.96,-78.81,-991.25,157.50,-577.50,-288.75,1,94.396,
01/01/2000,01:45:41.44,11.71,-78.93,-991.25,43.75,-700.0,-280.0,1,94.401,
01/01/2000,01:45:41.45,11.83,-78.81,-991.13,306.25,-656.25,-411.25,1,94.406,
01/01/2000,01:45:41.46,11.96,-78.81,-991.01,26.25,-682.50,-253.75,1,94.410,
01/01/2000,01:45:41.47,11.96,-78.57,-991.01,323.75,-603.75,-323.75,1,94.415,
01/01/2000,01:45:41.48,11.96,-78.81,-991.13,201.25,-717.50,-393.75,1,94.420,
01/01/2000,01:45:41.49,11.96,-78.81,-991.13,166.25,-673.75,-350.0,1,94.425,
01/01/2000,01:45:41.50,11.96,-78.69,-991.13,148.75,-577.50,-463.75,1,94.348,
01/01/2000,01:45:41.51,11.96,-78.57,-991.01,358.75,-682.50,-358.75,1,94.353,
01/01/2000,01:45:41.52,11.96,-78.69,-990.88,201.25,-656.25,-288.75,1,94.358,
01/01/2000,01:45:41.53,12.08,-78.57,-990.88,-8.75,-682.50,-306.25,1,94.363,
01/01/2000,01:45:41.54,12.20,-78.93,-990.76,96.25,-752.50,-455.0,1,94.367,
01/01/2000,01:45:41.55,11.96,-78.93,-990.88,122.50,-700.0,-280.0,1,94.372,
01/01/2000,01:45:41.57,11.96,-78.81,-990.52,70.0,-673.75,-358.75,1,94.377,
01/01/2000,01:45:41.58,11.96,-78.81,-990.52,262.50,-586.25,-323.75,1,94.382,
01/01/2000,01:45:41.59,11.96,-78.93,-990.64,175.0,-612.50,-227.50,1,94.387,
01/01/2000,01:45:41.60,11.96,-78.93,-990.76,192.50,-726.25,-253.75,1,94.392,
01/01/2000,01:45:41.61,11.83,-78.93,-990.76,183.75,-691.25,-437.50,1,94.397,
01/01/2000,01:45:41.62,11.71,-78.81,-990.64,183.75,-638.75,-341.25,1,94.401,
01/01/2000,01:45:41.63,11.83,-78.81,-990.64,201.25,-708.75,-297.50,1,94.406,
01/01/2000,01:45:41.64,11.83,-78.81,-990.76,113.75,-735.0,-367.50,1,94.411,
01/01/2000,01:45:41.65,11.83,-78.81,-990.88,271.25,-691.25,-332.50,1,94.416,
01/01/2000,01:45:41.66,11.96,-79.06,-991.01,175.0,-630.0,-306.25,1,94.340,
01/01/2000,01:45:41.67,11.83,-79.30,-990.88,253.75,-673.75,-393.75,1,94.425,
01/01/2000,01:45:41.68,11.96,-78.93,-991.01,-52.50,-595.0,-323.75,1,94.349,
01/01/2000,01:45:41.69,12.08,-79.06,-991.13,166.25,-735.0,-350.0,1,94.354,
01/01/2000,01:45:41.71,11.96,-78.93,-991.13,87.50,-595.0,-393.75,1,94.359,
01/01/2000,01:45:41.72,11.83,-79.18,-991.01,297.50,-682.50,-236.25,1,94.364,
01/01/2000,01:45:41.73,11.83,-79.18,-990.88,192.50,-682.50,-420.0,1,94.369,
01/01/2000,01:45:41.74,11.96,-79.18,-990.76,332.50,-726.25,-481.25,1,94.373,
01/01/2000,01:45:41.75,11.96,-79.06,-990.88,157.50,-787.50,-253.75,1,94.378,
01/01/2000,01:45:41.76,11.96,-78.93,-990.88,157.50,-796.25,-411.25,1,94.383,
01/01/2000,01:45:41.77,11.96,-78.81,-991.13,201.25,-726.25,-297.50,1,94.308,
01/01/2000,01:45:41.79,11.96,-78.93,-991.13,297.50,-577.50,-271.25,1,94.312,
01/01/2000,01:45:41.79,11.96,-78.93,-991.01,157.50,-743.75,-201.25,1,94.317,
01/01/2000,01:45:41.81,12.08,-78.81,-991.13,122.50,-700.0,-402.50,1,94.322,
01/01/2000,01:45:41.82,12.20,-79.06,-991.13,157.50,-647.50,-280.0,1,94.327,
01/01/2000,01:45:41.83,12.20,-78.81,-991.13,105.0,-743.75,-367.50,1,94.332,
01/01/2000,01:45:41.84,12.08,-78.81,-990.88,236.25,-647.50,-262.50,1,94.336,
01/01/2000,01:45:41.85,12.08,-78.81,-991.01,227.50,-726.25,-358.75,1,94.341,
01/01/2000,01:45:41.86,11.96,-78.81,-991.01,262.50,-691.25,-297.50,1,94.346,
01/01/2000,01:45:41.87,11.96,-79.06,-991.13,315.0,-638.75,-507.50,1,94.351,
01/01/2000,01:45:41.88,12.08,-79.06,-991.13,122.50,-691.25,-315.0,1,94.356,
01/01/2000,01:45:41.89,11.96,-78.93,-991.01,236.25,-630.0,-315.0,1,94.360,
01/01/2000,01:45:41.90,11.96,-79.06,-990.88,218.75,-682.50,-306.25,1,94.365,
01/01/2000,01:45:41.91,11.96,-78.81,-990.76,43.75,-752.50,-385.0,1,94.370,
01/01/2000,01:45:41.92,12.08,-78.93,-990.76,140.0,-630.0,-315.0,1,94.374,
01/01/2000,01:45:41.93,12.08,-79.06,-990.88,446.25,-717.50,-297.50,1,94.379,
01/01/2000,01:45:41.94,12.08,-78.81,-990.76,157.50,-691.25,-350.0,1,94.384,
01/01/2000,01:45:41.95,12.08,-78.93,-990.88,96.25,-673.75,-280.0,1,94.389,
01/01/2000,01:45:41.96,12.20,-78.93,-991.01,192.50,-787.50,-402.50,1,94.393,
01/01/2000,01:45:41.97,12.20,-78.81,-991.13,26.25,-735.0,-253.75,1,94.398,
01/01/2000,01:45:41.98,12.20,-78.81,-991.13,358.75,-638.75,-385.0,1,94.403,
01/01/2000,01:45:41.99,12.32,-78.81,-990.88,315.0,-700.0,-315.0,1,94.329,
01/01/2000,01:45:42.00,12.32,-78.81,-990.88,26.25,-735.0,-332.50,1,94.333,
01/01/2000,01:45:42.01,12.44,-79.06,-990.88,148.75,-673.75,-253.75,1,94.338,
01/01/2000,01:45:42.02,12.44,-79.06,-990.88,105.0,-656.25,-288.75,1,94.343,
01/01/2000,01:45:42.04,12.20,-79.18,-990.88,306.25,-700.0,-455.0,1,94.347,
01/01/2000,01:45:42.04,12.20,-78.93,-990.88,227.50,-621.25,-350.0,1,94.352,
01/01/2000,01:45:42.06,12.32,-79.06,-990.76,201.25,-743.75,-288.75,1,94.357,
01/01/2000,01:45:42.07,12.44,-79.06,-990.64,122.50,-603.75,-332.50,1,94.362,
01/01/2000,01:45:42.08,12.32,-78.93,-990.76,288.75,-717.50,-358.75,1,94.366,
01/01/2000,01:45:42.09,12.44,-79.06,-990.88,43.75,-673.75,-393.75,1,94.371,
01/01/2000,01:45:42.10,12.32,-79.18,-990.88,332.50,-656.25,-376.25,1,94.376,
01/01/2000,01:45:42.11,12.20,-78.81,-990.76,61.25,-542.50,-367.50,1,94.380,
01/01/2000,01:45:42.12,12.20,-78.93,-990.76,140.0,-770.0,-358.75,1,94.385,
01/01/2000,01:45:42.13,12.32,-78.69,-990.64,105.0,-691.25,-332.50,1,94.312,
01/01/2000,01:45:42.14,12.20,-79.06,-990.64,183.75,-647.50,-271.25,1,94.316,
01/01/2000,01:45:42.15,12.32,-79.06,-990.76,288.75,-630.0,-358.75,1,94.321,
01/01/2000,01:45:42.16,12.20,-79.06,-990.88,17.50,-761.25,-315.0,1,94.326,
01/01/2000,01:45:42.17,12.20,-78.81,-990.76,210.0,-551.25,-402.50,1,94.330,
01/01/2000,01:45:42.18,12.20,-78.81,-990.76,288.75,-638.75,-341.25,1,94.335,
01/01/2000,01:45:42.19,12.20,-78.57,-990.76,192.50,-691.25,-332.50,1,94.340,
01/01/2000,01:45:42.21,12.08,-78.81,-990.64,218.75,-752.50,-385.0,1,94.344,
01/01/2000,01:45:42.22,12.08,-78.81,-990.76,113.75,-560.0,-253.75,1,94.349,
01/01/2000,01:45:42.23,12.08,-78.93,-990.52,288.75,-656.25,-428.75,1,94.354,
01/01/2000,01:45:42.24,12.08,-78.81,-990.52,8.75,-603.75,-358.75,1,94.358,
01/01/2000,01:45:42.25,12.20,-78.93,-990.64,131.25,-682.50,-350.0,1,94.363,
01/01/2000,01:45:42.26,12.08,-79.06,-990.76,210.0,-673.75,-367.50,1,94.367,
01/01/2000,01:45:42.27,12.08,-79.30,-990.76,70.0,-735.0,-271.25,1,94.372,
01/01/2000,01:45:42.28,12.08,-79.06,-990.40,140.0,-735.0,-481.25,1,94.300,
01/01/2000,01:45:42.30,12.08,-78.93,-990.40,183.75,-770.0,-227.50,1,94.304,
01/01/2000,01:45:42.31,12.20,-79.06,-990.52,262.50,-813.75,-350.0,1,94.309,
01/01/2000,01:45:42.32,11.96,-79.06,-990.76,218.75,-691.25,-297.50,1,94.314,
01/01/2000,01:45:42.33,11.96,-79.06,-990.88,227.50,-673.75,-428.75,1,94.318,
01/01/2000,01:45:42.34,12.08,-78.93,-990.88,52.50,-708.75,-306.25,1,94.323,
01/01/2000,01:45:42.35,12.20,-79.18,-990.64,201.25,-621.25,-402.50,1,94.327,
01/01/2000,01:45:42.36,12.20,-79.18,-990.64,323.75,-717.50,-367.50,1,94.332,
01/01/2000,01:45:42.37,11.96,-78.93,-990.76,52.50,-647.50,-297.50,1,94.337,
01/01/2000,01:45:42.38,12.08,-79.06,-990.64,227.50,-586.25,-393.75,1,94.341,
01/01/2000,01:45:42.39,11.96,-79.06,-990.64,43.75,-665.0,-297.50,1,94.346,
01/01/2000,01:45:42.40,11.96,-79.06,-990.52,87.50,-673.75,-306.25,1,94.350,
01/01/2000,01:45:42.41,12.08,-79.30,-990.52,166.25,-831.25,-315.0,1,94.355,
01/01/2000,01:45:42.42,11.96,-79.18,-990.40,-8.75,-752.50,-341.25,1,94.359,
01/01/2000,01:45:42.43,11.96,-79.30,-990.52,87.50,-691.25,-393.75,1,94.364,
01/01/2000,01:45:42.44,11.83,-79.18,-990.52,376.25,-577.50,-315.0,1,94.368,
01/01/2000,01:45:42.45,11.96,-79.18,-990.52,175.0,-726.25,-393.75,1,94.373,
01/01/2000,01:45:42.46,11.83,-78.93,-990.64,113.75,-770.0,-341.25,1,94.378,
01/01/2000,01:45:42.47,11.96,-79.06,-990.64,17.50,-638.75,-350.0,1,94.382,
01/01/2000,01:45:42.48,11.96,-79.06,-990.40,297.50,-752.50,-402.50,1,94.311,
01/01/2000,01:45:42.49,11.83,-79.06,-990.52,288.75,-761.25,-288.75,1,94.315,
01/01/2000,01:45:42.50,11.96,-79.06,-990.52,175.0,-630.0,-183.75,1,94.320,
01/01/2000,01:45:42.51,11.83,-79.06,-990.64,227.50,-665.0,-481.25,1,94.325,
01/01/2000,01:45:42.52,11.83,-79.06,-990.64,253.75,-647.50,-288.75,1,94.329,
01/01/2000,01:45:42.53,11.96,-79.06,-990.76,-8.75,-717.50,-253.75,1,94.334,
01/01/2000,01:45:42.54,11.83,-79.18,-990.64,166.25,-700.0,-455.0,1,94.338,
01/01/2000,01:45:42.56,11.96,-79.06,-990.64,131.25,-638.75,-332.50,1,94.343,
01/01/2000,01:45:42.57,11.71,-78.93,-990.76,157.50,-700.0,-358.75,1,94.347,
01/01/2000,01:45:42.58,11.96,-78.81,-990.64,227.50,-656.25,-437.50,1,94.352,
01/01/2000,01:45:42.59,11.96,-78.93,-990.64,183.75,-638.75,-350.0,1,94.356,
01/01/2000,01:45:42.60,11.96,-78.93,-990.88,166.25,-735.0,-428.75,1,94.361,
01/01/2000,01:45:42.61,11.96,-79.06,-990.88,87.50,-735.0,-201.25,1,94.365,
01/01/2000,01:45:42.62,12.20,-78.93,-991.01,183.75,-700.0,-542.50,1,94.370,
01/01/2000,01:45:42.63,12.08,-78.93,-990.88,297.50,-647.50,-306.25,1,94.374,
01/01/2000,01:45:42.64,12.08,-79.06,-990.88,-61.25,-673.75,-393.75,1,94.378,
01/01/2000,01:45:42.65,11.96,-78.81,-990.88,-52.50,-630.0,-323.75,1,94.383,
01/01/2000,01:45:42.66,11.96,-78.81,-990.88,122.50,-656.25,-323.75,1,94.387,
01/01/2000,01:45:42.67,11.96,-79.18,-990.88,210.0,-673.75,-332.50,1,94.392,
01/01/2000,01:45:42.68,11.96,-78.93,-990.88,148.75,-778.75,-358.75,1,94.396,
01/01/2000,01:45:42.69,12.08,-78.93,-991.01,183.75,-708.75,-420.0,1,94.326,
01/01/2000,01:45:42.70,12.08,-79.18,-991.01,157.50,-700.0,-350.0,1,94.331,
01/01/2000,01:45:42.71,12.08,-79.06,-991.13,96.25,-647.50,-245.0,1,94.335,
01/01/2000,01:45:42.72,12.08,-79.30,-990.88,253.75,-708.75,-472.50,1,94.340,
01/01/2000,01:45:42.73,12.20,-79.18,-990.88,157.50,-647.50,-192.50,1,94.344,
01/01/2000,01:45:42.75,12.20,-79.06,-990.88,210.0,-770.0,-472.50,1,94.349,
01/01/2000,01:45:42.75,12.20,-79.06,-990.88,183.75,-691.25,-341.25,1,94.353,
01/01/2000,01:45:42.77,12.20,-79.30,-990.88,253.75,-656.25,-402.50,1,94.357,
01/01/2000,01:45:42.78,12.08,-79.30,-990.76,122.50,-717.50,-420.0,1,94.362,
01/01/2000,01:45:42.79,12.08,-79.42,-990.52,262.50,-621.25,-288.75,1,94.292,
01/01/2000,01:45:42.80,12.20,-79.18,-990.64,17.50,-840.0,-341.25,1,94.297,
01/01/2000,01:45:42.81,12.20,-79.30,-990.88,52.50,-673.75,-411.25,1,94.301,
01/01/2000,01:45:42.82,12.20,-79.42,-990.76,0.0,-691.25,-341.25,1,94.306,
01/01/2000,01:45:42.83,12.20,-79.42,-990.76,157.50,-665.0,-350.0,1,94.310,
01/01/2000,01:45:42.85,12.08,-79.30,-990.76,157.50,-630.0,-446.25,1,94.315,
01/01/2000,01:45:42.86,11.96,-79.06,-990.76,175.0,-682.50,-218.75,1,94.319,
01/01/2000,01:45:42.87,12.20,-78.93,-990.76,105.0,-778.75,-437.50,1,94.323,
01/01/2000,01:45:42.88,12.20,-79.06,-990.88,253.75,-700.0,-262.50,1,94.328,
01/01/2000,01:45:42.89,12.20,-79.06,-990.76,166.25,-656.25,-420.0,1,94.332,
01/01/2000,01:45:42.90,12.20,-79.30,-990.76,78.75,-568.75,-463.75,1,94.337,
01/01/2000,01:45:42.91,12.44,-79.06,-990.64,297.50,-638.75,-411.25,1,94.341,
01/01/2000,01:45:42.92,12.32,-79.06,-990.76,157.50,-708.75,-253.75,1,94.345,
01/01/2000,01:45:42.93,12.20,-78.81,-990.76,140.0,-656.25,-245.0,1,94.350,
01/01/2000,01:45:42.94,12.20,-79.06,-990.88,341.25,-673.75,-437.50,1,94.354,
01/01/2000,01:45:42.95,12.20,-79.18,-990.88,192.50,-647.50,-297.50,1,94.359,
01/01/2000,01:45:42.96,12.32,-79.30,-990.88,131.25,-691.25,-393.75,1,94.363,
01/01/2000,01:45:42.97,12.20,-79.06,-991.01,157.50,-638.75,-315.0,1,94.367,
01/01/2000,01:45:42.98,12.32,-78.93,-990.88,192.50,-822.50,-306.25,1,94.372,
01/01/2000,01:45:42.99,12.20,-78.93,-990.88,227.50,-638.75,-323.75,1,94.376,
01/01/2000,01:45:43.00,12.08,-78.93,-991.01,166.25,-726.25,-411.25,1,94.380,
01/01/2000,01:45:43.01,11.96,-79.18,-991.01,131.25,-796.25,-358.75,1,94.385,
01/01/2000,01:45:43.02,12.08,-78.93,-991.01,201.25,-700.0,-358.75,1,94.389,
01/01/2000,01:45:43.03,12.08,-79.06,-990.88,306.25,-638.75,-367.50,1,94.393,
01/01/2000,01:45:43.04,11.96,-78.81,-991.01,26.25,-638.75,-332.50,1,94.398,
01/01/2000,01:45:43.06,11.96,-78.93,-990.88,271.25,-691.25,-323.75,1,94.329,
01/01/2000,01:45:43.07,11.96,-78.93,-990.88,245.0,-647.50,-402.50,1,94.334,
01/01/2000,01:45:43.08,11.96,-78.81,-990.88,78.75,-673.75,-350.0,1,94.338,
01/01/2000,01:45:43.09,12.20,-78.81,-990.88,218.75,-708.75,-455.0,1,94.343,
01/01/2000,01:45:43.10,12.08,-78.81,-990.88,297.50,-691.25,-358.75,1,94.347,
01/01/2000,01:45:43.11,11.96,-78.93,-990.88,148.75,-673.75,-341.25,1,94.351,
01/01/2000,01:45:43.12,11.83,-78.93,-990.88,70.0,-595.0,-350.0,1,94.355,
01/01/2000,01:45:43.13,11.83,-78.93,-991.01,43.75,-708.75,-332.50,1,94.360,
01/01/2000,01:45:43.14,11.71,-79.06,-990.88,105.0,-673.75,-376.25,1,94.364,
01/01/2000,01:45:43.15,11.96,-78.81,-990.88,122.50,-647.50,-332.50,1,94.368,
01/01/2000,01:45:43.16,11.96,-78.81,-990.76,306.25,-647.50,-393.75,1,94.373,
01/01/2000,01:45:43.17,11.83,-79.06,-990.88,87.50,-665.0,-297.50,1,94.377,
01/01/2000,01:45:43.18,11.96,-78.93,-990.88,175.0,-691.25,-455.0,1,94.381,
01/01/2000,01:45:43.19,11.83,-78.81,-990.88,218.75,-735.0,-385.0,1,94.314,
01/01/2000,01:45:43.20,12.08,-78.93,-991.01,140.0,-717.50,-280.0,1,94.318,
01/01/2000,01:45:43.21,11.96,-78.69,-991.01,8.75,-700.0,-341.25,1,94.322,
01/01/2000,01:45:43.22,12.20,-78.69,-991.01,175.0,-630.0,-306.25,1,94.327,
01/01/2000,01:45:43.23,12.32,-78.81,-991.13,70.0,-577.50,-446.25,1,94.331,
01/01/2000,01:45:43.24,12.20,-78.81,-991.01,148.75,-735.0,-332.50,1,94.335,
01/01/2000,01:45:43.25,12.20,-78.81,-991.13,210.0,-630.0,-358.75,1,94.340,
01/01/2000,01:45:43.27,12.08,-78.81,-991.13,96.25,-700.0,-385.0,1,94.344,
01/01/2000,01:45:43.28,12.20,-78.57,-991.13,-43.75,-778.75,-236.25,1,94.348,
01/01/2000,01:45:43.29,12.32,-78.69,-991.25,175.0,-665.0,-455.0,1,94.352,
01/01/2000,01:45:43.30,12.32,-78.81,-991.25,96.25,-735.0,-367.50,1,94.357,
01/01/2000,01:45:43.31,12.32,-79.06,-991.25,192.50,-595.0,-350.0,1,94.290,
01/01/2000,01:45:43.32,12.20,-78.81,-991.37,70.0,-630.0,-367.50,1,94.294,
01/01/2000,01:45:43.33,12.20,-78.81,-991.49,113.75,-743.75,-315.0,1,94.299,
01/01/2000,01:45:43.34,12.20,-78.81,-991.49,157.50,-665.0,-350.0,1,94.303,
01/01/2000,01:45:43.35,12.20,-78.93,-991.37,70.0,-761.25,-271.25,1,94.307,
01/01/2000,01:45:43.36,12.08,-79.06,-991.25,323.75,-630.0,-472.50,1,94.311,
01/01/2000,01:45:43.37,11.96,-79.06,-991.13,148.75,-743.75,-385.0,1,94.316,
01/01/2000,01:45:43.38,11.96,-79.06,-991.13,175.0,-743.75,-306.25,1,94.320,
01/01/2000,01:45:43.39,12.08,-79.06,-991.37,96.25,-796.25,-332.50,1,94.324,
01/01/2000,01:45:43.41,12.08,-78.93,-991.37,183.75,-708.75,-350.0,1,94.328,
01/01/2000,01:45:43.42,12.20,-79.06,-991.37,420.0,-638.75,-393.75,1,94.333,
01/01/2000,01:45:43.43,12.08,-78.93,-991.37,192.50,-665.0,-323.75,1,94.337,
01/01/2000,01:45:43.44,12.20,-78.93,-991.37,105.0,-682.50,-323.75,1,94.341,
01/01/2000,01:45:43.45,12.32,-78.93,-991.25,218.75,-682.50,-393.75,1,94.345,
01/01/2000,01:45:43.46,12.20,-78.93,-991.37,122.50,-743.75,-323.75,1,94.349,
01/01/2000,01:45:43.47,12.20,-79.06,-991.25,280.0,-708.75,-481.25,1,94.354,
01/01/2000,01:45:43.48,12.08,-79.06,-991.13,227.50,-638.75,-385.0,1,94.358,
01/01/2000,01:45:43.49,12.08,-79.06,-991.13,61.25,-621.25,-288.75,1,94.362,
01/01/2000,01:45:43.50,12.08,-78.93,-991.13,52.50,-691.25,-367.50,1,94.366,
01/01/2000,01:45:43.51,12.20,-79.06,-991.13,253.75,-743.75,-385.0,1,94.370,
01/01/2000,01:45:43.52,12.20,-79.06,-991.13,166.25,-735.0,-385.0,1,94.375,
01/01/2000,01:45:43.53,12.08,-79.06,-991.37,148.75,-805.0,-323.75,1,94.379,
01/01/2000,01:45:43.54,12.20,-79.06,-991.37,245.0,-612.50,-367.50,1,94.313,
01/01/2000,01:45:43.55,12.32,-79.18,-991.25,280.0,-708.75,-288.75,1,94.317,
01/01/2000,01:45:43.56,12.20,-79.30,-991.13,35.0,-708.75,-323.75,1,94.322,
01/01/2000,01:45:43.57,12.20,-79.18,-991.13,87.50,-778.75,-297.50,1,94.326,
01/01/2000,01:45:43.58,12.20,-79.18,-991.01,192.50,-691.25,-446.25,1,94.330,
01/01/2000,01:45:43.59,12.20,-79.30,-990.88,157.50,-735.0,-315.0,1,94.334,
01/01/2000,01:45:43.60,12.08,-79.18,-991.01,315.0,-726.25,-420.0,1,94.338,
01/01/2000,01:45:43.62,12.08,-78.93,-991.13,148.75,-691.25,-271.25,1,94.342,
01/01/2000,01:45:43.63,12.32,-79.06,-991.13,140.0,-665.0,-428.75,1,94.347,
01/01/2000,01:45:43.64,12.32,-79.18,-991.01,262.50,-682.50,-306.25,1,94.351,
01/01/2000,01:45:43.65,12.08,-79.06,-991.13,122.50,-787.50,-341.25,1,94.355,
01/01/2000,01:45:43.66,11.96,-79.18,-991.13,306.25,-630.0,-271.25,1,94.359,
01/01/2000,01:45:43.67,12.08,-79.06,-991.25,183.75,-708.75,-341.25,1,94.363,
01/01/2000,01:45:43.68,12.20,-79.06,-991.25,376.25,-717.50,-481.25,1,94.367,
01/01/2000,01:45:43.69,12.20,-79.06,-991.01,43.75,-726.25,-376.25,1,94.371,
01/01/2000,01:45:43.70,12.20,-78.93,-991.01,17.50,-586.25,-332.50,1,94.375,
01/01/2000,01:45:43.71,12.08,-79.06,-990.88,288.75,-726.25,-463.75,1,94.380,
01/01/2000,01:45:43.72,12.08,-78.93,-991.13,201.25,-682.50,-323.75,1,94.384,
01/01/2000,01:45:43.73,12.20,-78.93,-991.13,271.25,-743.75,-323.75,1,94.388,
01/01/2000,01:45:43.74,12.20,-78.81,-991.01,166.25,-665.0,-288.75,1,94.392,
01/01/2000,01:45:43.75,12.20,-78.81,-990.88,192.50,-673.75,-323.75,1,94.327,
01/01/2000,01:45:43.77,12.08,-79.06,-991.13,166.25,-673.75,-175.0,1,94.331,
01/01/2000,01:45:43.78,11.96,-79.06,-991.13,96.25,-752.50,-323.75,1,94.336,
01/01/2000,01:45:43.79,12.08,-78.93,-991.13,131.25,-761.25,-490.0,1,94.340,
01/01/2000,01:45:43.80,12.20,-78.93,-991.01,315.0,-630.0,-262.50,1,94.344,
01/01/2000,01:45:43.81,12.20,-78.81,-990.64,35.0,-726.25,-262.50,1,94.280,
01/01/2000,01:45:43.82,12.08,-79.06,-990.88,131.25,-656.25,-411.25,1,94.284,
01/01/2000,01:45:43.83,11.96,-79.06,-990.88,166.25,-761.25,-358.75,1,94.288,
01/01/2000,01:45:43.84,12.20,-79.06,-990.88,210.0,-656.25,-420.0,1,94.292,
01/01/2000,01:45:43.85,12.20,-78.81,-990.88,8.75,-700.0,-376.25,1,94.296,
01/01/2000,01:45:43.86,12.08,-78.93,-991.01,113.75,-735.0,-288.75,1,94.300,
01/01/2000,01:45:43.87,12.20,-78.81,-991.01,192.50,-726.25,-341.25,1,94.304,
01/01/2000,01:45:43.89,12.20,-78.93,-991.01,262.50,-691.25,-393.75,1,94.308,
01/01/2000,01:45:43.90,12.32,-78.81,-991.01,140.0,-630.0,-367.50,1,94.312,
01/01/2000,01:45:43.91,12.20,-78.81,-990.88,253.75,-691.25,-367.50,1,94.317,
01/01/2000,01:45:43.92,12.20,-79.06,-990.88,420.0,-726.25,-428.75,1,94.321,
01/01/2000,01:45:43.93,12.08,-78.81,-990.88,8.75,-787.50,-315.0,1,94.325,
01/01/2000,01:45:43.94,11.96,-78.69,-991.13,87.50,-805.0,-288.75,1,94.329,
01/01/2000,01:45:43.95,12.08,-78.81,-991.25,218.75,-673.75,-332.50,1,94.333,
01/01/2000,01:45:43.96,11.96,-78.69,-991.25,201.25,-603.75,-332.50,1,94.337,
01/01/2000,01:45:43.97,11.96,-78.93,-990.88,280.0,-822.50,-437.50,1,94.341,
01/01/2000,01:45:43.98,11.96,-78.93,-990.88,201.25,-691.25,-350.0,1,94.345,
01/01/2000,01:45:43.99,11.96,-78.93,-991.13,236.25,-717.50,-358.75,1,94.349,
01/01/2000,01:45:44.00,11.96,-79.06,-991.13,157.50,-700.0,-341.25,1,94.353,
01/01/2000,01:45:44.01,11.96,-79.18,-991.13,210.0,-647.50,-201.25,1,94.357,
01/01/2000,01:45:44.02,12.08,-79.06,-991.25,148.75,-691.25,-393.75,1,94.361,
01/01/2000,01:45:44.03,12.20,-79.06,-991.13,245.0,-805.0,-411.25,1,94.365,
01/01/2000,01:45:44.04,12.20,-79.06,-990.88,192.50,-840.0,-376.25,1,94.369,
01/01/2000,01:45:44.05,12.20,-79.06,-990.88,52.50,-717.50,-358.75,1,94.306,
01/01/2000,01:45:44.06,12.20,-78.93,-990.88,26.25,-700.0,-341.25,1,94.310,
01/01/2000,01:45:44.07,12.32,-79.06,-990.88,201.25,-735.0,-358.75,1,94.314,
01/01/2000,01:45:44.08,12.20,-79.06,-990.88,210.0,-656.25,-411.25,1,94.318,
01/01/2000,01:45:44.09,12.08,-79.06,-990.88,61.25,-708.75,-341.25,1,94.322,
01/01/2000,01:45:44.11,12.20,-78.93,-990.88,280.0,-603.75,-341.25,1,94.326,
01/01/2000,01:45:44.12,12.08,-79.06,-990.88,288.75,-726.25,-218.75,1,94.330,
01/01/2000,01:45:44.13,12.20,-79.06,-990.88,105.0,-630.0,-420.0,1,94.334,
01/01/2000,01:45:44.14,12.20,-79.06,-990.88,52.50,-673.75,-157.50,1,94.338,
01/01/2000,01:45:44.15,12.32,-78.93,-990.88,183.75,-647.50,-341.25,1,94.342,
01/01/2000,01:45:44.16,12.44,-79.06,-990.88,122.50,-691.25,-411.25,1,94.346,
01/01/2000,01:45:44.17,12.44,-79.06,-991.01,35.0,-630.0,-297.50,1,94.350,
01/01/2000,01:45:44.18,12.32,-78.93,-990.88,87.50,-752.50,-341.25,1,94.354,
01/01/2000,01:45:44.19,12.20,-78.81,-990.88,358.75,-708.75,-288.75,1,94.358,
01/01/2000,01:45:44.20,12.20,-79.06,-990.88,175.0,-735.0,-420.0,1,94.362,
01/01/2000,01:45:44.21,12.20,-78.81,-990.88,148.75,-735.0,-420.0,1,94.366,
01/01/2000,01:45:44.22,12.20,-78.81,-990.88,43.75,-682.50,-332.50,1,94.370,
01/01/2000,01:45:44.23,12.32,-79.06,-990.88,78.75,-673.75,-472.50,1,94.374,
01/01/2000,01:45:44.24,12.44,-78.81,-990.88,227.50,-647.50,-280.0,1,94.378,
01/01/2000,01:45:44.25,13.30,-78.81,-991.13,148.75,-656.25,-770.0,1,94.316,
01/01/2000,01:45:44.26,15.01,-78.69,-991.62,288.75,-735.0,-1443.75,1,94.320,
01/01/2000,01:45:44.27,17.32,-78.45,-992.35,122.50,-708.75,-1120.0,1,94.324,
01/01/2000,01:45:44.28,19.28,-78.57,-991.74,43.75,-761.25,-866.25,1,94.328,
01/01/2000,01:45:44.29,19.28,-79.54,-990.52,437.50,-840.0,-1461.25,1,94.332,
01/01/2000,01:45:44.30,18.79,-79.54,-990.03,140.0,-927.50,-2896.25,1,94.336,
01/01/2000,01:45:44.32,18.06,-79.06,-991.37,315.0,-796.25,-3745.0,1,94.274,
01/01/2000,01:45:44.33,17.81,-78.32,-992.35,122.50,-857.50,-3727.50,1,94.278,
01/01/2000,01:45:44.34,18.30,-78.45,-992.23,-87.50,-805.0,-4296.25,1,94.282,
01/01/2000,01:45:44.35,18.30,-79.06,-990.88,446.25,-901.25,-5635.0,1,94.286,
01/01/2000,01:45:44.36,18.67,-79.30,-990.03,140.0,-1120.0,-7586.25,1,94.290,
01/01/2000,01:45:44.37,19.52,-79.91,-989.54,245.0,-1286.25,-9537.50,1,94.294,
01/01/2000,01:45:44.38,20.86,-79.54,-989.79,148.75,-1400.0,-12232.50,1,94.298,
01/01/2000,01:45:44.40,23.42,-79.06,-990.76,271.25,-1356.25,-13711.25,1,94.302,
01/01/2000,01:45:44.41,24.40,-78.81,-991.25,210.0,-1452.50,-15487.50,1,94.306,
01/01/2000,01:45:44.42,24.89,-79.06,-991.62,87.50,-1750.0,-20133.75,1,94.310,
01/01/2000,01:45:44.43,23.91,-80.03,-991.37,245.0,-2065.0,-25733.75,1,94.313,
01/01/2000,01:45:44.44,22.69,-80.40,-991.13,122.50,-2415.0,-33538.75,1,94.317,
01/01/2000,01:45:44.45,21.11,-80.52,-990.88,385.0,-2922.50,-41728.75,1,94.321,
01/01/2000,01:45:44.46,18.79,-79.79,-990.76,411.25,-2843.75,-42157.50,1,94.325,
01/01/2000,01:45:44.47,17.69,-78.93,-990.88,210.0,-2266.25,-31430.0,1,94.329,
01/01/2000,01:45:44.48,17.32,-78.20,-991.01,17.50,-1610.0,-18200.0,1,94.333,
01/01/2000,01:45:44.49,18.06,-77.71,-990.88,78.75,-927.50,-5267.50,1,94.337,
01/01/2000,01:45:44.50,19.28,-77.59,-989.91,140.0,-883.75,-4471.25,1,94.341,
01/01/2000,01:45:44.51,20.50,-78.32,-989.42,210.0,-1295.0,-8452.50,1,94.345,
01/01/2000,01:45:44.52,20.37,-79.18,-989.66,262.50,-1531.25,-15330.0,1,94.349,
01/01/2000,01:45:44.53,19.40,-80.03,-990.88,175.0,-1977.50,-25838.75,1,94.353,
01/01/2000,01:45:44.54,17.20,-80.28,-991.74,96.25,-2240.0,-31298.75,1,94.357,
01/01/2000,01:45:44.55,15.62,-79.30,-992.23,122.50,-2388.75,-34606.25,1,94.360,
01/01/2000,01:45:44.56,14.64,-78.81,-991.86,306.25,-2415.0,-35148.75,1,94.364,
01/01/2000,01:45:44.57,14.40,-78.32,-991.13,131.25,-2353.75,-33468.75,1,94.368,
01/01/2000,01:45:44.58,14.88,-78.81,-990.03,271.25,-2283.75,-31447.50,1,94.372,
01/01/2000,01:45:44.59,15.62,-79.30,-989.91,70.0,-2161.25,-28367.50,1,94.376,
01/01/2000,01:45:44.60,15.86,-79.79,-990.15,157.50,-1872.50,-22338.75,1,94.380,
01/01/2000,01:45:44.61,15.13,-79.54,-990.88,280.0,-1697.50,-19048.75,1,94.384,
01/01/2000,01:45:44.62,14.15,-78.93,-991.62,183.75,-1697.50,-17237.50,1,94.387,
01/01/2000,01:45:44.63,12.93,-78.32,-991.86,8.75,-1531.25,-17132.50,1,94.391,
01/01/2000,01:45:44.64,11.59,-78.32,-991.74,218.75,-1715.0,-19643.75,1,94.331,
01/01/2000,01:45:44.65,10.74,-79.06,-991.01,218.75,-1741.25,-22426.25,1,94.399,
01/01/2000,01:45:44.67,11.22,-79.79,-990.03,131.25,-2021.25,-26591.25,1,94.338,
01/01/2000,01:45:44.68,11.96,-79.91,-989.91,271.25,-2108.75,-28271.25,1,94.342,
01/01/2000,01:45:44.69,13.18,-79.30,-990.40,253.75,-2257.50,-28945.0,1,94.346,
01/01/2000,01:45:44.70,14.03,-79.06,-991.01,262.50,-2301.25,-27475.0,1,94.350,
01/01/2000,01:45:44.71,14.52,-78.20,-991.98,131.25,-1881.25,-25296.25,1,94.354,
01/01/2000,01:45:44.72,14.15,-78.45,-992.23,201.25,-1863.75,-23135.0,1,94.358,
01/01/2000,01:45:44.73,13.42,-78.57,-991.86,148.75,-1785.0,-21402.50,1,94.361,
01/01/2000,01:45:44.74,12.69,-78.93,-991.13,43.75,-1767.50,-21376.25,1,94.365,
01/01/2000,01:45:44.75,12.44,-78.69,-990.64,245.0,-1951.25,-23380.0,1,94.369,
01/01/2000,01:45:44.76,12.93,-78.69,-990.40,96.25,-1995.0,-25208.75,1,94.373,
01/01/2000,01:45:44.77,13.42,-78.93,-990.64,271.25,-2056.25,-26635.0,1,94.377,
01/01/2000,01:45:44.78,13.42,-79.06,-991.01,96.25,-2030.0,-27510.0,1,94.381,
01/01/2000,01:45:44.79,13.18,-78.93,-991.37,-78.75,-2108.75,-26923.75,1,94.320,
01/01/2000,01:45:44.80,12.81,-79.18,-991.13,166.25,-2030.0,-25786.25,1,94.324,
01/01/2000,01:45:44.81,12.08,-79.06,-990.88,192.50,-1916.25,-24850.0,1,94.328,
01/01/2000,01:45:44.82,11.10,-78.93,-990.64,43.75,-2030.0,-24806.25,1,94.332,
01/01/2000,01:45:44.84,10.74,-79.06,-990.64,148.75,-2012.50,-26670.0,1,94.336,
01/01/2000,01:45:44.85,11.10,-79.06,-990.88,175.0,-2021.25,-28297.50,1,94.340,
01/01/2000,01:45:44.86,11.96,-78.93,-990.88,210.0,-2065.0,-27965.0,1,94.343,
01/01/2000,01:45:44.87,12.93,-79.06,-990.88,262.50,-2012.50,-25095.0,1,94.347,
01/01/2000,01:45:44.88,13.30,-78.81,-991.25,183.75,-1706.25,-17657.50,1,94.351,
01/01/2000,01:45:44.89,13.91,-78.81,-991.62,96.25,-1435.0,-15207.50,1,94.291,
01/01/2000,01:45:44.90,13.42,-78.32,-991.37,35.0,-1461.25,-15330.0,1,94.359,
01/01/2000,01:45:44.91,12.93,-78.45,-991.25,183.75,-1601.25,-17701.25,1,94.299,
01/01/2000,01:45:44.92,12.57,-78.93,-991.37,192.50,-1767.50,-21420.0,1,94.303,
01/01/2000,01:45:44.93,11.96,-79.30,-991.13,43.75,-2047.50,-26923.75,1,94.307,
01/01/2000,01:45:44.94,11.83,-79.54,-991.25,157.50,-2135.0,-29592.50,1,94.311,
01/01/2000,01:45:44.95,12.44,-79.54,-991.13,262.50,-2248.75,-31272.50,1,94.314,
01/01/2000,01:45:44.96,12.93,-79.30,-991.25,236.25,-2275.0,-30668.75,1,94.318,
01/01/2000,01:45:44.97,13.54,-78.69,-991.13,332.50,-2126.25,-28752.50,1,94.322,
01/01/2000,01:45:44.98,13.66,-78.69,-991.25,262.50,-1995.0,-26110.0,1,94.326,
01/01/2000,01:45:44.99,13.42,-78.69,-991.37,-43.75,-1951.25,-23537.50,1,94.330,
01/01/2000,01:45:45.01,12.20,-79.18,-991.62,183.75,-1741.25,-20947.50,1,94.333,
01/01/2000,01:45:45.02,11.47,-79.18,-991.25,96.25,-1767.50,-20588.75,1,94.337,
01/01/2000,01:45:45.03,10.74,-79.30,-990.88,157.50,-1732.50,-21446.25,1,94.341,
01/01/2000,01:45:45.04,10.49,-78.81,-990.76,288.75,-1820.0,-23887.50,1,94.345,
01/01/2000,01:45:45.05,11.22,-78.69,-990.88,236.25,-1977.50,-25646.25,1,94.348,
01/01/2000,01:45:45.06,12.20,-78.81,-990.88,201.25,-2108.75,-26993.75,1,94.352,
01/01/2000,01:45:45.07,13.30,-78.93,-991.13,262.50,-2170.0,-27440.0,1,94.356,
01/01/2000,01:45:45.08,13.91,-79.06,-991.25,227.50,-2178.75,-26617.50,1,94.360,
01/01/2000,01:45:45.09,14.03,-78.69,-991.25,140.0,-2047.50,-24570.0,1,94.363,
01/01/2000,01:45:45.10,13.79,-78.08,-991.37,131.25,-1890.0,-23423.75,1,94.367,
01/01/2000,01:45:45.11,13.05,-78.08,-991.25,245.0,-1863.75,-22566.25,1,94.371,
01/01/2000,01:45:45.12,12.44,-78.45,-991.37,113.75,-1960.0,-21848.75,1,94.375,
01/01/2000,01:45:45.13,11.96,-79.06,-991.37,236.25,-1802.50,-22408.75,1,94.316,
01/01/2000,01:45:45.14,12.08,-79.30,-991.13,218.75,-1942.50,-24255.0,1,94.320,
01/01/2000,01:45:45.15,12.44,-78.57,-991.37,105.0,-2012.50,-25278.75,1,94.323,
01/01/2000,01:45:45.17,13.30,-78.57,-991.01,227.50,-1942.50,-25847.50,1,94.327,
01/01/2000,01:45:45.18,13.18,-78.81,-990.88,306.25,-2021.25,-25873.75,1,94.331,
01/01/2000,01:45:45.19,12.93,-78.81,-991.37,105.0,-1951.25,-25453.75,1,94.335,
01/01/2000,01:45:45.20,12.44,-79.06,-991.62,140.0,-2021.25,-24368.75,1,94.338,
01/01/2000,01:45:45.21,11.59,-79.06,-991.62,218.75,-1741.25,-23266.25,1,94.342,
01/01/2000,01:45:45.22,10.74,-78.69,-991.13,376.25,-1855.0,-23030.0,1,94.346,
01/01/2000,01:45:45.23,10.98,-78.81,-991.25,-70.0,-1898.75,-23563.75,1,94.350,
01/01/2000,01:45:45.24,11.47,-78.93,-991.62,122.50,-1960.0,-24473.75,1,94.353,
01/01/2000,01:45:45.25,12.20,-79.18,-991.62,253.75,-2152.50,-25935.0,1,94.357,
01/01/2000,01:45:45.26,13.18,-79.06,-991.62,385.0,-1995.0,-26617.50,1,94.361,
01/01/2000,01:45:45.27,13.79,-78.81,-991.49,323.75,-2100.0,-26083.75,1,94.303,
01/01/2000,01:45:45.28,13.42,-78.45,-991.62,227.50,-1933.75,-24281.25,1,94.306,
01/01/2000,01:45:45.29,12.81,-78.57,-991.49,402.50,-2012.50,-22417.50,1,94.310,
01/01/2000,01:45:45.30,11.71,-79.06,-991.62,393.75,-1776.25,-19197.50,1,94.314,
01/01/2000,01:45:45.31,10.37,-79.67,-991.86,262.50,-1601.25,-17246.25,1,94.317,
01/01/2000,01:45:45.32,7.69,-80.64,-991.62,306.25,-1478.75,-15837.50,1,94.321,
01/01/2000,01:45:45.34,4.88,-81.37,-991.13,210.0,-1400.0,-15382.50,1,94.263,
01/01/2000,01:45:45.35,4.88,-81.25,-991.37,306.25,-1505.0,-17053.75,1,94.267,
01/01/2000,01:45:45.36,5.49,-81.25,-991.49,245.0,-1662.50,-20658.75,1,94.271,
01/01/2000,01:45:45.37,6.95,-80.89,-991.01,148.75,-1846.25,-24167.50,1,94.275,
01/01/2000,01:45:45.38,8.05,-81.25,-991.01,280.0,-2178.75,-27860.0,1,94.278,
01/01/2000,01:45:45.39,8.30,-81.13,-990.88,43.75,-2336.25,-29347.50,1,94.282,
01/01/2000,01:45:45.40,8.05,-81.50,-991.01,367.50,-1802.50,-20781.25,1,94.286,
01/01/2000,01:45:45.42,5.73,-81.37,-991.37,70.0,-1137.50,-9756.25,1,94.289,
01/01/2000,01:45:45.43,3.66,-81.74,-991.37,105.0,-708.75,201.25,1,94.293,
01/01/2000,01:45:45.44,1.71,-82.35,-991.62,113.75,-542.50,1855.0,1,94.297,
01/01/2000,01:45:45.45,0.0,-83.69,-991.62,70.0,-778.75,-2082.50,1,94.301,
01/01/2000,01:45:45.46,-0.73,-84.06,-991.49,96.25,-743.75,-3010.0,1,94.304,
01/01/2000,01:45:45.47,0.0,-83.94,-991.37,420.0,-638.75,-1767.50,1,94.308,
01/01/2000,01:45:45.48,1.46,-83.20,-991.37,288.75,-630.0,-1058.75,1,94.312,
01/01/2000,01:45:45.49,4.39,-82.11,-991.37,227.50,-787.50,-2213.75,1,94.315,
01/01/2000,01:45:45.50,6.59,-81.01,-991.49,166.25,-910.0,-2878.75,1,94.319,
01/01/2000,01:45:45.51,8.17,-80.76,-991.37,218.75,-848.75,-3246.25,1,94.323,
01/01/2000,01:45:45.52,8.17,-80.76,-991.25,236.25,-901.25,-3062.50,1,94.326,
01/01/2000,01:45:45.53,7.81,-81.01,-991.62,87.50,-927.50,-2808.75,1,94.330,
01/01/2000,01:45:45.54,6.34,-81.86,-991.62,227.50,-831.25,-2222.50,1,94.334,
01/01/2000,01:45:45.55,4.88,-81.74,-991.86,140.0,-612.50,-2082.50,1,94.337,
01/01/2000,01:45:45.56,5.12,-81.01,-992.10,218.75,-708.75,-2695.0,1,94.341,
01/01/2000,01:45:45.57,6.59,-80.03,-992.35,306.25,-673.75,-2800.0,1,94.344,
01/01/2000,01:45:45.58,8.78,-79.54,-991.98,166.25,-726.25,-2327.50,1,94.348,
01/01/2000,01:45:45.59,10.98,-79.79,-990.64,175.0,-883.75,-1522.50,1,94.352,
01/01/2000,01:45:45.60,11.35,-80.52,-990.27,113.75,-831.25,-700.0,1,94.355,
01/01/2000,01:45:45.61,11.47,-80.89,-990.76,297.50,-665.0,-498.75,1,94.359,
01/01/2000,01:45:45.62,10.61,-79.79,-992.23,87.50,-630.0,-420.0,1,94.302,
01/01/2000,01:45:45.63,10.25,-78.69,-992.59,175.0,-568.75,-411.25,1,94.306,
01/01/2000,01:45:45.65,10.00,-78.08,-991.62,148.75,-638.75,-463.75,1,94.309,
01/01/2000,01:45:45.65,10.61,-78.45,-991.01,122.50,-691.25,-621.25,1,94.313,
01/01/2000,01:45:45.67,11.59,-79.54,-990.88,210.0,-778.75,-761.25,1,94.317,
01/01/2000,01:45:45.68,12.44,-79.91,-991.13,26.25,-682.50,-682.50,1,94.320,
01/01/2000,01:45:45.69,12.69,-80.03,-991.62,131.25,-761.25,-735.0,1,94.324,
01/01/2000,01:45:45.70,11.96,-79.06,-991.62,87.50,-700.0,-306.25,1,94.328,
01/01/2000,01:45:45.71,11.22,-77.96,-991.25,236.25,-656.25,-385.0,1,94.331,
01/01/2000,01:45:45.72,11.22,-77.96,-991.25,70.0,-708.75,-437.50,1,94.335,
01/01/2000,01:45:45.73,11.59,-78.32,-991.62,61.25,-735.0,-455.0,1,94.338,
01/01/2000,01:45:45.74,12.32,-79.18,-991.74,262.50,-630.0,-385.0,1,94.342,
01/01/2000,01:45:45.75,12.69,-79.67,-991.37,218.75,-603.75,-533.75,1,94.346,
01/01/2000,01:45:45.76,12.81,-79.30,-991.01,218.75,-691.25,-481.25,1,94.289,
01/01/2000,01:45:45.77,12.44,-78.32,-991.13,61.25,-717.50,-428.75,1,94.293,
01/01/2000,01:45:45.78,12.20,-78.08,-991.74,192.50,-647.50,-306.25,1,94.297,
01/01/2000,01:45:45.79,11.96,-78.08,-992.23,227.50,-717.50,-315.0,1,94.300,
01/01/2000,01:45:45.80,11.96,-78.69,-992.23,262.50,-621.25,-498.75,1,94.304,
01/01/2000,01:45:45.81,12.20,-79.18,-991.62,131.25,-770.0,-297.50,1,94.307,
01/01/2000,01:45:45.82,12.44,-79.06,-991.37,323.75,-691.25,-577.50,1,94.311,
01/01/2000,01:45:45.84,13.05,-78.81,-991.37,332.50,-647.50,-271.25,1,94.315,
01/01/2000,01:45:45.85,12.69,-78.57,-991.62,52.50,-665.0,-122.50,1,94.318,
01/01/2000,01:45:45.86,12.32,-78.57,-991.74,-8.75,-586.25,113.75,1,94.322,
01/01/2000,01:45:45.87,10.49,-79.54,-991.37,332.50,-665.0,306.25,1,94.325,
01/01/2000,01:45:45.88,9.76,-80.15,-991.25,26.25,-691.25,315.0,1,94.270,
01/01/2000,01:45:45.89,9.15,-80.64,-991.25,376.25,-682.50,315.0,1,94.273,
01/01/2000,01:45:45.90,8.54,-80.28,-991.49,-26.25,-700.0,1251.25,1,94.277,
01/01/2000,01:45:45.91,7.81,-80.40,-991.74,78.75,-516.25,2248.75,1,94.280,
01/01/2000,01:45:45.92,7.44,-80.76,-991.37,105.0,-411.25,2756.25,1,94.284,
01/01/2000,01:45:45.93,6.59,-81.50,-991.01,358.75,-516.25,2948.75,1,94.288,
01/01/2000,01:45:45.94,5.86,-81.74,-990.76,96.25,-560.0,3622.50,1,94.291,
01/01/2000,01:45:45.95,5.25,-82.11,-991.13,455.0,-490.0,4515.0,1,94.295,
01/01/2000,01:45:45.96,5.12,-81.62,-991.62,8.75,-315.0,5635.0,1,94.298,
01/01/2000,01:45:45.97,5.00,-81.50,-991.62,17.50,-332.50,6991.25,1,94.302,
01/01/2000,01:45:45.98,4.88,-81.50,-991.13,70.0,-148.75,9528.75,1,94.305,
01/01/2000,01:45:45.99,3.78,-82.35,-990.15,175.0,-175.0,11016.25,1,94.309,
01/01/2000,01:45:46.00,2.56,-83.69,-990.15,376.25,-157.50,12013.75,1,94.313,
01/01/2000,01:45:46.02,1.34,-84.18,-990.40,148.75,26.25,13790.0,1,94.316,
01/01/2000,01:45:46.02,0.24,-84.18,-991.01,498.75,428.75,20413.75,1,94.320,
01/01/2000,01:45:46.04,0.24,-82.84,-993.32,210.0,892.50,27991.25,1,94.323,
01/01/2000,01:45:46.05,1.46,-81.74,-994.30,-78.75,1435.0,37642.50,1,94.327,
01/01/2000,01:45:46.06,3.66,-80.76,-994.18,140.0,1881.25,44747.50,1,94.330,
01/01/2000,01:45:46.07,6.10,-80.03,-993.08,-8.75,1216.25,35822.50,1,94.334,
01/01/2000,01:45:46.08,9.52,-80.76,-991.13,35.0,332.50,20667.50,1,94.337,
01/01/2000,01:45:46.09,10.13,-81.98,-990.15,218.75,-428.75,8128.75,1,94.341,
01/01/2000,01:45:46.10,9.27,-82.96,-990.03,288.75,-630.0,2345.0,1,94.344,
01/01/2000,01:45:46.11,7.20,-82.84,-990.52,323.75,-323.75,6833.75,1,94.348,
01/01/2000,01:45:46.12,4.39,-81.62,-992.23,-26.25,332.50,17605.0,1,94.351,
01/01/2000,01:45:46.13,3.42,-80.28,-993.08,201.25,796.25,23607.50,1,94.355,
01/01/2000,01:45:46.14,5.12,-79.42,-992.71,-17.50,840.0,27641.25,1,94.358,
01/01/2000,01:45:46.15,7.44,-79.30,-992.10,105.0,1015.0,30231.25,1,94.362,
01/01/2000,01:45:46.16,10.25,-79.67,-991.01,113.75,918.75,31010.0,1,94.365,
01/01/2000,01:45:46.17,12.44,-80.03,-990.40,210.0,752.50,29347.50,1,94.369,
01/01/2000,01:45:46.18,13.54,-80.03,-990.64,113.75,551.25,25838.75,1,94.314,
01/01/2000,01:45:46.19,11.71,-79.30,-991.37,140.0,542.50,23992.50,1,94.317,
01/01/2000,01:45:46.20,10.13,-78.69,-992.10,70.0,603.75,22776.25,1,94.321,
01/01/2000,01:45:46.21,8.54,-78.81,-992.35,166.25,525.0,22548.75,1,94.324,
01/01/2000,01:45:46.22,7.81,-78.81,-992.10,8.75,446.25,23091.25,1,94.328,
01/01/2000,01:45:46.23,8.42,-79.91,-991.49,183.75,656.25,23231.25,1,94.331,
01/01/2000,01:45:46.24,10.13,-80.28,-990.64,113.75,533.75,23651.25,1,94.335,
01/01/2000,01:45:46.26,11.96,-79.67,-990.03,122.50,603.75,24001.25,1,94.338,
01/01/2000,01:45:46.27,13.05,-79.06,-990.27,35.0,551.25,24220.0,1,94.342,
01/01/2000,01:45:46.28,13.18,-78.08,-990.88,148.75,455.0,24517.50,1,94.345,
01/01/2000,01:45:46.29,12.69,-78.08,-991.37,166.25,673.75,25331.25,1,94.349,
01/01/2000,01:45:46.30,11.71,-78.93,-991.86,210.0,743.75,25628.75,1,94.352,
01/01/2000,01:45:46.31,10.74,-79.18,-991.98,70.0,595.0,25497.50,1,94.356,
01/01/2000,01:45:46.32,10.74,-79.42,-991.98,306.25,560.0,24727.50,1,94.359,
01/01/2000,01:45:46.33,11.96,-78.81,-991.86,157.50,665.0,22391.25,1,94.363,
01/01/2000,01:45:46.34,13.05,-78.32,-991.62,218.75,455.0,21227.50,1,94.308,
01/01/2000,01:45:46.35,13.91,-78.32,-991.37,26.25,455.0,21236.25,1,94.312,
01/01/2000,01:45:46.37,14.40,-78.81,-991.62,236.25,385.0,23065.0,1,94.315,
01/01/2000,01:45:46.38,13.66,-78.81,-991.62,-35.0,533.75,24543.75,1,94.319,
01/01/2000,01:45:46.39,12.93,-78.81,-991.37,96.25,673.75,25567.50,1,94.322,
01/01/2000,01:45:46.40,11.71,-78.81,-991.13,122.50,752.50,26355.0,1,94.326,
01/01/2000,01:45:46.41,10.61,-78.69,-991.25,131.25,717.50,26232.50,1,94.329,
01/01/2000,01:45:46.42,10.74,-78.81,-991.25,157.50,612.50,25252.50,1,94.333,
01/01/2000,01:45:46.43,11.10,-78.93,-991.13,87.50,411.25,23380.0,1,94.336,
01/01/2000,01:45:46.44,12.08,-79.18,-991.01,-78.75,437.50,21822.50,1,94.340,
01/01/2000,01:45:46.45,12.69,-79.42,-990.88,315.0,463.75,21140.0,1,94.343,
01/01/2000,01:45:46.46,12.81,-78.93,-991.25,157.50,288.75,21420.0,1,94.347,
01/01/2000,01:45:46.47,12.57,-78.81,-991.37,43.75,551.25,22653.75,1,94.350,
01/01/2000,01:45:46.48,11.35,-78.69,-991.13,323.75,612.50,23686.25,1,94.353,
01/01/2000,01:45:46.49,10.61,-78.57,-991.13,113.75,568.75,24648.75,1,94.357,
01/01/2000,01:45:46.50,10.37,-78.57,-991.13,201.25,673.75,25138.75,1,94.360,
01/01/2000,01:45:46.51,10.49,-78.81,-991.13,358.75,586.25,24386.25,1,94.364,
01/01/2000,01:45:46.52,11.71,-78.93,-991.37,-105.0,481.25,23336.25,1,94.367,
01/01/2000,01:45:46.53,13.18,-78.81,-991.62,201.25,656.25,23222.50,1,94.370,
01/01/2000,01:45:46.54,14.15,-78.45,-991.49,113.75,533.75,25042.50,1,94.374,
01/01/2000,01:45:46.55,14.40,-78.32,-991.49,262.50,595.0,26932.50,1,94.320,
01/01/2000,01:45:46.56,13.91,-78.69,-991.25,26.25,770.0,28367.50,1,94.324,
01/01/2000,01:45:46.57,12.93,-79.06,-991.13,157.50,822.50,28306.25,1,94.327,
01/01/2000,01:45:46.58,11.71,-78.93,-991.25,227.50,595.0,24176.25,1,94.331,
01/01/2000,01:45:46.59,10.98,-78.81,-991.37,148.75,446.25,20238.75,1,94.334,
01/01/2000,01:45:46.61,10.86,-78.93,-991.13,148.75,262.50,16030.0,1,94.337,
01/01/2000,01:45:46.62,11.47,-79.18,-990.88,166.25,61.25,15610.0,1,94.341,
01/01/2000,01:45:46.63,12.20,-79.30,-990.64,341.25,227.50,16975.0,1,94.344,
01/01/2000,01:45:46.64,12.93,-79.30,-990.88,210.0,350.0,19993.75,1,94.348,
01/01/2000,01:45:46.65,13.18,-78.93,-991.13,61.25,516.25,25322.50,1,94.351,
01/01/2000,01:45:46.66,12.57,-78.45,-991.13,245.0,691.25,28157.50,1,94.354,
01/01/2000,01:45:46.67,11.96,-78.20,-991.37,26.25,735.0,29872.50,1,94.358,
01/01/2000,01:45:46.68,11.47,-78.20,-991.37,157.50,848.75,29627.50,1,94.361,
01/01/2000,01:45:46.69,11.22,-78.69,-991.25,183.75,822.50,27562.50,1,94.365,
