rtcDate,rtcTime,aX,aY,aZ,gX,gY,gZ,dataRdy,output_Hz,
01/01/2000,00:40:57.00,21.96,-55.51,-992.23,113.75,-708.75,-358.75,1,94.467,
01/01/2000,00:40:57.01,22.08,-55.63,-992.10,8.75,-647.50,-393.75,1,94.469,
01/01/2000,00:40:57.02,21.96,-55.63,-992.10,218.75,-700.0,-288.75,1,94.470,
01/01/2000,00:40:57.03,21.96,-55.39,-992.10,227.50,-726.25,-280.0,1,94.472,
01/01/2000,00:40:57.04,22.20,-55.39,-992.10,227.50,-595.0,-428.75,1,94.473,
01/01/2000,00:40:57.05,22.08,-55.27,-991.86,105.0,-761.25,-148.75,1,94.474,
01/01/2000,00:40:57.06,22.20,-55.27,-991.86,166.25,-638.75,-393.75,1,94.476,
01/01/2000,00:40:57.07,22.33,-55.39,-991.86,131.25,-673.75,-253.75,1,94.477,
01/01/2000,00:40:57.08,22.45,-55.39,-991.86,183.75,-682.50,-358.75,1,94.479,
01/01/2000,00:40:57.09,22.20,-55.27,-991.86,131.25,-700.0,-280.0,1,94.480,
01/01/2000,00:40:57.10,22.20,-55.14,-991.86,183.75,-700.0,-463.75,1,94.482,
01/01/2000,00:40:57.11,22.20,-55.02,-991.98,148.75,-612.50,-393.75,1,94.483,
01/01/2000,00:40:57.12,22.20,-55.02,-991.98,157.50,-708.75,-376.25,1,94.484,
01/01/2000,00:40:57.13,22.08,-54.90,-992.10,157.50,-770.0,-446.25,1,94.486,
01/01/2000,00:40:57.14,21.96,-55.14,-991.98,131.25,-743.75,-411.25,1,94.487,
01/01/2000,00:40:57.15,21.96,-55.14,-991.86,262.50,-691.25,-332.50,1,94.489,
01/01/2000,00:40:57.16,22.20,-55.14,-991.98,61.25,-647.50,-358.75,1,94.490,
01/01/2000,00:40:57.17,22.20,-55.14,-992.10,218.75,-665.0,-288.75,1,94.491,
01/01/2000,00:40:57.18,22.33,-55.02,-992.10,105.0,-665.0,-402.50,1,94.469,
01/01/2000,00:40:57.19,22.20,-55.14,-991.98,297.50,-682.50,-297.50,1,94.470,
01/01/2000,00:40:57.20,22.20,-55.02,-991.86,183.75,-735.0,-297.50,1,94.471,
01/01/2000,00:40:57.21,22.08,-55.14,-991.98,218.75,-630.0,-498.75,1,94.473,
01/01/2000,00:40:57.23,22.20,-55.27,-992.10,78.75,-717.50,-297.50,1,94.474,
01/01/2000,00:40:57.23,22.20,-55.14,-992.10,131.25,-796.25,-297.50,1,94.476,
01/01/2000,00:40:57.25,22.08,-54.90,-992.10,35.0,-656.25,-262.50,1,94.477,
01/01/2000,00:40:57.26,21.96,-55.14,-992.10,192.50,-708.75,-341.25,1,94.479,
01/01/2000,00:40:57.27,21.96,-55.27,-992.10,262.50,-682.50,-367.50,1,94.480,
01/01/2000,00:40:57.28,21.96,-55.27,-991.98,245.0,-638.75,-420.0,1,94.481,
01/01/2000,00:40:57.29,21.96,-55.27,-991.86,131.25,-735.0,-332.50,1,94.483,
01/01/2000,00:40:57.30,21.96,-55.27,-991.98,192.50,-673.75,-402.50,1,94.484,
01/01/2000,00:40:57.31,22.20,-55.14,-992.10,113.75,-647.50,-323.75,1,94.486,
01/01/2000,00:40:57.32,22.20,-55.27,-992.35,17.50,-595.0,-332.50,1,94.487,
01/01/2000,00:40:57.33,21.96,-55.39,-992.23,218.75,-603.75,-315.0,1,94.464,
01/01/2000,00:40:57.34,21.96,-55.39,-992.10,122.50,-752.50,-385.0,1,94.466,
01/01/2000,00:40:57.35,22.08,-55.39,-992.10,148.75,-603.75,-236.25,1,94.467,
01/01/2000,00:40:57.36,21.96,-55.27,-992.23,201.25,-708.75,-288.75,1,94.469,
01/01/2000,00:40:57.37,21.96,-55.14,-992.23,140.0,-778.75,-192.50,1,94.470,
01/01/2000,00:40:57.38,21.96,-55.39,-992.23,201.25,-630.0,-367.50,1,94.471,
01/01/2000,00:40:57.40,21.96,-55.39,-992.35,306.25,-726.25,-420.0,1,94.473,
01/01/2000,00:40:57.41,22.20,-55.39,-992.35,253.75,-560.0,-341.25,1,94.474,
01/01/2000,00:40:57.42,22.20,-55.39,-992.47,166.25,-682.50,-297.50,1,94.476,
01/01/2000,00:40:57.43,22.20,-55.27,-992.35,131.25,-708.75,-288.75,1,94.477,
01/01/2000,00:40:57.44,22.08,-55.39,-992.10,227.50,-726.25,-332.50,1,94.478,
01/01/2000,00:40:57.45,21.96,-55.27,-992.10,227.50,-612.50,-201.25,1,94.480,
01/01/2000,00:40:57.46,22.08,-55.51,-992.35,140.0,-708.75,-315.0,1,94.457,
01/01/2000,00:40:57.48,22.08,-55.39,-992.23,183.75,-647.50,-280.0,1,94.459,
01/01/2000,00:40:57.49,21.96,-55.39,-992.10,210.0,-743.75,-376.25,1,94.460,
01/01/2000,00:40:57.50,21.96,-55.39,-991.98,262.50,-717.50,-297.50,1,94.461,
01/01/2000,00:40:57.51,21.96,-55.39,-992.10,87.50,-621.25,-306.25,1,94.463,
01/01/2000,00:40:57.52,21.96,-55.39,-992.10,148.75,-656.25,-288.75,1,94.464,
01/01/2000,00:40:57.53,21.96,-55.39,-991.98,175.0,-770.0,-350.0,1,94.466,
01/01/2000,00:40:57.54,21.96,-55.27,-991.86,175.0,-656.25,-306.25,1,94.467,
01/01/2000,00:40:57.55,21.96,-55.14,-991.86,201.25,-673.75,-358.75,1,94.468,
01/01/2000,00:40:57.56,21.96,-55.14,-991.86,-26.25,-656.25,-236.25,1,94.470,
01/01/2000,00:40:57.57,21.96,-55.14,-991.98,166.25,-770.0,-393.75,1,94.471,
01/01/2000,00:40:57.58,21.84,-55.27,-991.86,166.25,-735.0,-367.50,1,94.473,
01/01/2000,00:40:57.59,21.84,-55.14,-991.62,148.75,-708.75,-367.50,1,94.474,
01/01/2000,00:40:57.60,21.96,-55.02,-991.62,227.50,-603.75,-358.75,1,94.475,
01/01/2000,00:40:57.61,22.08,-54.90,-991.98,166.25,-735.0,-227.50,1,94.477,
01/01/2000,00:40:57.62,21.96,-54.90,-991.98,61.25,-726.25,-306.25,1,94.478,
01/01/2000,00:40:57.63,21.84,-55.14,-992.10,140.0,-595.0,-297.50,1,94.480,
01/01/2000,00:40:57.64,21.96,-55.27,-992.23,140.0,-665.0,-297.50,1,94.481,
01/01/2000,00:40:57.65,21.96,-55.14,-992.35,192.50,-656.25,-341.25,1,94.482,
01/01/2000,00:40:57.66,22.08,-55.14,-992.35,105.0,-726.25,-323.75,1,94.484,
01/01/2000,00:40:57.67,22.08,-55.27,-992.35,78.75,-638.75,-341.25,1,94.485,
01/01/2000,00:40:57.69,21.96,-55.27,-992.10,140.0,-691.25,-323.75,1,94.463,
01/01/2000,00:40:57.69,21.96,-55.27,-992.10,218.75,-700.0,-367.50,1,94.464,
01/01/2000,00:40:57.71,21.96,-55.27,-992.23,218.75,-647.50,-315.0,1,94.466,
01/01/2000,00:40:57.71,21.96,-55.14,-992.23,157.50,-647.50,-411.25,1,94.467,
01/01/2000,00:40:57.73,21.96,-55.02,-992.10,43.75,-831.25,-262.50,1,94.468,
01/01/2000,00:40:57.74,21.96,-55.14,-991.98,87.50,-682.50,-358.75,1,94.470,
01/01/2000,00:40:57.75,22.33,-55.14,-992.10,52.50,-682.50,-210.0,1,94.471,
01/01/2000,00:40:57.76,22.33,-55.39,-992.35,70.0,-743.75,-393.75,1,94.472,
01/01/2000,00:40:57.77,22.20,-55.39,-992.35,192.50,-673.75,-262.50,1,94.474,
01/01/2000,00:40:57.78,22.08,-55.14,-992.35,210.0,-638.75,-420.0,1,94.475,
01/01/2000,00:40:57.79,22.08,-55.14,-992.23,271.25,-630.0,-315.0,1,94.477,
01/01/2000,00:40:57.80,22.20,-55.14,-992.35,113.75,-743.75,-341.25,1,94.478,
01/01/2000,00:40:57.81,22.20,-55.14,-992.47,157.50,-726.25,-323.75,1,94.479,
01/01/2000,00:40:57.82,21.96,-55.39,-992.47,131.25,-656.25,-437.50,1,94.457,
01/01/2000,00:40:57.83,21.96,-55.39,-992.59,-26.25,-752.50,-490.0,1,94.458,
01/01/2000,00:40:57.84,21.96,-55.39,-992.59,201.25,-761.25,-350.0,1,94.460,
01/01/2000,00:40:57.85,21.96,-55.14,-992.59,113.75,-673.75,-315.0,1,94.461,
01/01/2000,00:40:57.86,22.08,-55.14,-992.59,140.0,-577.50,-297.50,1,94.463,
01/01/2000,00:40:57.87,21.96,-55.14,-992.35,157.50,-726.25,-428.75,1,94.464,
01/01/2000,00:40:57.88,21.96,-55.27,-992.35,35.0,-708.75,-350.0,1,94.465,
01/01/2000,00:40:57.90,21.96,-55.39,-992.47,70.0,-673.75,-402.50,1,94.467,
01/01/2000,00:40:57.91,21.96,-55.14,-992.59,157.50,-621.25,-428.75,1,94.468,
01/01/2000,00:40:57.92,22.08,-55.14,-992.59,227.50,-612.50,-323.75,1,94.470,
01/01/2000,00:40:57.93,21.96,-55.14,-992.35,166.25,-656.25,-341.25,1,94.471,
01/01/2000,00:40:57.94,21.96,-55.39,-992.35,253.75,-752.50,-393.75,1,94.472,
01/01/2000,00:40:57.95,22.08,-55.39,-992.47,70.0,-647.50,-323.75,1,94.474,
01/01/2000,00:40:57.96,22.08,-55.27,-992.35,105.0,-708.75,-306.25,1,94.475,
01/01/2000,00:40:57.97,22.20,-55.27,-992.10,157.50,-717.50,-385.0,1,94.453,
01/01/2000,00:40:57.99,22.20,-55.27,-992.23,280.0,-770.0,-376.25,1,94.454,
01/01/2000,00:40:58.00,22.20,-55.27,-992.35,157.50,-708.75,-323.75,1,94.456,
01/01/2000,00:40:58.01,22.33,-55.27,-992.59,183.75,-665.0,-367.50,1,94.457,
01/01/2000,00:40:58.02,22.33,-55.39,-992.47,166.25,-761.25,-411.25,1,94.458,
01/01/2000,00:40:58.03,22.20,-55.51,-992.35,105.0,-700.0,-463.75,1,94.460,
01/01/2000,00:40:58.04,22.20,-55.51,-992.23,175.0,-647.50,-271.25,1,94.461,
01/01/2000,00:40:58.05,22.33,-55.39,-992.59,236.25,-813.75,-402.50,1,94.463,
01/01/2000,00:40:58.06,22.33,-55.27,-992.71,166.25,-603.75,-218.75,1,94.464,
01/01/2000,00:40:58.07,22.20,-55.27,-992.71,157.50,-673.75,-341.25,1,94.465,
01/01/2000,00:40:58.08,22.20,-55.27,-992.59,87.50,-761.25,-315.0,1,94.467,
01/01/2000,00:40:58.09,22.08,-55.14,-992.47,78.75,-726.25,-385.0,1,94.468,
01/01/2000,00:40:58.10,22.20,-55.14,-992.35,183.75,-708.75,-376.25,1,94.469,
01/01/2000,00:40:58.11,22.08,-55.14,-992.35,35.0,-691.25,-245.0,1,94.471,
01/01/2000,00:40:58.12,21.96,-55.27,-992.35,148.75,-682.50,-306.25,1,94.472,
01/01/2000,00:40:58.13,22.08,-55.27,-992.35,122.50,-691.25,-341.25,1,94.474,
01/01/2000,00:40:58.14,22.08,-55.14,-992.47,271.25,-656.25,-350.0,1,94.475,
01/01/2000,00:40:58.15,22.20,-55.39,-992.47,166.25,-682.50,-262.50,1,94.476,
01/01/2000,00:40:58.16,22.33,-55.14,-992.47,17.50,-770.0,-428.75,1,94.478,
01/01/2000,00:40:58.17,22.33,-55.27,-991.98,253.75,-586.25,-280.0,1,94.456,
01/01/2000,00:40:58.18,22.20,-55.27,-991.86,122.50,-752.50,-411.25,1,94.457,
01/01/2000,00:40:58.19,21.96,-55.39,-992.10,227.50,-717.50,-332.50,1,94.458,
01/01/2000,00:40:58.20,21.96,-55.39,-992.35,157.50,-682.50,-315.0,1,94.460,
01/01/2000,00:40:58.21,21.96,-55.39,-992.47,236.25,-735.0,-218.75,1,94.461,
01/01/2000,00:40:58.22,21.84,-55.39,-992.10,-26.25,-752.50,-358.75,1,94.462,
01/01/2000,00:40:58.23,21.72,-55.63,-992.10,245.0,-691.25,-315.0,1,94.464,
01/01/2000,00:40:58.25,21.96,-55.63,-992.23,61.25,-682.50,-376.25,1,94.465,
01/01/2000,00:40:58.26,22.20,-55.75,-992.35,245.0,-813.75,-428.75,1,94.467,
01/01/2000,00:40:58.27,22.20,-55.51,-992.35,70.0,-735.0,-280.0,1,94.468,
01/01/2000,00:40:58.28,21.96,-55.51,-992.10,210.0,-717.50,-393.75,1,94.469,
01/01/2000,00:40:58.29,21.96,-55.27,-992.23,43.75,-612.50,-323.75,1,94.471,
01/01/2000,00:40:58.30,22.08,-55.39,-992.35,210.0,-673.75,-420.0,1,94.472,
01/01/2000,00:40:58.31,22.08,-55.39,-992.59,61.25,-621.25,-262.50,1,94.473,
01/01/2000,00:40:58.32,21.96,-55.63,-992.47,201.25,-621.25,-402.50,1,94.475,
01/01/2000,00:40:58.33,22.08,-55.63,-992.23,157.50,-603.75,-306.25,1,94.476,
01/01/2000,00:40:58.34,22.08,-55.51,-992.35,78.75,-603.75,-376.25,1,94.478,
01/01/2000,00:40:58.35,22.20,-55.39,-992.35,166.25,-700.0,-306.25,1,94.479,
01/01/2000,00:40:58.36,22.08,-55.39,-992.35,157.50,-691.25,-332.50,1,94.480,
01/01/2000,00:40:58.37,21.96,-55.39,-992.23,87.50,-691.25,-210.0,1,94.482,
01/01/2000,00:40:58.38,22.08,-55.39,-992.10,140.0,-682.50,-350.0,1,94.460,
01/01/2000,00:40:58.39,22.45,-55.27,-992.23,122.50,-630.0,-210.0,1,94.461,
01/01/2000,00:40:58.40,22.45,-55.39,-992.10,192.50,-770.0,-393.75,1,94.462,
01/01/2000,00:40:58.41,22.20,-55.39,-992.10,183.75,-796.25,-227.50,1,94.464,
01/01/2000,00:40:58.42,22.20,-55.39,-992.10,140.0,-708.75,-332.50,1,94.465,
01/01/2000,00:40:58.43,22.20,-55.27,-992.23,175.0,-735.0,-253.75,1,94.466,
01/01/2000,00:40:58.44,22.20,-55.27,-992.23,236.25,-708.75,-376.25,1,94.468,
01/01/2000,00:40:58.46,22.20,-55.14,-992.10,148.75,-647.50,-288.75,1,94.469,
01/01/2000,00:40:58.47,22.08,-55.27,-992.10,218.75,-682.50,-428.75,1,94.471,
01/01/2000,00:40:58.48,22.20,-55.39,-991.98,113.75,-630.0,-332.50,1,94.472,
01/01/2000,00:40:58.49,22.20,-55.39,-992.10,157.50,-787.50,-437.50,1,94.450,
01/01/2000,00:40:58.50,22.08,-55.39,-992.10,113.75,-857.50,-446.25,1,94.451,
01/01/2000,00:40:58.51,21.96,-55.14,-992.10,210.0,-647.50,-315.0,1,94.453,
01/01/2000,00:40:58.52,21.96,-55.14,-992.23,166.25,-665.0,-341.25,1,94.454,
01/01/2000,00:40:58.53,21.96,-55.14,-992.35,17.50,-665.0,-175.0,1,94.455,
01/01/2000,00:40:58.54,21.96,-55.39,-992.47,210.0,-595.0,-367.50,1,94.457,
01/01/2000,00:40:58.55,21.96,-55.39,-992.35,192.50,-717.50,-271.25,1,94.458,
01/01/2000,00:40:58.56,21.84,-55.39,-992.23,17.50,-761.25,-297.50,1,94.460,
01/01/2000,00:40:58.57,22.20,-55.39,-992.47,350.0,-673.75,-393.75,1,94.461,
01/01/2000,00:40:58.58,22.20,-55.27,-992.59,183.75,-700.0,-376.25,1,94.462,
01/01/2000,00:40:58.60,22.20,-55.27,-992.47,157.50,-612.50,-332.50,1,94.464,
01/01/2000,00:40:58.61,22.08,-55.27,-992.23,183.75,-630.0,-402.50,1,94.465,
01/01/2000,00:40:58.62,22.20,-55.27,-992.10,262.50,-805.0,-201.25,1,94.466,
01/01/2000,00:40:58.63,22.33,-55.39,-992.23,140.0,-717.50,-358.75,1,94.468,
01/01/2000,00:40:58.64,22.33,-55.39,-992.23,201.25,-735.0,-227.50,1,94.469,
01/01/2000,00:40:58.65,22.33,-55.39,-992.23,210.0,-700.0,-358.75,1,94.471,
01/01/2000,00:40:58.66,22.33,-55.39,-992.23,113.75,-673.75,-288.75,1,94.472,
01/01/2000,00:40:58.67,22.20,-55.39,-992.35,157.50,-726.25,-376.25,1,94.473,
01/01/2000,00:40:58.68,22.20,-55.51,-992.23,245.0,-682.50,-428.75,1,94.475,
01/01/2000,00:40:58.69,22.20,-55.39,-992.10,192.50,-647.50,-306.25,1,94.476,
01/01/2000,00:40:58.70,22.20,-55.39,-991.86,253.75,-761.25,-393.75,1,94.477,
01/01/2000,00:40:58.71,22.20,-55.39,-991.98,227.50,-603.75,-332.50,1,94.479,
01/01/2000,00:40:58.72,22.20,-55.39,-992.10,253.75,-717.50,-367.50,1,94.480,
01/01/2000,00:40:58.73,22.20,-55.39,-992.35,192.50,-595.0,-332.50,1,94.481,
01/01/2000,00:40:58.74,22.33,-55.39,-992.23,140.0,-787.50,-428.75,1,94.483,
01/01/2000,00:40:58.75,22.33,-55.51,-992.10,166.25,-726.25,-376.25,1,94.484,
01/01/2000,00:40:58.76,22.08,-55.51,-992.10,236.25,-691.25,-288.75,1,94.462,
01/01/2000,00:40:58.77,22.08,-55.51,-992.10,201.25,-735.0,-411.25,1,94.487,
01/01/2000,00:40:58.78,22.20,-55.51,-992.23,96.25,-682.50,-306.25,1,94.465,
01/01/2000,00:40:58.79,22.08,-55.39,-992.23,87.50,-621.25,-323.75,1,94.466,
01/01/2000,00:40:58.81,22.08,-55.51,-992.10,218.75,-551.25,-481.25,1,94.468,
01/01/2000,00:40:58.82,22.33,-55.27,-991.86,122.50,-726.25,-332.50,1,94.469,
01/01/2000,00:40:58.83,22.20,-55.51,-991.98,218.75,-656.25,-350.0,1,94.470,
01/01/2000,00:40:58.84,22.33,-55.27,-992.35,166.25,-673.75,-358.75,1,94.472,
01/01/2000,00:40:58.85,22.45,-55.39,-992.35,157.50,-691.25,-411.25,1,94.473,
01/01/2000,00:40:58.86,22.45,-55.14,-992.10,87.50,-630.0,-315.0,1,94.474,
01/01/2000,00:40:58.87,22.33,-55.39,-992.10,35.0,-726.25,-350.0,1,94.476,
01/01/2000,00:40:58.88,22.20,-55.27,-992.23,157.50,-612.50,-288.75,1,94.477,
01/01/2000,00:40:58.89,22.08,-55.39,-992.35,306.25,-726.25,-288.75,1,94.479,
01/01/2000,00:40:58.90,22.08,-55.39,-992.23,253.75,-630.0,-341.25,1,94.480,
01/01/2000,00:40:58.91,21.96,-55.51,-992.10,297.50,-700.0,-446.25,1,94.481,
01/01/2000,00:40:58.92,22.08,-55.39,-992.10,96.25,-638.75,-245.0,1,94.483,
01/01/2000,00:40:58.93,22.08,-55.39,-992.10,227.50,-665.0,-358.75,1,94.484,
01/01/2000,00:40:58.94,21.96,-55.39,-992.23,210.0,-752.50,-210.0,1,94.462,
01/01/2000,00:40:58.95,21.96,-55.39,-992.23,87.50,-673.75,-455.0,1,94.464,
01/01/2000,00:40:58.96,21.96,-55.39,-992.23,201.25,-796.25,-253.75,1,94.465,
01/01/2000,00:40:58.97,22.08,-55.39,-992.35,262.50,-717.50,-341.25,1,94.466,
01/01/2000,00:40:58.98,22.20,-55.39,-992.10,183.75,-752.50,-253.75,1,94.468,
01/01/2000,00:40:59.00,22.08,-55.39,-991.98,113.75,-682.50,-306.25,1,94.469,
01/01/2000,00:40:59.01,21.96,-55.51,-991.98,43.75,-691.25,-332.50,1,94.447,
01/01/2000,00:40:59.02,21.96,-55.39,-992.10,61.25,-778.75,-350.0,1,94.449,
01/01/2000,00:40:59.03,22.08,-55.27,-992.35,236.25,-621.25,-367.50,1,94.450,
01/01/2000,00:40:59.04,22.08,-55.39,-992.23,148.75,-595.0,-218.75,1,94.451,
01/01/2000,00:40:59.05,22.20,-55.39,-992.23,315.0,-656.25,-437.50,1,94.453,
01/01/2000,00:40:59.06,22.08,-55.51,-992.10,210.0,-770.0,-297.50,1,94.454,
01/01/2000,00:40:59.07,21.96,-55.39,-992.10,148.75,-700.0,-350.0,1,94.455,
01/01/2000,00:40:59.08,21.96,-55.27,-992.10,113.75,-708.75,-367.50,1,94.457,
01/01/2000,00:40:59.09,21.96,-55.14,-992.23,122.50,-700.0,-393.75,1,94.458,
01/01/2000,00:40:59.10,21.96,-55.14,-992.23,245.0,-726.25,-227.50,1,94.459,
01/01/2000,00:40:59.12,22.20,-55.27,-992.23,175.0,-708.75,-323.75,1,94.461,
01/01/2000,00:40:59.12,22.20,-55.39,-992.23,253.75,-665.0,-280.0,1,94.462,
01/01/2000,00:40:59.14,22.33,-55.51,-992.23,210.0,-691.25,-367.50,1,94.463,
01/01/2000,00:40:59.15,22.33,-55.63,-992.10,262.50,-752.50,-376.25,1,94.465,
01/01/2000,00:40:59.16,22.33,-55.51,-992.35,122.50,-568.75,-253.75,1,94.466,
01/01/2000,00:40:59.17,22.33,-55.39,-992.23,157.50,-656.25,-297.50,1,94.467,
01/01/2000,00:40:59.18,22.20,-55.39,-992.23,113.75,-577.50,-332.50,1,94.469,
01/01/2000,00:40:59.19,22.20,-55.51,-992.23,218.75,-700.0,-350.0,1,94.470,
01/01/2000,00:40:59.20,22.20,-55.63,-992.35,113.75,-682.50,-350.0,1,94.472,
01/01/2000,00:40:59.21,22.20,-55.63,-992.10,140.0,-778.75,-411.25,1,94.473,
01/01/2000,00:40:59.22,22.33,-55.51,-991.98,8.75,-603.75,-306.25,1,94.474,
01/01/2000,00:40:59.23,22.20,-55.39,-991.98,262.50,-700.0,-262.50,1,94.453,
01/01/2000,00:40:59.24,22.20,-55.27,-991.86,227.50,-866.25,-236.25,1,94.454,
01/01/2000,00:40:59.25,22.20,-55.14,-991.86,131.25,-656.25,-288.75,1,94.455,
01/01/2000,00:40:59.26,22.08,-55.27,-991.86,192.50,-743.75,-245.0,1,94.457,
01/01/2000,00:40:59.27,22.20,-55.27,-991.86,192.50,-787.50,-376.25,1,94.458,
01/01/2000,00:40:59.28,22.20,-55.39,-991.86,87.50,-603.75,-350.0,1,94.459,
01/01/2000,00:40:59.29,22.08,-55.39,-991.74,175.0,-647.50,-332.50,1,94.461,
01/01/2000,00:40:59.31,21.96,-55.63,-991.74,183.75,-691.25,-411.25,1,94.462,
01/01/2000,00:40:59.32,21.96,-55.63,-991.86,105.0,-708.75,-332.50,1,94.463,
01/01/2000,00:40:59.33,22.08,-55.51,-991.98,192.50,-717.50,-367.50,1,94.465,
01/01/2000,00:40:59.34,21.96,-55.51,-991.98,96.25,-700.0,-253.75,1,94.466,
01/01/2000,00:40:59.35,21.84,-55.51,-992.10,148.75,-761.25,-323.75,1,94.467,
01/01/2000,00:40:59.36,22.08,-55.51,-992.10,297.50,-665.0,-297.50,1,94.469,
01/01/2000,00:40:59.37,22.20,-55.63,-992.35,-87.50,-577.50,-323.75,1,94.470,
01/01/2000,00:40:59.38,22.33,-55.51,-992.35,-17.50,-682.50,-358.75,1,94.471,
01/01/2000,00:40:59.39,22.20,-55.51,-992.23,140.0,-735.0,-420.0,1,94.473,
01/01/2000,00:40:59.40,22.20,-55.14,-992.10,70.0,-700.0,-227.50,1,94.474,
01/01/2000,00:40:59.41,22.20,-55.14,-992.23,280.0,-673.75,-323.75,1,94.475,
01/01/2000,00:40:59.42,22.20,-55.14,-992.35,26.25,-656.25,-385.0,1,94.477,
01/01/2000,00:40:59.43,22.08,-55.39,-992.23,61.25,-682.50,-428.75,1,94.478,
01/01/2000,00:40:59.44,22.20,-55.51,-992.23,175.0,-708.75,-332.50,1,94.457,
01/01/2000,00:40:59.45,22.20,-55.51,-992.35,157.50,-726.25,-358.75,1,94.458,
01/01/2000,00:40:59.46,22.20,-55.39,-992.23,253.75,-656.25,-315.0,1,94.459,
01/01/2000,00:40:59.47,22.20,-55.39,-992.10,87.50,-691.25,-297.50,1,94.461,
01/01/2000,00:40:59.48,22.20,-55.39,-991.98,70.0,-621.25,-341.25,1,94.462,
01/01/2000,00:40:59.49,22.20,-55.27,-991.98,70.0,-630.0,-306.25,1,94.463,
01/01/2000,00:40:59.51,22.20,-55.39,-992.35,218.75,-726.25,-367.50,1,94.465,
01/01/2000,00:40:59.52,22.08,-55.27,-992.35,52.50,-761.25,-332.50,1,94.443,
01/01/2000,00:40:59.53,22.20,-55.39,-992.10,236.25,-612.50,-271.25,1,94.444,
01/01/2000,00:40:59.54,22.20,-55.14,-991.98,113.75,-630.0,-315.0,1,94.446,
01/01/2000,00:40:59.55,22.20,-55.27,-991.98,140.0,-673.75,-376.25,1,94.447,
01/01/2000,00:40:59.56,22.20,-55.39,-992.10,201.25,-735.0,-201.25,1,94.448,
01/01/2000,00:40:59.57,22.33,-55.27,-992.10,201.25,-673.75,-323.75,1,94.450,
01/01/2000,00:40:59.58,22.20,-55.39,-991.98,87.50,-726.25,-358.75,1,94.451,
01/01/2000,00:40:59.60,22.20,-55.39,-991.86,183.75,-805.0,-262.50,1,94.452,
01/01/2000,00:40:59.60,22.20,-55.51,-991.86,245.0,-691.25,-376.25,1,94.454,
01/01/2000,00:40:59.62,22.20,-55.39,-991.98,157.50,-647.50,-280.0,1,94.455,
01/01/2000,00:40:59.63,22.20,-55.39,-992.10,105.0,-612.50,-280.0,1,94.456,
01/01/2000,00:40:59.64,22.20,-55.51,-992.10,218.75,-805.0,-297.50,1,94.458,
01/01/2000,00:40:59.65,22.33,-55.39,-992.23,131.25,-770.0,-376.25,1,94.459,
01/01/2000,00:40:59.66,22.45,-55.27,-992.10,210.0,-717.50,-323.75,1,94.461,
01/01/2000,00:40:59.67,22.33,-55.14,-992.10,52.50,-682.50,-262.50,1,94.462,
01/01/2000,00:40:59.68,22.08,-55.27,-992.10,61.25,-638.75,-350.0,1,94.463,
01/01/2000,00:40:59.69,22.08,-55.27,-992.10,105.0,-700.0,-280.0,1,94.465,
01/01/2000,00:40:59.70,22.08,-55.27,-992.23,148.75,-796.25,-315.0,1,94.466,
01/01/2000,00:40:59.71,22.33,-55.39,-992.35,192.50,-726.25,-323.75,1,94.467,
01/01/2000,00:40:59.72,22.20,-55.39,-992.35,26.25,-752.50,-393.75,1,94.468,
01/01/2000,00:40:59.73,22.08,-55.51,-992.23,201.25,-656.25,-271.25,1,94.470,
01/01/2000,00:40:59.74,21.96,-55.39,-992.23,148.75,-691.25,-341.25,1,94.471,
01/01/2000,00:40:59.75,21.96,-55.39,-992.23,140.0,-735.0,-428.75,1,94.472,
01/01/2000,00:40:59.76,22.08,-55.39,-992.35,253.75,-665.0,-315.0,1,94.474,
01/01/2000,00:40:59.77,22.20,-55.63,-992.35,201.25,-691.25,-367.50,1,94.475,
01/01/2000,00:40:59.78,22.20,-55.51,-992.23,105.0,-726.25,-376.25,1,94.476,
01/01/2000,00:40:59.79,22.20,-55.51,-992.10,131.25,-682.50,-306.25,1,94.455,
01/01/2000,00:40:59.80,22.20,-55.51,-992.10,131.25,-630.0,-358.75,1,94.456,
01/01/2000,00:40:59.81,22.08,-55.51,-991.98,96.25,-621.25,-402.50,1,94.458,
01/01/2000,00:40:59.82,21.96,-55.39,-992.23,175.0,-778.75,-332.50,1,94.459,
01/01/2000,00:40:59.83,21.96,-55.39,-992.10,105.0,-857.50,-332.50,1,94.460,
01/01/2000,00:40:59.84,21.96,-55.14,-992.23,183.75,-612.50,-341.25,1,94.462,
01/01/2000,00:40:59.85,22.08,-55.27,-992.35,166.25,-630.0,-402.50,1,94.463,
01/01/2000,00:40:59.87,22.20,-55.39,-992.10,35.0,-630.0,-306.25,1,94.464,
01/01/2000,00:40:59.88,21.96,-55.39,-992.10,306.25,-656.25,-420.0,1,94.466,
01/01/2000,00:40:59.89,21.96,-55.39,-992.23,131.25,-805.0,-315.0,1,94.467,
01/01/2000,00:40:59.90,21.96,-55.27,-992.35,227.50,-700.0,-271.25,1,94.468,
01/01/2000,00:40:59.91,22.08,-55.02,-992.59,201.25,-726.25,-262.50,1,94.470,
01/01/2000,00:40:59.92,21.96,-55.02,-992.35,87.50,-638.75,-393.75,1,94.471,
01/01/2000,00:40:59.93,22.08,-55.02,-992.23,96.25,-717.50,-341.25,1,94.450,
01/01/2000,00:40:59.94,22.20,-55.14,-992.23,218.75,-682.50,-393.75,1,94.451,
01/01/2000,00:40:59.95,22.20,-55.39,-992.35,280.0,-700.0,-323.75,1,94.452,
01/01/2000,00:40:59.96,22.20,-55.27,-992.23,175.0,-638.75,-428.75,1,94.454,
01/01/2000,00:40:59.97,22.20,-55.39,-992.10,148.75,-673.75,-236.25,1,94.455,
01/01/2000,00:40:59.98,22.33,-55.39,-992.10,210.0,-700.0,-446.25,1,94.456,
01/01/2000,00:40:59.99,22.20,-55.39,-992.10,140.0,-647.50,-253.75,1,94.458,
01/01/2000,00:41:00.01,22.20,-55.63,-992.35,105.0,-656.25,-253.75,1,94.459,
01/01/2000,00:41:00.02,22.20,-55.63,-992.10,61.25,-630.0,-446.25,1,94.460,
01/01/2000,00:41:00.03,22.20,-55.63,-992.10,87.50,-656.25,-358.75,1,94.462,
01/01/2000,00:41:00.04,22.33,-55.63,-991.98,306.25,-656.25,-236.25,1,94.463,
01/01/2000,00:41:00.05,22.33,-55.51,-992.10,105.0,-656.25,-245.0,1,94.464,
01/01/2000,00:41:00.06,22.45,-55.39,-992.23,105.0,-708.75,-280.0,1,94.466,
01/01/2000,00:41:00.07,22.33,-55.39,-992.47,96.25,-673.75,-420.0,1,94.467,
01/01/2000,00:41:00.08,22.33,-55.39,-992.47,157.50,-682.50,-288.75,1,94.446,
01/01/2000,00:41:00.09,22.33,-55.51,-992.35,122.50,-726.25,-227.50,1,94.447,
01/01/2000,00:41:00.10,22.45,-55.51,-992.23,113.75,-708.75,-315.0,1,94.448,
01/01/2000,00:41:00.11,22.33,-55.63,-992.35,26.25,-665.0,-306.25,1,94.450,
01/01/2000,00:41:00.12,22.33,-55.51,-992.23,218.75,-831.25,-350.0,1,94.451,
01/01/2000,00:41:00.13,22.20,-55.39,-992.10,183.75,-708.75,-358.75,1,94.452,
01/01/2000,00:41:00.14,22.08,-55.39,-992.10,183.75,-708.75,-218.75,1,94.454,
01/01/2000,00:41:00.15,22.08,-55.27,-992.35,78.75,-682.50,-323.75,1,94.455,
01/01/2000,00:41:00.16,22.20,-55.27,-992.35,183.75,-673.75,-131.25,1,94.456,
01/01/2000,00:41:00.17,22.08,-55.39,-992.35,61.25,-726.25,-358.75,1,94.458,
01/01/2000,00:41:00.19,22.08,-55.63,-992.23,105.0,-656.25,-323.75,1,94.459,
01/01/2000,00:41:00.19,21.96,-55.51,-992.10,297.50,-726.25,-385.0,1,94.460,
01/01/2000,00:41:00.21,21.96,-55.39,-992.23,113.75,-673.75,-253.75,1,94.462,
01/01/2000,00:41:00.22,22.20,-55.14,-992.35,78.75,-665.0,-358.75,1,94.463,
01/01/2000,00:41:00.23,21.96,-55.02,-992.35,96.25,-612.50,-166.25,1,94.464,
01/01/2000,00:41:00.24,21.84,-55.39,-992.23,105.0,-770.0,-446.25,1,94.466,
01/01/2000,00:41:00.25,21.84,-55.39,-992.23,236.25,-595.0,-385.0,1,94.467,
01/01/2000,00:41:00.26,21.84,-55.14,-992.35,52.50,-621.25,-288.75,1,94.468,
01/01/2000,00:41:00.27,22.20,-55.39,-992.59,157.50,-691.25,-280.0,1,94.469,
01/01/2000,00:41:00.28,21.96,-55.27,-992.47,70.0,-638.75,-315.0,1,94.471,
01/01/2000,00:41:00.29,22.08,-55.39,-991.86,210.0,-743.75,-411.25,1,94.472,
01/01/2000,00:41:00.30,21.84,-55.51,-991.98,253.75,-621.25,-306.25,1,94.473,
01/01/2000,00:41:00.31,21.96,-55.14,-992.23,26.25,-630.0,-262.50,1,94.475,
01/01/2000,00:41:00.32,22.08,-55.51,-992.23,210.0,-708.75,-437.50,1,94.476,
01/01/2000,00:41:00.33,22.08,-55.14,-992.35,78.75,-805.0,-253.75,1,94.477,
01/01/2000,00:41:00.34,21.96,-55.27,-992.10,131.25,-586.25,-428.75,1,94.479,
01/01/2000,00:41:00.35,21.96,-55.14,-992.35,96.25,-595.0,-271.25,1,94.458,
01/01/2000,00:41:00.36,22.20,-55.14,-992.35,105.0,-656.25,-376.25,1,94.459,
01/01/2000,00:41:00.37,22.33,-55.39,-992.23,262.50,-726.25,-253.75,1,94.460,
01/01/2000,00:41:00.38,22.08,-55.14,-992.10,122.50,-656.25,-297.50,1,94.462,
01/01/2000,00:41:00.39,22.08,-55.51,-992.23,157.50,-717.50,-271.25,1,94.463,
01/01/2000,00:41:00.40,21.96,-55.51,-992.35,192.50,-805.0,-210.0,1,94.464,
01/01/2000,00:41:00.41,22.20,-55.51,-992.59,140.0,-673.75,-341.25,1,94.465,
01/01/2000,00:41:00.43,22.20,-55.75,-992.47,315.0,-700.0,-463.75,1,94.467,
01/01/2000,00:41:00.44,21.96,-55.39,-992.35,183.75,-656.25,-385.0,1,94.468,
01/01/2000,00:41:00.45,22.08,-55.51,-992.10,70.0,-603.75,-367.50,1,94.469,
01/01/2000,00:41:00.46,22.33,-55.27,-992.35,140.0,-743.75,-315.0,1,94.471,
01/01/2000,00:41:00.47,22.20,-55.39,-985.27,595.0,647.50,-1277.50,1,94.472,
01/01/2000,00:41:00.48,17.20,-53.68,-961.36,-218.75,-227.50,2826.25,1,94.473,
01/01/2000,00:41:00.49,15.86,-51.61,-966.48,-1732.50,-1662.50,-2642.50,1,94.475,
01/01/2000,00:41:00.50,31.11,-64.78,-1007.72,2091.25,-1032.50,-1636.25,1,94.454,
01/01/2000,00:41:00.51,30.26,-60.02,-1027.24,-420.0,78.75,2196.25,1,94.455,
01/01/2000,00:41:00.53,19.28,-57.83,-1019.19,1006.25,-306.25,2922.50,1,94.456,
01/01/2000,00:41:00.54,16.71,-51.12,-1002.11,437.50,-411.25,-4558.75,1,94.458,
01/01/2000,00:41:00.55,17.32,-46.85,-984.54,-8.75,-953.75,-2607.50,1,94.459,
01/01/2000,00:41:00.56,23.42,-50.87,-982.71,-358.75,-936.25,1111.25,1,94.460,
01/01/2000,00:41:00.57,28.06,-58.19,-987.83,288.75,-910.0,2161.25,1,94.461,
01/01/2000,00:41:00.58,27.94,-63.93,-997.72,-297.50,-796.25,-140.0,1,94.463,
01/01/2000,00:41:00.59,24.40,-64.66,-1000.28,621.25,-638.75,-2196.25,1,94.464,
01/01/2000,00:41:00.60,19.76,-58.93,-998.94,393.75,-411.25,-2450.0,1,94.465,
01/01/2000,00:41:00.61,16.84,-51.85,-995.15,358.75,-533.75,-551.25,1,94.467,
01/01/2000,00:41:00.62,17.81,-46.60,-989.66,140.0,-533.75,183.75,1,94.468,
01/01/2000,00:41:00.63,22.20,-47.46,-988.20,166.25,-665.0,1400.0,1,94.469,
01/01/2000,00:41:00.64,24.52,-52.70,-988.81,-61.25,-743.75,1872.50,1,94.471,
01/01/2000,00:41:00.65,25.38,-59.90,-989.66,35.0,-945.0,-175.0,1,94.472,
01/01/2000,00:41:00.66,22.94,-64.66,-990.64,367.50,-778.75,-2108.75,1,94.473,
01/01/2000,00:41:00.67,21.11,-61.85,-991.01,245.0,-848.75,-3185.0,1,94.474,
01/01/2000,00:41:00.68,20.37,-56.12,-991.49,218.75,-656.25,-2292.50,1,94.476,
01/01/2000,00:41:00.69,20.62,-50.26,-992.35,280.0,-490.0,1006.25,1,94.477,
01/01/2000,00:41:00.70,21.59,-46.97,-992.71,61.25,-516.25,2065.0,1,94.456,
01/01/2000,00:41:00.71,22.20,-50.39,-992.35,306.25,-603.75,1181.25,1,94.457,
01/01/2000,00:41:00.73,21.84,-58.07,-991.37,70.0,-778.75,-358.75,1,94.459,
01/01/2000,00:41:00.73,21.96,-61.73,-990.64,183.75,-770.0,-1802.50,1,94.460,
01/01/2000,00:41:00.75,22.33,-61.98,-990.52,315.0,-822.50,-2336.25,1,94.461,
01/01/2000,00:41:00.75,22.57,-58.44,-990.88,148.75,-840.0,-1041.25,1,94.463,
01/01/2000,00:41:00.77,22.57,-52.22,-991.86,148.75,-813.75,498.75,1,94.464,
01/01/2000,00:41:00.78,21.72,-49.90,-992.59,8.75,-516.25,1041.25,1,94.465,
01/01/2000,00:41:00.79,20.98,-51.73,-992.84,122.50,-603.75,533.75,1,94.467,
01/01/2000,00:41:00.80,21.35,-55.02,-992.59,140.0,-647.50,-472.50,1,94.468,
01/01/2000,00:41:00.81,21.96,-57.83,-991.98,113.75,-673.75,-962.50,1,94.469,
01/01/2000,00:41:00.82,22.94,-59.41,-991.01,122.50,-787.50,-1181.25,1,94.470,
01/01/2000,00:41:00.83,23.79,-57.83,-990.27,113.75,-726.25,-647.50,1,94.472,
01/01/2000,00:41:00.84,23.06,-55.14,-990.64,35.0,-796.25,-175.0,1,94.473,
01/01/2000,00:41:00.85,21.72,-52.70,-992.35,323.75,-682.50,183.75,1,94.452,
01/01/2000,00:41:00.86,21.23,-52.46,-993.57,-61.25,-638.75,-43.75,1,94.454,
01/01/2000,00:41:00.87,21.11,-53.44,-993.69,113.75,-595.0,-253.75,1,94.455,
01/01/2000,00:41:00.88,21.84,-55.14,-992.84,157.50,-691.25,-341.25,1,94.456,
01/01/2000,00:41:00.89,23.06,-56.85,-991.01,210.0,-787.50,-323.75,1,94.457,
01/01/2000,00:41:00.90,23.67,-57.34,-990.40,157.50,-883.75,-586.25,1,94.459,
01/01/2000,00:41:00.92,23.06,-56.36,-991.37,140.0,-805.0,-350.0,1,94.460,
01/01/2000,00:41:00.93,22.08,-54.90,-992.47,70.0,-568.75,-288.75,1,94.461,
01/01/2000,00:41:00.94,21.47,-53.80,-993.32,315.0,-638.75,-166.25,1,94.463,
01/01/2000,00:41:00.95,21.23,-53.44,-992.96,315.0,-560.0,-105.0,1,94.464,
01/01/2000,00:41:00.96,21.96,-54.17,-992.10,192.50,-560.0,-148.75,1,94.465,
01/01/2000,00:41:00.97,22.69,-55.51,-991.49,87.50,-708.75,-306.25,1,94.466,
01/01/2000,00:41:00.98,23.18,-56.85,-991.13,175.0,-735.0,-420.0,1,94.468,
01/01/2000,00:41:00.99,23.06,-57.34,-991.62,323.75,-796.25,-533.75,1,94.469,
01/01/2000,00:41:01.00,22.45,-56.61,-992.23,297.50,-708.75,-385.0,1,94.470,
01/01/2000,00:41:01.01,21.84,-54.29,-992.84,166.25,-700.0,-288.75,1,94.472,
01/01/2000,00:41:01.02,21.72,-53.19,-992.71,52.50,-770.0,-218.75,1,94.473,
01/01/2000,00:41:01.03,22.20,-53.92,-992.23,8.75,-752.50,113.75,1,94.452,
01/01/2000,00:41:01.04,22.57,-55.14,-991.98,140.0,-612.50,-297.50,1,94.454,
01/01/2000,00:41:01.06,22.57,-56.49,-991.74,192.50,-691.25,-516.25,1,94.455,
01/01/2000,00:41:01.07,22.45,-56.85,-991.98,17.50,-717.50,-673.75,1,94.456,
01/01/2000,00:41:01.08,22.33,-56.12,-992.35,175.0,-691.25,-577.50,1,94.457,
01/01/2000,00:41:01.09,22.08,-54.78,-992.59,35.0,-691.25,-358.75,1,94.459,
01/01/2000,00:41:01.10,21.96,-53.80,-992.71,140.0,-656.25,-43.75,1,94.460,
01/01/2000,00:41:01.11,21.96,-53.92,-992.84,61.25,-586.25,-35.0,1,94.461,
01/01/2000,00:41:01.12,22.08,-54.66,-992.59,183.75,-708.75,-96.25,1,94.463,
01/01/2000,00:41:01.13,22.33,-56.00,-991.98,26.25,-708.75,-306.25,1,94.464,
01/01/2000,00:41:01.14,22.45,-56.49,-991.74,253.75,-717.50,-498.75,1,94.465,
01/01/2000,00:41:01.15,22.33,-56.12,-991.86,288.75,-700.0,-551.25,1,94.466,
01/01/2000,00:41:01.16,22.08,-55.27,-991.98,87.50,-726.25,-525.0,1,94.468,
01/01/2000,00:41:01.17,22.20,-54.53,-992.47,157.50,-682.50,-271.25,1,94.469,
01/01/2000,00:41:01.18,21.96,-54.17,-992.84,175.0,-568.75,-175.0,1,94.470,
01/01/2000,00:41:01.19,22.08,-54.66,-992.71,157.50,-665.0,-140.0,1,94.472,
01/01/2000,00:41:01.20,22.20,-55.39,-992.47,218.75,-612.50,-446.25,1,94.473,
01/01/2000,00:41:01.21,22.45,-56.00,-992.10,122.50,-673.75,-428.75,1,94.474,
01/01/2000,00:41:01.22,22.69,-56.36,-991.98,236.25,-700.0,-507.50,1,94.475,
01/01/2000,00:41:01.23,22.57,-55.63,-992.10,131.25,-673.75,-437.50,1,94.477,
01/01/2000,00:41:01.24,22.20,-55.27,-992.35,245.0,-708.75,-280.0,1,94.478,
01/01/2000,00:41:01.25,21.96,-54.66,-992.84,175.0,-708.75,-236.25,1,94.479,
01/01/2000,00:41:01.26,21.96,-54.66,-992.96,166.25,-743.75,-358.75,1,94.481,
01/01/2000,00:41:01.27,22.20,-55.39,-992.59,280.0,-743.75,-376.25,1,94.460,
01/01/2000,00:41:01.28,22.45,-55.75,-992.23,227.50,-752.50,-315.0,1,94.461,
01/01/2000,00:41:01.29,22.57,-55.88,-991.98,166.25,-708.75,-350.0,1,94.462,
01/01/2000,00:41:01.30,22.45,-55.75,-991.98,105.0,-700.0,-367.50,1,94.464,
01/01/2000,00:41:01.31,22.08,-55.27,-992.35,157.50,-656.25,-227.50,1,94.465,
01/01/2000,00:41:01.32,21.84,-55.14,-992.59,166.25,-673.75,-393.75,1,94.466,
01/01/2000,00:41:01.34,21.84,-55.02,-992.84,183.75,-630.0,-210.0,1,94.468,
01/01/2000,00:41:01.35,22.20,-55.14,-992.35,78.75,-586.25,-385.0,1,94.469,
01/01/2000,00:41:01.36,22.33,-55.63,-992.10,131.25,-743.75,-227.50,1,94.470,
01/01/2000,00:41:01.37,22.33,-55.88,-991.86,122.50,-752.50,-323.75,1,94.471,
01/01/2000,00:41:01.38,22.33,-56.12,-991.98,166.25,-848.75,-402.50,1,94.473,
01/01/2000,00:41:01.39,21.96,-56.00,-992.35,148.75,-743.75,-490.0,1,94.474,
01/01/2000,00:41:01.40,21.84,-55.39,-992.59,157.50,-778.75,-323.75,1,94.475,
01/01/2000,00:41:01.41,21.84,-54.90,-992.59,210.0,-726.25,-350.0,1,94.477,
01/01/2000,00:41:01.42,21.96,-54.90,-992.47,140.0,-638.75,-192.50,1,94.478,
01/01/2000,00:41:01.43,22.08,-55.39,-992.10,192.50,-665.0,-385.0,1,94.479,
01/01/2000,00:41:01.44,22.20,-55.88,-992.10,52.50,-656.25,-262.50,1,94.480,
01/01/2000,00:41:01.45,22.20,-55.88,-992.23,70.0,-717.50,-560.0,1,94.482,
01/01/2000,00:41:01.46,21.96,-55.88,-992.35,192.50,-726.25,-385.0,1,94.483,
01/01/2000,00:41:01.47,21.96,-55.27,-992.23,96.25,-682.50,-402.50,1,94.462,
01/01/2000,00:41:01.49,21.96,-55.02,-992.35,17.50,-682.50,-227.50,1,94.464,
01/01/2000,00:41:01.50,22.20,-55.14,-992.10,157.50,-621.25,-245.0,1,94.465,
01/01/2000,00:41:01.51,22.33,-55.51,-992.10,236.25,-743.75,-385.0,1,94.466,
01/01/2000,00:41:01.52,22.33,-55.75,-991.86,87.50,-682.50,-271.25,1,94.467,
01/01/2000,00:41:01.53,22.45,-56.00,-991.86,175.0,-743.75,-463.75,1,94.469,
01/01/2000,00:41:01.54,22.33,-55.51,-991.86,262.50,-805.0,-385.0,1,94.470,
01/01/2000,00:41:01.55,22.33,-55.02,-992.35,175.0,-656.25,-280.0,1,94.450,
01/01/2000,00:41:01.56,22.20,-55.02,-992.23,122.50,-621.25,-280.0,1,94.451,
01/01/2000,00:41:01.57,22.08,-55.14,-992.23,113.75,-708.75,-297.50,1,94.452,
01/01/2000,00:41:01.58,22.20,-55.51,-992.10,227.50,-656.25,-402.50,1,94.453,
01/01/2000,00:41:01.59,22.20,-55.51,-992.10,183.75,-638.75,-367.50,1,94.455,
01/01/2000,00:41:01.60,22.45,-55.75,-992.10,253.75,-726.25,-393.75,1,94.456,
01/01/2000,00:41:01.61,22.33,-55.39,-992.35,78.75,-708.75,-411.25,1,94.457,
01/01/2000,00:41:01.62,22.20,-55.14,-992.47,140.0,-708.75,-245.0,1,94.458,
01/01/2000,00:41:01.63,22.08,-55.14,-992.47,201.25,-778.75,-192.50,1,94.460,
01/01/2000,00:41:01.65,21.96,-55.39,-992.35,218.75,-612.50,-288.75,1,94.461,
01/01/2000,00:41:01.66,22.08,-55.63,-992.35,131.25,-700.0,-376.25,1,94.462,
01/01/2000,00:41:01.67,22.20,-55.63,-992.10,105.0,-708.75,-402.50,1,94.464,
01/01/2000,00:41:01.68,22.20,-55.75,-991.98,218.75,-726.25,-271.25,1,94.465,
01/01/2000,00:41:01.69,22.20,-55.88,-991.86,236.25,-778.75,-420.0,1,94.466,
01/01/2000,00:41:01.70,22.20,-55.63,-991.98,210.0,-638.75,-323.75,1,94.467,
01/01/2000,00:41:01.71,22.20,-55.14,-992.35,157.50,-735.0,-455.0,1,94.469,
01/01/2000,00:41:01.72,22.33,-54.90,-992.59,297.50,-665.0,-271.25,1,94.470,
01/01/2000,00:41:01.73,22.33,-54.90,-992.47,113.75,-656.25,-411.25,1,94.471,
01/01/2000,00:41:01.74,22.20,-54.90,-992.23,61.25,-595.0,-402.50,1,94.472,
01/01/2000,00:41:01.75,22.20,-55.39,-992.10,131.25,-700.0,-245.0,1,94.474,
01/01/2000,00:41:01.76,22.33,-55.39,-992.23,35.0,-708.75,-288.75,1,94.453,
01/01/2000,00:41:01.77,22.45,-55.27,-992.35,122.50,-726.25,-332.50,1,94.455,
01/01/2000,00:41:01.78,22.45,-55.27,-992.10,131.25,-603.75,-332.50,1,94.456,
01/01/2000,00:41:01.79,22.20,-55.02,-991.98,140.0,-673.75,-306.25,1,94.457,
01/01/2000,00:41:01.80,22.20,-54.90,-992.10,157.50,-621.25,-367.50,1,94.458,
01/01/2000,00:41:01.81,22.45,-55.02,-992.10,227.50,-682.50,-306.25,1,94.460,
01/01/2000,00:41:01.82,22.57,-55.14,-992.10,87.50,-805.0,-315.0,1,94.461,
01/01/2000,00:41:01.84,22.33,-55.39,-992.23,52.50,-673.75,-402.50,1,94.462,
01/01/2000,00:41:01.85,22.08,-55.51,-992.23,218.75,-665.0,-376.25,1,94.464,
01/01/2000,00:41:01.86,22.20,-55.14,-992.23,96.25,-717.50,-350.0,1,94.465,
01/01/2000,00:41:01.87,22.20,-55.02,-992.35,-87.50,-726.25,-280.0,1,94.466,
01/01/2000,00:41:01.88,22.20,-54.90,-992.35,17.50,-595.0,-323.75,1,94.467,
01/01/2000,00:41:01.89,22.20,-55.14,-992.35,245.0,-700.0,-288.75,1,94.469,
01/01/2000,00:41:01.90,22.08,-55.39,-992.23,96.25,-726.25,-253.75,1,94.470,
01/01/2000,00:41:01.91,22.08,-55.75,-992.35,210.0,-656.25,-428.75,1,94.471,
01/01/2000,00:41:01.92,22.08,-55.63,-992.35,183.75,-673.75,-358.75,1,94.472,
01/01/2000,00:41:01.93,22.08,-55.63,-992.47,280.0,-621.25,-472.50,1,94.474,
01/01/2000,00:41:01.94,22.20,-55.51,-992.47,96.25,-700.0,-271.25,1,94.475,
01/01/2000,00:41:01.95,22.20,-55.39,-992.47,105.0,-656.25,-288.75,1,94.476,
01/01/2000,00:41:01.96,22.20,-55.63,-992.35,236.25,-743.75,-341.25,1,94.477,
01/01/2000,00:41:01.97,22.08,-55.63,-992.23,157.50,-673.75,-393.75,1,94.457,
01/01/2000,00:41:01.98,22.20,-55.63,-992.35,122.50,-726.25,-227.50,1,94.458,
01/01/2000,00:41:01.99,22.20,-55.39,-992.35,157.50,-560.0,-420.0,1,94.460,
01/01/2000,00:41:02.00,21.96,-55.39,-992.35,236.25,-840.0,-183.75,1,94.461,
01/01/2000,00:41:02.01,22.08,-55.14,-992.35,113.75,-700.0,-332.50,1,94.462,
01/01/2000,00:41:02.02,22.08,-55.39,-992.47,210.0,-586.25,-288.75,1,94.463,
01/01/2000,00:41:02.03,22.08,-55.27,-992.59,192.50,-735.0,-341.25,1,94.465,
01/01/2000,00:41:02.05,22.20,-55.51,-992.23,96.25,-630.0,-358.75,1,94.444,
01/01/2000,00:41:02.06,22.08,-55.39,-992.23,148.75,-586.25,-280.0,1,94.446,
01/01/2000,00:41:02.07,22.08,-55.27,-992.35,105.0,-717.50,-280.0,1,94.447,
01/01/2000,00:41:02.08,22.20,-55.14,-992.35,61.25,-778.75,-350.0,1,94.448,
01/01/2000,00:41:02.09,22.20,-55.14,-992.47,131.25,-778.75,-227.50,1,94.450,
01/01/2000,00:41:02.10,22.20,-55.27,-992.35,140.0,-708.75,-271.25,1,94.451,
01/01/2000,00:41:02.11,22.20,-55.39,-992.23,166.25,-700.0,-306.25,1,94.452,
01/01/2000,00:41:02.12,22.08,-55.39,-992.23,122.50,-735.0,-227.50,1,94.453,
01/01/2000,00:41:02.13,21.96,-55.51,-992.35,131.25,-665.0,-420.0,1,94.455,
01/01/2000,00:41:02.15,22.20,-55.27,-992.35,43.75,-568.75,-341.25,1,94.456,
01/01/2000,00:41:02.16,22.20,-55.14,-992.35,175.0,-726.25,-385.0,1,94.457,
01/01/2000,00:41:02.17,22.08,-55.02,-992.35,280.0,-778.75,-210.0,1,94.458,
01/01/2000,00:41:02.18,22.08,-55.27,-992.23,227.50,-638.75,-437.50,1,94.460,
01/01/2000,00:41:02.19,22.20,-55.39,-992.23,166.25,-560.0,-323.75,1,94.461,
01/01/2000,00:41:02.20,22.20,-55.39,-992.23,140.0,-665.0,-192.50,1,94.462,
01/01/2000,00:41:02.21,22.45,-55.39,-992.35,271.25,-647.50,-245.0,1,94.463,
01/01/2000,00:41:02.22,22.33,-55.39,-992.35,157.50,-568.75,-437.50,1,94.465,
01/01/2000,00:41:02.23,22.20,-55.27,-992.10,43.75,-822.50,-271.25,1,94.466,
01/01/2000,00:41:02.24,22.08,-55.39,-992.10,306.25,-586.25,-367.50,1,94.467,
01/01/2000,00:41:02.25,22.08,-55.39,-992.23,218.75,-691.25,-315.0,1,94.468,
01/01/2000,00:41:02.26,22.20,-55.27,-992.35,70.0,-700.0,-315.0,1,94.470,
01/01/2000,00:41:02.27,22.20,-55.39,-992.35,122.50,-603.75,-323.75,1,94.471,
01/01/2000,00:41:02.28,22.20,-55.39,-992.10,288.75,-665.0,-437.50,1,94.472,
01/01/2000,00:41:02.29,22.20,-55.51,-991.98,96.25,-743.75,-253.75,1,94.473,
01/01/2000,00:41:02.30,22.20,-55.27,-991.98,175.0,-752.50,-490.0,1,94.475,
01/01/2000,00:41:02.31,22.20,-55.39,-992.10,61.25,-630.0,-358.75,1,94.476,
01/01/2000,00:41:02.32,22.20,-55.39,-992.23,78.75,-761.25,-201.25,1,94.456,
01/01/2000,00:41:02.33,22.20,-55.39,-992.10,96.25,-612.50,-367.50,1,94.457,
01/01/2000,00:41:02.34,22.20,-55.63,-992.23,61.25,-533.75,-245.0,1,94.458,
01/01/2000,00:41:02.35,22.33,-55.63,-992.23,140.0,-700.0,-341.25,1,94.460,
01/01/2000,00:41:02.36,22.20,-55.51,-992.10,341.25,-700.0,-297.50,1,94.461,
01/01/2000,00:41:02.37,22.20,-55.51,-992.10,210.0,-691.25,-472.50,1,94.462,
01/01/2000,00:41:02.38,21.96,-55.39,-992.23,96.25,-682.50,-323.75,1,94.463,
01/01/2000,00:41:02.40,21.96,-55.51,-992.35,78.75,-673.75,-271.25,1,94.465,
01/01/2000,00:41:02.41,21.96,-55.39,-992.35,131.25,-638.75,-350.0,1,94.466,
01/01/2000,00:41:02.42,21.96,-55.63,-992.35,140.0,-761.25,-367.50,1,94.467,
01/01/2000,00:41:02.43,21.96,-55.51,-992.35,105.0,-743.75,-323.75,1,94.468,
01/01/2000,00:41:02.44,21.96,-55.51,-992.47,175.0,-717.50,-306.25,1,94.470,
01/01/2000,00:41:02.45,22.08,-55.51,-992.47,105.0,-586.25,-393.75,1,94.471,
01/01/2000,00:41:02.46,21.96,-55.39,-992.47,96.25,-717.50,-358.75,1,94.472,
01/01/2000,00:41:02.47,21.96,-55.39,-992.59,148.75,-752.50,-262.50,1,94.452,
01/01/2000,00:41:02.48,21.96,-55.51,-992.47,192.50,-673.75,-280.0,1,94.475,
01/01/2000,00:41:02.49,22.08,-55.51,-992.35,192.50,-752.50,-341.25,1,94.454,
01/01/2000,00:41:02.50,22.08,-55.39,-992.35,70.0,-673.75,-358.75,1,94.456,
01/01/2000,00:41:02.51,22.08,-55.51,-992.35,148.75,-717.50,-262.50,1,94.457,
01/01/2000,00:41:02.52,21.96,-55.39,-992.35,105.0,-761.25,-455.0,1,94.458,
01/01/2000,00:41:02.54,22.08,-55.27,-992.59,148.75,-673.75,-323.75,1,94.459,
01/01/2000,00:41:02.55,22.20,-55.39,-992.59,236.25,-586.25,-367.50,1,94.461,
01/01/2000,00:41:02.56,22.20,-55.39,-992.35,227.50,-638.75,-411.25,1,94.462,
01/01/2000,00:41:02.57,22.33,-55.39,-992.10,157.50,-752.50,-332.50,1,94.463,
01/01/2000,00:41:02.58,22.20,-55.39,-992.10,183.75,-735.0,-446.25,1,94.464,
01/01/2000,00:41:02.59,22.33,-55.51,-992.10,122.50,-656.25,-306.25,1,94.466,
01/01/2000,00:41:02.60,22.20,-55.27,-992.23,87.50,-708.75,-306.25,1,94.467,
01/01/2000,00:41:02.61,22.08,-55.14,-992.23,87.50,-700.0,-402.50,1,94.447,
01/01/2000,00:41:02.62,22.20,-55.27,-992.10,140.0,-630.0,-288.75,1,94.448,
01/01/2000,00:41:02.63,22.20,-55.14,-991.98,148.75,-673.75,-253.75,1,94.449,
01/01/2000,00:41:02.64,22.33,-55.27,-991.98,8.75,-673.75,-402.50,1,94.451,
01/01/2000,00:41:02.65,22.45,-55.51,-991.98,183.75,-813.75,-280.0,1,94.452,
01/01/2000,00:41:02.66,22.33,-55.39,-992.10,192.50,-533.75,-437.50,1,94.453,
01/01/2000,00:41:02.67,22.33,-55.39,-992.10,192.50,-551.25,-358.75,1,94.454,
01/01/2000,00:41:02.68,22.20,-55.27,-992.23,210.0,-630.0,-271.25,1,94.456,
01/01/2000,00:41:02.69,22.33,-55.27,-992.10,148.75,-673.75,-306.25,1,94.457,
01/01/2000,00:41:02.70,22.20,-55.27,-992.35,218.75,-717.50,-420.0,1,94.458,
01/01/2000,00:41:02.71,22.33,-55.27,-992.35,148.75,-647.50,-393.75,1,94.459,
01/01/2000,00:41:02.72,22.20,-55.39,-992.35,227.50,-831.25,-271.25,1,94.461,
01/01/2000,00:41:02.73,22.20,-55.51,-992.35,87.50,-726.25,-341.25,1,94.462,
01/01/2000,00:41:02.75,22.20,-55.39,-992.35,131.25,-805.0,-306.25,1,94.463,
01/01/2000,00:41:02.76,22.20,-55.39,-992.35,192.50,-691.25,-437.50,1,94.464,
01/01/2000,00:41:02.77,22.33,-55.14,-992.35,87.50,-630.0,-393.75,1,94.466,
01/01/2000,00:41:02.78,22.33,-55.27,-992.35,201.25,-691.25,-323.75,1,94.467,
01/01/2000,00:41:02.79,22.33,-55.39,-992.35,236.25,-770.0,-297.50,1,94.468,
01/01/2000,00:41:02.80,22.20,-55.63,-992.47,157.50,-673.75,-323.75,1,94.469,
01/01/2000,00:41:02.81,22.20,-55.63,-992.47,96.25,-708.75,-315.0,1,94.471,
01/01/2000,00:41:02.82,22.20,-55.39,-992.35,262.50,-682.50,-236.25,1,94.451,
01/01/2000,00:41:02.83,22.33,-55.27,-992.35,-8.75,-700.0,-323.75,1,94.473,
01/01/2000,00:41:02.84,22.20,-55.14,-992.59,113.75,-726.25,-376.25,1,94.453,
01/01/2000,00:41:02.85,22.20,-55.14,-992.47,148.75,-630.0,-402.50,1,94.454,
01/01/2000,00:41:02.86,22.33,-55.27,-992.59,175.0,-656.25,-315.0,1,94.456,
01/01/2000,00:41:02.87,22.20,-55.14,-992.47,192.50,-726.25,-306.25,1,94.457,
01/01/2000,00:41:02.89,22.45,-55.39,-992.35,157.50,-665.0,-376.25,1,94.458,
01/01/2000,00:41:02.90,22.45,-55.27,-992.23,227.50,-691.25,-341.25,1,94.459,
01/01/2000,00:41:02.91,22.45,-55.39,-992.35,341.25,-603.75,-271.25,1,94.461,
01/01/2000,00:41:02.92,22.45,-55.02,-992.47,26.25,-595.0,-341.25,1,94.462,
01/01/2000,00:41:02.93,22.45,-55.14,-992.47,367.50,-787.50,-367.50,1,94.463,
01/01/2000,00:41:02.94,22.45,-54.90,-992.47,70.0,-735.0,-253.75,1,94.464,
01/01/2000,00:41:02.95,22.45,-54.90,-992.35,78.75,-586.25,-358.75,1,94.466,
01/01/2000,00:41:02.96,22.33,-55.02,-992.35,122.50,-577.50,-376.25,1,94.467,
01/01/2000,00:41:02.97,22.45,-55.27,-992.23,166.25,-700.0,-332.50,1,94.468,
01/01/2000,00:41:02.98,22.57,-55.14,-992.23,201.25,-813.75,-271.25,1,94.469,
01/01/2000,00:41:02.99,22.45,-55.02,-992.23,140.0,-656.25,-280.0,1,94.470,
01/01/2000,00:41:03.00,22.45,-54.90,-992.10,0.0,-630.0,-315.0,1,94.472,
01/01/2000,00:41:03.01,22.45,-54.90,-992.23,87.50,-857.50,-402.50,1,94.473,
01/01/2000,00:41:03.02,22.45,-55.14,-992.35,210.0,-708.75,-323.75,1,94.474,
01/01/2000,00:41:03.03,22.45,-55.39,-992.23,96.25,-665.0,-332.50,1,94.454,
01/01/2000,00:41:03.04,22.20,-55.27,-992.23,210.0,-612.50,-332.50,1,94.456,
01/01/2000,00:41:03.05,22.20,-55.39,-992.10,148.75,-621.25,-245.0,1,94.457,
01/01/2000,00:41:03.06,22.08,-55.27,-992.23,148.75,-603.75,-323.75,1,94.458,
01/01/2000,00:41:03.08,22.33,-55.14,-992.35,192.50,-770.0,-280.0,1,94.459,
01/01/2000,00:41:03.09,22.33,-55.14,-992.10,122.50,-717.50,-306.25,1,94.461,
01/01/2000,00:41:03.10,22.20,-55.14,-991.98,122.50,-700.0,-306.25,1,94.462,
01/01/2000,00:41:03.11,22.20,-55.27,-991.98,157.50,-638.75,-280.0,1,94.463,
01/01/2000,00:41:03.12,22.33,-55.39,-991.98,236.25,-726.25,-393.75,1,94.464,
01/01/2000,00:41:03.13,21.96,-55.14,-992.10,122.50,-743.75,-236.25,1,94.465,
01/01/2000,00:41:03.14,20.37,-55.39,-992.10,105.0,-708.75,245.0,1,94.467,
01/01/2000,00:41:03.15,17.08,-55.63,-991.86,236.25,-700.0,-78.75,1,94.468,
01/01/2000,00:41:03.16,15.37,-55.63,-992.35,218.75,-638.75,-586.25,1,94.469,
01/01/2000,00:41:03.17,14.40,-54.78,-993.20,87.50,-665.0,-323.75,1,94.449,
01/01/2000,00:41:03.18,14.03,-54.78,-993.20,210.0,-638.75,-315.0,1,94.451,
01/01/2000,00:41:03.19,14.64,-54.66,-992.59,323.75,-630.0,-411.25,1,94.452,
01/01/2000,00:41:03.20,15.62,-54.53,-992.10,78.75,-568.75,-358.75,1,94.453,
01/01/2000,00:41:03.21,16.96,-55.14,-991.98,105.0,-621.25,-358.75,1,94.454,
01/01/2000,00:41:03.22,17.93,-55.63,-992.10,157.50,-770.0,-393.75,1,94.456,
01/01/2000,00:41:03.23,18.18,-55.88,-992.35,148.75,-787.50,-367.50,1,94.457,
01/01/2000,00:41:03.25,16.59,-55.51,-992.23,192.50,-735.0,-148.75,1,94.458,
01/01/2000,00:41:03.26,14.40,-54.90,-992.10,131.25,-726.25,-61.25,1,94.459,
01/01/2000,00:41:03.27,11.96,-54.90,-992.10,183.75,-708.75,-105.0,1,94.460,
01/01/2000,00:41:03.28,9.64,-54.66,-992.10,122.50,-726.25,-271.25,1,94.462,
01/01/2000,00:41:03.29,8.05,-54.78,-992.96,253.75,-682.50,-472.50,1,94.463,
01/01/2000,00:41:03.30,8.17,-54.90,-993.32,315.0,-638.75,-525.0,1,94.464,
01/01/2000,00:41:03.31,10.49,-55.14,-993.32,262.50,-577.50,-586.25,1,94.465,
01/01/2000,00:41:03.32,12.20,-55.14,-992.47,78.75,-577.50,-446.25,1,94.467,
01/01/2000,00:41:03.33,13.91,-55.02,-991.74,105.0,-638.75,-297.50,1,94.468,
01/01/2000,00:41:03.34,15.37,-55.27,-991.37,210.0,-796.25,-402.50,1,94.469,
01/01/2000,00:41:03.35,16.35,-55.39,-991.37,166.25,-743.75,-262.50,1,94.470,
01/01/2000,00:41:03.36,16.71,-55.51,-991.86,140.0,-665.0,-358.75,1,94.471,
01/01/2000,00:41:03.37,16.71,-55.39,-992.23,227.50,-621.25,-490.0,1,94.473,
01/01/2000,00:41:03.38,15.86,-54.66,-992.59,70.0,-586.25,-332.50,1,94.453,
01/01/2000,00:41:03.39,15.49,-54.66,-992.47,148.75,-726.25,-306.25,1,94.454,
01/01/2000,00:41:03.40,15.13,-54.66,-992.35,105.0,-560.0,-402.50,1,94.455,
01/01/2000,00:41:03.41,15.37,-55.02,-991.98,227.50,-717.50,-490.0,1,94.457,
01/01/2000,00:41:03.42,16.35,-55.27,-991.86,236.25,-586.25,-507.50,1,94.458,
01/01/2000,00:41:03.43,17.20,-55.39,-991.86,183.75,-665.0,-560.0,1,94.459,
01/01/2000,00:41:03.44,17.93,-55.27,-991.86,61.25,-770.0,-498.75,1,94.460,
01/01/2000,00:41:03.46,19.40,-55.27,-991.86,113.75,-717.50,-428.75,1,94.462,
01/01/2000,00:41:03.47,20.50,-55.39,-991.86,166.25,-603.75,-577.50,1,94.463,
01/01/2000,00:41:03.48,20.98,-55.27,-991.86,271.25,-700.0,-315.0,1,94.464,
01/01/2000,00:41:03.49,20.86,-55.27,-991.62,-17.50,-743.75,-341.25,1,94.465,
01/01/2000,00:41:03.50,20.50,-55.51,-991.74,218.75,-787.50,-411.25,1,94.466,
01/01/2000,00:41:03.51,20.01,-55.39,-991.74,43.75,-656.25,-533.75,1,94.468,
01/01/2000,00:41:03.52,19.40,-55.39,-992.10,192.50,-691.25,-665.0,1,94.469,
01/01/2000,00:41:03.53,19.03,-55.02,-992.10,166.25,-743.75,-621.25,1,94.470,
01/01/2000,00:41:03.54,19.52,-54.90,-992.10,236.25,-647.50,-533.75,1,94.471,
01/01/2000,00:41:03.55,21.11,-54.90,-991.98,61.25,-595.0,-918.75,1,94.473,
01/01/2000,00:41:03.56,22.69,-55.39,-992.10,43.75,-665.0,-787.50,1,94.474,
01/01/2000,00:41:03.57,24.28,-55.14,-991.86,105.0,-682.50,-297.50,1,94.475,
01/01/2000,00:41:03.59,24.77,-55.88,-991.13,35.0,-910.0,-420.0,1,94.455,
01/01/2000,00:41:03.60,23.30,-56.12,-991.98,192.50,-708.75,-385.0,1,94.436,
01/01/2000,00:41:03.61,21.11,-55.75,-993.20,8.75,-691.25,-507.50,1,94.437,
01/01/2000,00:41:03.62,19.89,-55.14,-993.57,96.25,-673.75,-577.50,1,94.438,
01/01/2000,00:41:03.63,19.64,-54.41,-993.57,148.75,-647.50,-857.50,1,94.440,
01/01/2000,00:41:03.64,20.01,-54.53,-993.08,350.0,-665.0,-560.0,1,94.441,
01/01/2000,00:41:03.65,20.98,-55.14,-992.10,306.25,-691.25,-577.50,1,94.442,
01/01/2000,00:41:03.66,22.69,-55.75,-992.10,61.25,-717.50,-507.50,1,94.443,
01/01/2000,00:41:03.68,23.67,-56.24,-992.10,253.75,-735.0,-656.25,1,94.444,
01/01/2000,00:41:03.69,23.79,-56.36,-991.98,245.0,-918.75,-411.25,1,94.446,
01/01/2000,00:41:03.70,22.69,-55.75,-992.23,87.50,-647.50,-437.50,1,94.447,
01/01/2000,00:41:03.71,21.47,-55.39,-992.59,-8.75,-708.75,-420.0,1,94.448,
01/01/2000,00:41:03.72,20.37,-55.02,-992.84,288.75,-691.25,-603.75,1,94.449,
01/01/2000,00:41:03.73,19.64,-54.90,-992.96,376.25,-638.75,-857.50,1,94.451,
01/01/2000,00:41:03.74,20.37,-55.14,-992.47,192.50,-586.25,-1128.75,1,94.452,
01/01/2000,00:41:03.75,21.72,-55.27,-991.86,78.75,-752.50,-1050.0,1,94.453,
01/01/2000,00:41:03.76,24.28,-55.75,-991.62,113.75,-638.75,-901.25,1,94.454,
01/01/2000,00:41:03.77,25.38,-56.00,-991.86,148.75,-708.75,-525.0,1,94.455,
01/01/2000,00:41:03.78,25.62,-56.12,-992.23,140.0,-656.25,-253.75,1,94.457,
01/01/2000,00:41:03.79,24.64,-56.12,-991.86,306.25,-743.75,-367.50,1,94.458,
01/01/2000,00:41:03.80,22.20,-55.39,-991.86,122.50,-700.0,-560.0,1,94.459,
01/01/2000,00:41:03.81,20.50,-55.02,-992.23,288.75,-656.25,-586.25,1,94.440,
01/01/2000,00:41:03.82,20.01,-54.66,-992.47,227.50,-647.50,-831.25,1,94.441,
01/01/2000,00:41:03.83,20.50,-54.90,-992.35,288.75,-568.75,-892.50,1,94.442,
01/01/2000,00:41:03.84,21.23,-55.14,-992.23,175.0,-691.25,-962.50,1,94.443,
01/01/2000,00:41:03.85,22.45,-55.51,-991.98,113.75,-752.50,-866.25,1,94.444,
01/01/2000,00:41:03.86,23.91,-55.88,-991.86,122.50,-665.0,-735.0,1,94.446,
01/01/2000,00:41:03.87,24.28,-55.88,-991.86,87.50,-761.25,-481.25,1,94.447,
01/01/2000,00:41:03.89,23.42,-55.51,-991.62,227.50,-516.25,-385.0,1,94.448,
01/01/2000,00:41:03.90,22.57,-55.51,-991.62,280.0,-665.0,-385.0,1,94.449,
01/01/2000,00:41:03.91,21.59,-55.39,-992.35,218.75,-682.50,-848.75,1,94.451,
01/01/2000,00:41:03.92,20.98,-55.27,-992.84,26.25,-595.0,-752.50,1,94.452,
01/01/2000,00:41:03.93,21.47,-55.27,-992.35,253.75,-577.50,-997.50,1,94.453,
01/01/2000,00:41:03.94,22.20,-55.14,-992.35,87.50,-595.0,-1163.75,1,94.454,
01/01/2000,00:41:03.95,23.42,-55.51,-991.74,17.50,-717.50,-656.25,1,94.455,
01/01/2000,00:41:03.96,23.91,-55.88,-991.62,148.75,-726.25,-341.25,1,94.457,
01/01/2000,00:41:03.97,23.91,-56.24,-991.86,140.0,-813.75,-446.25,1,94.458,
01/01/2000,00:41:03.98,22.94,-56.00,-992.35,0.0,-586.25,-665.0,1,94.459,
01/01/2000,00:41:03.99,22.20,-55.88,-992.59,175.0,-787.50,-647.50,1,94.460,
01/01/2000,00:41:04.00,21.47,-55.27,-992.35,166.25,-761.25,-603.75,1,94.461,
01/01/2000,00:41:04.01,20.98,-55.27,-991.98,148.75,-700.0,-796.25,1,94.463,
01/01/2000,00:41:04.02,20.86,-55.39,-991.98,78.75,-630.0,-840.0,1,94.443,
01/01/2000,00:41:04.03,21.23,-55.88,-991.86,140.0,-831.25,-761.25,1,94.444,
01/01/2000,00:41:04.04,22.08,-56.49,-991.86,140.0,-787.50,-822.50,1,94.446,
01/01/2000,00:41:04.05,22.33,-56.12,-992.10,105.0,-691.25,-980.0,1,94.447,
01/01/2000,00:41:04.06,22.45,-55.88,-992.23,131.25,-761.25,-831.25,1,94.448,
01/01/2000,00:41:04.07,22.45,-55.27,-992.23,52.50,-778.75,-481.25,1,94.449,
01/01/2000,00:41:04.08,21.96,-55.14,-992.10,271.25,-840.0,-280.0,1,94.450,
01/01/2000,00:41:04.10,21.72,-55.39,-992.23,52.50,-603.75,-866.25,1,94.431,
01/01/2000,00:41:04.11,22.94,-55.51,-992.35,61.25,-778.75,-1277.50,1,94.432,
01/01/2000,00:41:04.12,23.67,-55.39,-992.35,175.0,-682.50,-1207.50,1,94.434,
01/01/2000,00:41:04.13,24.16,-55.51,-992.35,175.0,-673.75,-490.0,1,94.435,
01/01/2000,00:41:04.14,24.28,-55.88,-991.86,183.75,-752.50,-393.75,1,94.436,
01/01/2000,00:41:04.15,23.67,-55.75,-991.86,140.0,-700.0,-542.50,1,94.437,
01/01/2000,00:41:04.17,22.69,-55.75,-992.10,122.50,-778.75,-507.50,1,94.438,
01/01/2000,00:41:04.18,21.96,-55.39,-992.35,183.75,-752.50,-533.75,1,94.440,
01/01/2000,00:41:04.19,20.98,-55.27,-992.35,140.0,-621.25,-586.25,1,94.441,
01/01/2000,00:41:04.20,20.74,-55.02,-992.35,183.75,-638.75,-805.0,1,94.442,
01/01/2000,00:41:04.21,20.98,-55.27,-992.10,262.50,-700.0,-918.75,1,94.443,
01/01/2000,00:41:04.22,21.72,-55.39,-992.10,175.0,-533.75,-936.25,1,94.444,
01/01/2000,00:41:04.23,22.45,-55.63,-992.10,245.0,-743.75,-848.75,1,94.446,
01/01/2000,00:41:04.24,22.69,-55.75,-992.10,113.75,-708.75,-656.25,1,94.447,
01/01/2000,00:41:04.25,22.57,-55.88,-992.10,148.75,-673.75,-455.0,1,94.448,
01/01/2000,00:41:04.26,22.08,-55.63,-992.10,122.50,-673.75,-542.50,1,94.449,
01/01/2000,00:41:04.27,20.98,-55.39,-992.23,253.75,-796.25,-568.75,1,94.450,
01/01/2000,00:41:04.28,20.74,-55.27,-992.35,131.25,-603.75,-630.0,1,94.452,
01/01/2000,00:41:04.29,21.11,-55.27,-992.35,218.75,-577.50,-717.50,1,94.453,
01/01/2000,00:41:04.30,22.33,-55.39,-992.23,236.25,-673.75,-1128.75,1,94.454,
01/01/2000,00:41:04.31,23.42,-55.39,-992.23,183.75,-752.50,-927.50,1,94.455,
01/01/2000,00:41:04.32,24.77,-55.63,-992.10,192.50,-770.0,-708.75,1,94.456,
01/01/2000,00:41:04.33,24.40,-56.12,-992.35,210.0,-735.0,-393.75,1,94.458,
01/01/2000,00:41:04.34,23.42,-56.00,-992.47,8.75,-717.50,-402.50,1,94.459,
01/01/2000,00:41:04.35,22.45,-55.88,-992.35,140.0,-656.25,-498.75,1,94.460,
01/01/2000,00:41:04.36,21.59,-55.39,-992.35,157.50,-612.50,-656.25,1,94.461,
01/01/2000,00:41:04.37,20.50,-54.90,-992.23,78.75,-577.50,-726.25,1,94.442,
01/01/2000,00:41:04.38,20.86,-55.14,-991.98,315.0,-568.75,-673.75,1,94.443,
01/01/2000,00:41:04.40,21.72,-55.51,-991.86,236.25,-595.0,-857.50,1,94.444,
01/01/2000,00:41:04.40,22.33,-55.88,-991.86,113.75,-647.50,-735.0,1,94.446,
01/01/2000,00:41:04.42,22.94,-56.12,-992.10,157.50,-708.75,-796.25,1,94.447,
01/01/2000,00:41:04.42,22.94,-55.88,-992.47,183.75,-708.75,-630.0,1,94.448,
01/01/2000,00:41:04.44,22.33,-55.75,-992.47,122.50,-656.25,-455.0,1,94.449,
01/01/2000,00:41:04.45,21.47,-55.14,-992.23,183.75,-682.50,-516.25,1,94.450,
01/01/2000,00:41:04.46,21.11,-55.39,-992.10,140.0,-647.50,-656.25,1,94.452,
01/01/2000,00:41:04.47,21.23,-55.51,-991.98,175.0,-735.0,-883.75,1,94.453,
01/01/2000,00:41:04.48,21.84,-55.63,-991.98,140.0,-586.25,-980.0,1,94.454,
01/01/2000,00:41:04.49,24.03,-55.88,-992.35,262.50,-717.50,-1093.75,1,94.455,
01/01/2000,00:41:04.50,25.13,-55.88,-992.71,280.0,-743.75,-1006.25,1,94.456,
01/01/2000,00:41:04.51,25.25,-56.00,-992.84,157.50,-726.25,-385.0,1,94.437,
01/01/2000,00:41:04.52,24.16,-56.12,-992.59,148.75,-752.50,-253.75,1,94.438,
01/01/2000,00:41:04.53,22.69,-55.88,-992.35,105.0,-656.25,-341.25,1,94.440,
01/01/2000,00:41:04.54,21.23,-55.75,-992.10,245.0,-682.50,-638.75,1,94.441,
01/01/2000,00:41:04.55,20.50,-55.14,-992.10,140.0,-630.0,-735.0,1,94.442,
01/01/2000,00:41:04.56,20.74,-55.14,-992.10,131.25,-682.50,-875.0,1,94.443,
01/01/2000,00:41:04.57,21.35,-55.51,-991.98,157.50,-647.50,-717.50,1,94.444,
01/01/2000,00:41:04.59,22.69,-56.12,-992.10,210.0,-673.75,-665.0,1,94.446,
01/01/2000,00:41:04.60,23.18,-56.24,-992.10,43.75,-612.50,-665.0,1,94.447,
01/01/2000,00:41:04.61,23.42,-56.24,-992.35,157.50,-735.0,-411.25,1,94.448,
01/01/2000,00:41:04.62,22.20,-55.75,-992.35,183.75,-761.25,-323.75,1,94.449,
01/01/2000,00:41:04.63,21.35,-55.63,-992.10,87.50,-656.25,-376.25,1,94.450,
01/01/2000,00:41:04.64,20.50,-55.39,-991.86,148.75,-638.75,-463.75,1,94.431,
01/01/2000,00:41:04.65,21.23,-55.39,-991.62,271.25,-630.0,-936.25,1,94.453,
01/01/2000,00:41:04.66,23.06,-55.39,-991.49,297.50,-516.25,-1338.75,1,94.434,
01/01/2000,00:41:04.67,25.38,-55.27,-991.74,140.0,-700.0,-1426.25,1,94.435,
01/01/2000,00:41:04.68,27.82,-55.63,-992.10,227.50,-533.75,-892.50,1,94.436,
01/01/2000,00:41:04.69,30.62,-56.36,-992.47,105.0,-752.50,-560.0,1,94.437,
01/01/2000,00:41:04.70,31.11,-56.24,-992.71,140.0,-726.25,-341.25,1,94.438,
01/01/2000,00:41:04.71,30.99,-56.12,-993.08,227.50,-621.25,-358.75,1,94.440,
01/01/2000,00:41:04.72,30.01,-55.39,-992.84,78.75,-673.75,-262.50,1,94.441,
01/01/2000,00:41:04.73,28.79,-55.27,-992.47,157.50,-743.75,-350.0,1,94.442,
01/01/2000,00:41:04.75,27.82,-55.14,-992.10,0.0,-743.75,-376.25,1,94.443,
01/01/2000,00:41:04.75,27.33,-55.39,-991.49,227.50,-656.25,-481.25,1,94.444,
01/01/2000,00:41:04.77,27.45,-55.63,-991.37,87.50,-700.0,-787.50,1,94.446,
01/01/2000,00:41:04.77,28.55,-55.63,-991.49,148.75,-638.75,-735.0,1,94.447,
01/01/2000,00:41:04.79,30.50,-55.51,-991.62,157.50,-787.50,-778.75,1,94.448,
01/01/2000,00:41:04.80,32.21,-55.51,-991.49,271.25,-770.0,-866.25,1,94.449,
01/01/2000,00:41:04.81,34.89,-55.51,-991.74,166.25,-735.0,-665.0,1,94.450,
01/01/2000,00:41:04.82,35.99,-55.88,-991.98,122.50,-717.50,-402.50,1,94.452,
01/01/2000,00:41:04.83,36.23,-56.00,-992.35,148.75,-665.0,-271.25,1,94.453,
01/01/2000,00:41:04.84,35.38,-56.36,-992.59,148.75,-691.25,-280.0,1,94.454,
01/01/2000,00:41:04.85,33.06,-55.88,-992.47,201.25,-796.25,-420.0,1,94.455,
01/01/2000,00:41:04.86,31.23,-55.39,-992.10,113.75,-831.25,-402.50,1,94.456,
01/01/2000,00:41:04.87,29.04,-55.27,-991.86,157.50,-691.25,-236.25,1,94.458,
01/01/2000,00:41:04.88,28.30,-55.14,-992.35,43.75,-743.75,-367.50,1,94.459,
01/01/2000,00:41:04.89,28.55,-55.75,-992.59,227.50,-560.0,-437.50,1,94.460,
01/01/2000,00:41:04.90,29.28,-55.88,-992.84,175.0,-708.75,-630.0,1,94.461,
01/01/2000,00:41:04.91,30.74,-56.00,-992.59,105.0,-638.75,-586.25,1,94.462,
01/01/2000,00:41:04.92,30.99,-55.88,-992.59,175.0,-778.75,-411.25,1,94.463,
01/01/2000,00:41:04.93,29.04,-56.00,-992.10,-61.25,-726.25,-35.0,1,94.444,
01/01/2000,00:41:04.94,27.21,-56.36,-991.86,358.75,-665.0,-253.75,1,94.446,
01/01/2000,00:41:04.95,25.74,-56.00,-992.10,166.25,-630.0,-665.0,1,94.447,
01/01/2000,00:41:04.96,25.01,-55.14,-992.59,183.75,-673.75,-498.75,1,94.448,
01/01/2000,00:41:04.97,25.13,-55.14,-992.35,140.0,-630.0,-131.25,1,94.449,
01/01/2000,00:41:04.98,25.13,-55.51,-991.98,148.75,-752.50,-288.75,1,94.450,
01/01/2000,00:41:04.99,25.13,-56.12,-991.86,105.0,-787.50,-350.0,1,94.452,
01/01/2000,00:41:05.01,24.52,-56.61,-991.98,175.0,-831.25,-463.75,1,94.453,
01/01/2000,00:41:05.02,24.16,-56.24,-992.23,140.0,-717.50,-551.25,1,94.454,
01/01/2000,00:41:05.03,23.67,-55.27,-992.47,210.0,-787.50,-446.25,1,94.455,
01/01/2000,00:41:05.04,23.42,-54.90,-992.35,210.0,-717.50,-166.25,1,94.456,
01/01/2000,00:41:05.05,23.30,-55.27,-992.10,113.75,-656.25,-218.75,1,94.457,
01/01/2000,00:41:05.06,23.30,-55.75,-991.98,70.0,-647.50,-262.50,1,94.459,
01/01/2000,00:41:05.07,23.42,-56.36,-991.98,210.0,-778.75,-463.75,1,94.460,
01/01/2000,00:41:05.08,23.42,-56.24,-992.10,297.50,-770.0,-358.75,1,94.461,
01/01/2000,00:41:05.09,23.18,-55.51,-992.35,183.75,-726.25,-323.75,1,94.442,
01/01/2000,00:41:05.10,23.06,-55.27,-992.47,323.75,-708.75,-420.0,1,94.443,
01/01/2000,00:41:05.11,22.94,-55.27,-992.59,166.25,-752.50,-280.0,1,94.444,
01/01/2000,00:41:05.13,22.69,-55.88,-992.35,183.75,-525.0,-271.25,1,94.446,
01/01/2000,00:41:05.14,22.94,-56.36,-992.23,131.25,-673.75,-481.25,1,94.447,
01/01/2000,00:41:05.15,22.94,-56.00,-992.10,26.25,-813.75,-385.0,1,94.448,
01/01/2000,00:41:05.16,22.81,-55.88,-992.10,183.75,-638.75,-323.75,1,94.449,
01/01/2000,00:41:05.17,22.57,-55.39,-992.10,271.25,-761.25,-437.50,1,94.450,
01/01/2000,00:41:05.18,22.33,-55.51,-992.35,122.50,-665.0,-323.75,1,94.452,
01/01/2000,00:41:05.19,22.20,-55.39,-992.35,78.75,-603.75,-367.50,1,94.453,
01/01/2000,00:41:05.20,22.45,-55.63,-992.23,8.75,-603.75,-323.75,1,94.454,
01/01/2000,00:41:05.21,22.45,-55.51,-992.10,0.0,-647.50,-376.25,1,94.455,
01/01/2000,00:41:05.22,22.45,-55.88,-992.10,192.50,-691.25,-227.50,1,94.456,
01/01/2000,00:41:05.23,22.45,-55.75,-992.10,332.50,-682.50,-455.0,1,94.457,
01/01/2000,00:41:05.24,22.20,-55.75,-992.35,87.50,-770.0,-323.75,1,94.459,
01/01/2000,00:41:05.25,22.33,-55.63,-992.59,157.50,-673.75,-323.75,1,94.460,
01/01/2000,00:41:05.26,22.33,-55.75,-992.35,271.25,-630.0,-297.50,1,94.461,
01/01/2000,00:41:05.27,22.33,-55.88,-991.98,87.50,-735.0,-280.0,1,94.462,
01/01/2000,00:41:05.28,22.45,-55.88,-991.86,8.75,-665.0,-315.0,1,94.443,
01/01/2000,00:41:05.29,22.33,-56.00,-991.86,140.0,-708.75,-385.0,1,94.444,
01/01/2000,00:41:05.30,22.20,-55.63,-992.10,87.50,-665.0,-332.50,1,94.446,
01/01/2000,00:41:05.31,22.33,-55.39,-992.10,140.0,-700.0,-323.75,1,94.447,
01/01/2000,00:41:05.32,22.20,-55.27,-991.98,192.50,-665.0,-481.25,1,94.448,
01/01/2000,00:41:05.33,22.20,-55.39,-991.86,148.75,-595.0,-350.0,1,94.449,
01/01/2000,00:41:05.34,22.33,-55.63,-991.98,157.50,-612.50,-358.75,1,94.450,
01/01/2000,00:41:05.36,22.69,-55.75,-992.23,201.25,-700.0,-341.25,1,94.451,
01/01/2000,00:41:05.37,22.57,-55.63,-992.10,61.25,-612.50,-428.75,1,94.453,
01/01/2000,00:41:05.38,22.45,-55.63,-991.98,61.25,-708.75,-280.0,1,94.454,
01/01/2000,00:41:05.39,22.45,-55.63,-991.86,166.25,-708.75,-323.75,1,94.455,
01/01/2000,00:41:05.40,22.45,-55.75,-991.86,323.75,-726.25,-210.0,1,94.456,
01/01/2000,00:41:05.41,22.45,-55.75,-991.98,105.0,-647.50,-332.50,1,94.457,
01/01/2000,00:41:05.42,22.57,-55.63,-991.98,262.50,-700.0,-420.0,1,94.459,
01/01/2000,00:41:05.43,22.57,-55.75,-991.98,253.75,-752.50,-280.0,1,94.460,
01/01/2000,00:41:05.44,22.69,-55.88,-991.98,201.25,-682.50,-393.75,1,94.461,
01/01/2000,00:41:05.45,22.57,-55.75,-992.10,43.75,-717.50,-245.0,1,94.442,
01/01/2000,00:41:05.46,22.69,-55.63,-992.35,253.75,-612.50,-350.0,1,94.463,
01/01/2000,00:41:05.47,22.69,-55.63,-992.23,210.0,-647.50,-297.50,1,94.444,
01/01/2000,00:41:05.48,22.69,-55.51,-992.10,218.75,-691.25,-385.0,1,94.446,
01/01/2000,00:41:05.49,22.69,-55.63,-991.98,148.75,-682.50,-306.25,1,94.447,
01/01/2000,00:41:05.51,22.57,-55.51,-992.10,122.50,-700.0,-402.50,1,94.448,
01/01/2000,00:41:05.52,22.57,-55.51,-992.10,131.25,-761.25,-288.75,1,94.449,
01/01/2000,00:41:05.53,22.57,-55.51,-992.23,131.25,-656.25,-288.75,1,94.450,
01/01/2000,00:41:05.54,22.45,-55.39,-992.10,122.50,-726.25,-236.25,1,94.451,
01/01/2000,00:41:05.55,22.45,-55.39,-992.10,148.75,-717.50,-358.75,1,94.453,
01/01/2000,00:41:05.56,22.45,-55.51,-992.10,157.50,-761.25,-271.25,1,94.454,
01/01/2000,00:41:05.57,22.45,-55.51,-992.10,175.0,-682.50,-288.75,1,94.455,
01/01/2000,00:41:05.58,22.57,-55.63,-992.10,192.50,-752.50,-402.50,1,94.456,
01/01/2000,00:41:05.59,22.45,-55.39,-992.10,201.25,-717.50,-245.0,1,94.457,
01/01/2000,00:41:05.60,22.45,-55.51,-992.10,113.75,-638.75,-332.50,1,94.458,
01/01/2000,00:41:05.61,22.33,-55.27,-992.23,140.0,-735.0,-175.0,1,94.460,
01/01/2000,00:41:05.62,22.45,-55.51,-992.35,140.0,-700.0,-297.50,1,94.461,
01/01/2000,00:41:05.64,22.57,-55.75,-992.10,148.75,-735.0,-315.0,1,94.442,
01/01/2000,00:41:05.65,22.57,-55.75,-992.10,52.50,-700.0,-297.50,1,94.443,
01/01/2000,00:41:05.66,22.45,-55.88,-992.10,201.25,-752.50,-262.50,1,94.444,
01/01/2000,00:41:05.67,22.20,-55.63,-992.10,105.0,-630.0,-315.0,1,94.446,
01/01/2000,00:41:05.68,22.20,-55.63,-992.23,96.25,-630.0,-341.25,1,94.447,
01/01/2000,00:41:05.69,22.20,-55.63,-992.35,166.25,-700.0,-315.0,1,94.448,
01/01/2000,00:41:05.70,22.45,-55.75,-992.35,-35.0,-595.0,-227.50,1,94.449,
01/01/2000,00:41:05.71,22.45,-55.88,-992.23,192.50,-717.50,-262.50,1,94.450,
01/01/2000,00:41:05.72,22.33,-55.88,-992.23,70.0,-778.75,-376.25,1,94.451,
01/01/2000,00:41:05.73,22.20,-55.75,-992.10,35.0,-673.75,-481.25,1,94.453,
01/01/2000,00:41:05.74,22.20,-55.63,-992.10,183.75,-647.50,-332.50,1,94.454,
01/01/2000,00:41:05.75,22.33,-55.51,-992.10,157.50,-735.0,-315.0,1,94.455,
01/01/2000,00:41:05.76,22.20,-55.39,-992.10,148.75,-638.75,-288.75,1,94.456,
01/01/2000,00:41:05.77,22.20,-55.63,-991.98,236.25,-691.25,-437.50,1,94.457,
01/01/2000,00:41:05.78,22.33,-55.75,-991.98,148.75,-691.25,-192.50,1,94.439,
01/01/2000,00:41:05.79,22.45,-55.88,-991.98,376.25,-612.50,-437.50,1,94.460,
01/01/2000,00:41:05.80,22.45,-55.63,-991.98,192.50,-743.75,-271.25,1,94.441,
01/01/2000,00:41:05.81,22.45,-55.51,-991.98,113.75,-682.50,-315.0,1,94.442,
01/01/2000,00:41:05.82,22.33,-55.63,-992.10,166.25,-735.0,-297.50,1,94.443,
01/01/2000,00:41:05.83,22.45,-55.63,-992.10,105.0,-647.50,-376.25,1,94.444,
01/01/2000,00:41:05.84,22.33,-55.75,-991.98,280.0,-708.75,-350.0,1,94.446,
01/01/2000,00:41:05.86,22.33,-55.63,-992.10,192.50,-778.75,-315.0,1,94.447,
01/01/2000,00:41:05.87,22.45,-55.63,-992.10,175.0,-761.25,-393.75,1,94.448,
01/01/2000,00:41:05.88,22.45,-55.75,-992.10,183.75,-621.25,-297.50,1,94.449,
01/01/2000,00:41:05.89,22.45,-55.75,-992.10,148.75,-682.50,-341.25,1,94.450,
01/01/2000,00:41:05.90,22.33,-55.63,-992.10,201.25,-665.0,-341.25,1,94.451,
01/01/2000,00:41:05.91,22.45,-55.63,-991.98,148.75,-682.50,-332.50,1,94.453,
01/01/2000,00:41:05.92,22.45,-55.75,-991.98,148.75,-743.75,-306.25,1,94.454,
01/01/2000,00:41:05.93,22.45,-55.88,-991.98,218.75,-595.0,-332.50,1,94.455,
01/01/2000,00:41:05.94,22.33,-55.88,-991.86,131.25,-805.0,-332.50,1,94.456,
01/01/2000,00:41:05.95,22.20,-55.63,-991.86,87.50,-682.50,-323.75,1,94.457,
01/01/2000,00:41:05.96,22.20,-55.51,-991.98,157.50,-612.50,-253.75,1,94.458,
01/01/2000,00:41:05.97,22.20,-55.63,-991.98,87.50,-647.50,-376.25,1,94.460,
01/01/2000,00:41:05.98,22.20,-55.63,-991.98,87.50,-656.25,-297.50,1,94.461,
01/01/2000,00:41:05.99,22.20,-55.63,-991.86,166.25,-700.0,-253.75,1,94.442,
01/01/2000,00:41:06.00,22.20,-55.51,-991.86,113.75,-603.75,-315.0,1,94.443,
01/01/2000,00:41:06.01,22.33,-55.51,-991.98,166.25,-656.25,-262.50,1,94.444,
01/01/2000,00:41:06.02,22.33,-55.51,-992.10,157.50,-743.75,-271.25,1,94.446,
01/01/2000,00:41:06.03,22.20,-55.51,-992.10,-52.50,-612.50,-218.75,1,94.447,
01/01/2000,00:41:06.04,22.20,-55.75,-992.10,210.0,-612.50,-490.0,1,94.448,
01/01/2000,00:41:06.05,22.20,-55.88,-991.86,245.0,-796.25,-393.75,1,94.449,
01/01/2000,00:41:06.07,22.45,-55.75,-991.86,227.50,-647.50,-262.50,1,94.450,
01/01/2000,00:41:06.08,22.45,-55.75,-991.98,61.25,-752.50,-323.75,1,94.451,
01/01/2000,00:41:06.09,22.33,-55.75,-992.10,245.0,-726.25,-323.75,1,94.453,
01/01/2000,00:41:06.10,22.20,-55.75,-992.10,105.0,-752.50,-420.0,1,94.454,
01/01/2000,00:41:06.11,22.33,-55.75,-992.23,140.0,-638.75,-376.25,1,94.455,
01/01/2000,00:41:06.12,22.45,-55.75,-992.23,52.50,-708.75,-306.25,1,94.456,
01/01/2000,00:41:06.13,22.45,-55.88,-992.23,148.75,-665.0,-280.0,1,94.457,
01/01/2000,00:41:06.15,22.33,-55.88,-992.35,218.75,-717.50,-306.25,1,94.439,
01/01/2000,00:41:06.16,22.33,-55.88,-992.23,236.25,-656.25,-472.50,1,94.440,
01/01/2000,00:41:06.17,22.45,-55.88,-992.23,140.0,-787.50,-341.25,1,94.441,
01/01/2000,00:41:06.18,22.45,-55.75,-992.10,218.75,-752.50,-245.0,1,94.442,
01/01/2000,00:41:06.19,22.33,-56.00,-992.10,175.0,-761.25,-271.25,1,94.443,
01/01/2000,00:41:06.20,22.33,-56.00,-992.10,105.0,-560.0,-245.0,1,94.444,
01/01/2000,00:41:06.21,22.20,-55.88,-992.10,271.25,-630.0,-428.75,1,94.446,
01/01/2000,00:41:06.22,22.20,-55.75,-992.23,175.0,-682.50,-376.25,1,94.447,
01/01/2000,00:41:06.23,22.20,-55.75,-992.35,-8.75,-761.25,-280.0,1,94.448,
01/01/2000,00:41:06.24,22.33,-55.75,-992.35,96.25,-726.25,-306.25,1,94.449,
01/01/2000,00:41:06.25,22.20,-55.63,-992.23,17.50,-647.50,-192.50,1,94.450,
01/01/2000,00:41:06.26,22.20,-55.63,-992.23,105.0,-673.75,-376.25,1,94.451,
01/01/2000,00:41:06.27,22.20,-55.63,-992.10,315.0,-700.0,-385.0,1,94.453,
01/01/2000,00:41:06.28,22.20,-55.51,-992.35,201.25,-735.0,-402.50,1,94.454,
01/01/2000,00:41:06.29,22.08,-55.51,-992.35,245.0,-708.75,-385.0,1,94.455,
01/01/2000,00:41:06.30,22.08,-55.51,-992.23,61.25,-735.0,-245.0,1,94.456,
01/01/2000,00:41:06.31,22.20,-55.51,-992.10,183.75,-682.50,-271.25,1,94.457,
01/01/2000,00:41:06.32,22.20,-55.63,-992.10,236.25,-700.0,-245.0,1,94.458,
01/01/2000,00:41:06.33,22.20,-55.63,-992.35,157.50,-682.50,-411.25,1,94.459,
01/01/2000,00:41:06.34,22.45,-55.39,-992.47,113.75,-770.0,-245.0,1,94.441,
01/01/2000,00:41:06.35,22.45,-55.51,-992.47,183.75,-656.25,-323.75,1,94.442,
01/01/2000,00:41:06.36,22.33,-55.51,-992.35,131.25,-691.25,-297.50,1,94.443,
01/01/2000,00:41:06.37,22.20,-55.51,-992.47,166.25,-647.50,-428.75,1,94.444,
01/01/2000,00:41:06.38,22.33,-55.63,-992.35,87.50,-665.0,-358.75,1,94.446,
01/01/2000,00:41:06.39,22.20,-55.39,-992.35,122.50,-805.0,-367.50,1,94.447,
01/01/2000,00:41:06.40,22.33,-55.39,-992.35,148.75,-708.75,-402.50,1,94.448,
01/01/2000,00:41:06.42,22.20,-55.63,-992.23,288.75,-673.75,-341.25,1,94.449,
01/01/2000,00:41:06.43,22.08,-55.63,-992.35,131.25,-743.75,-253.75,1,94.450,
01/01/2000,00:41:06.44,22.08,-55.63,-992.23,192.50,-673.75,-271.25,1,94.451,
01/01/2000,00:41:06.45,22.20,-55.75,-992.23,218.75,-708.75,-280.0,1,94.452,
01/01/2000,00:41:06.46,22.08,-55.75,-992.35,122.50,-682.50,-271.25,1,94.454,
01/01/2000,00:41:06.47,22.20,-55.63,-992.23,122.50,-761.25,-376.25,1,94.455,
01/01/2000,00:41:06.48,22.20,-55.75,-992.10,218.75,-682.50,-297.50,1,94.456,
01/01/2000,00:41:06.49,22.20,-55.75,-992.10,175.0,-735.0,-245.0,1,94.457,
01/01/2000,00:41:06.50,22.33,-56.00,-992.35,175.0,-673.75,-420.0,1,94.458,
01/01/2000,00:41:06.51,22.33,-56.00,-992.10,253.75,-752.50,-271.25,1,94.459,
01/01/2000,00:41:06.52,22.20,-56.00,-991.98,227.50,-673.75,-350.0,1,94.461,
01/01/2000,00:41:06.53,22.20,-55.88,-991.98,148.75,-647.50,-271.25,1,94.462,
01/01/2000,00:41:06.54,22.08,-55.88,-991.98,131.25,-717.50,-306.25,1,94.463,
01/01/2000,00:41:06.56,22.08,-55.75,-992.10,105.0,-656.25,-350.0,1,94.444,
01/01/2000,00:41:06.57,22.20,-55.88,-992.10,166.25,-708.75,-262.50,1,94.446,
01/01/2000,00:41:06.58,22.20,-55.88,-992.10,262.50,-673.75,-332.50,1,94.447,
01/01/2000,00:41:06.59,22.20,-55.88,-992.10,201.25,-551.25,-253.75,1,94.448,
01/01/2000,00:41:06.60,22.20,-56.00,-992.10,210.0,-822.50,-341.25,1,94.449,
01/01/2000,00:41:06.61,22.20,-55.88,-992.10,52.50,-778.75,-306.25,1,94.450,
01/01/2000,00:41:06.62,22.20,-55.88,-992.10,245.0,-778.75,-376.25,1,94.451,
01/01/2000,00:41:06.63,22.08,-55.75,-992.23,148.75,-691.25,-393.75,1,94.452,
01/01/2000,00:41:06.64,22.20,-55.88,-992.23,61.25,-612.50,-262.50,1,94.454,
01/01/2000,00:41:06.65,22.20,-55.88,-992.35,166.25,-595.0,-323.75,1,94.435,
01/01/2000,00:41:06.66,22.33,-56.12,-992.35,192.50,-665.0,-420.0,1,94.436,
01/01/2000,00:41:06.67,22.33,-56.12,-992.23,192.50,-735.0,-210.0,1,94.438,
01/01/2000,00:41:06.68,22.20,-55.88,-992.10,61.25,-770.0,-332.50,1,94.439,
01/01/2000,00:41:06.70,22.33,-55.88,-992.10,140.0,-700.0,-262.50,1,94.440,
01/01/2000,00:41:06.71,22.33,-55.88,-992.10,148.75,-595.0,-236.25,1,94.441,
01/01/2000,00:41:06.72,22.45,-55.63,-992.35,236.25,-813.75,-271.25,1,94.442,
01/01/2000,00:41:06.73,22.45,-55.88,-992.23,175.0,-743.75,-350.0,1,94.443,
01/01/2000,00:41:06.74,22.45,-55.75,-992.23,78.75,-700.0,-358.75,1,94.444,
01/01/2000,00:41:06.75,22.45,-55.75,-992.23,192.50,-787.50,-271.25,1,94.446,
01/01/2000,00:41:06.76,22.45,-55.75,-992.23,166.25,-770.0,-367.50,1,94.447,
01/01/2000,00:41:06.77,22.45,-55.63,-992.35,96.25,-691.25,-227.50,1,94.448,
01/01/2000,00:41:06.78,22.45,-55.75,-992.35,157.50,-726.25,-385.0,1,94.449,
01/01/2000,00:41:06.79,22.45,-55.75,-992.10,140.0,-708.75,-201.25,1,94.450,
01/01/2000,00:41:06.80,22.45,-55.88,-991.86,113.75,-700.0,-323.75,1,94.451,
01/01/2000,00:41:06.81,22.45,-56.00,-991.86,140.0,-726.25,-350.0,1,94.452,
01/01/2000,00:41:06.82,22.45,-55.88,-991.86,0.0,-717.50,-428.75,1,94.454,
01/01/2000,00:41:06.83,22.45,-55.88,-991.98,280.0,-586.25,-411.25,1,94.455,
01/01/2000,00:41:06.84,22.45,-55.75,-992.23,192.50,-603.75,-271.25,1,94.456,
01/01/2000,00:41:06.85,22.69,-55.75,-992.23,140.0,-910.0,-288.75,1,94.457,
01/01/2000,00:41:06.86,22.57,-55.75,-992.23,218.75,-708.75,-288.75,1,94.458,
01/01/2000,00:41:06.87,22.45,-55.88,-991.98,105.0,-560.0,-315.0,1,94.459,
01/01/2000,00:41:06.88,22.45,-55.88,-991.98,253.75,-813.75,-271.25,1,94.460,
01/01/2000,00:41:06.89,22.45,-55.88,-991.98,140.0,-665.0,-245.0,1,94.462,
01/01/2000,00:41:06.90,22.33,-55.75,-991.98,70.0,-708.75,-367.50,1,94.443,
01/01/2000,00:41:06.92,22.20,-55.63,-992.10,245.0,-630.0,-315.0,1,94.444,
01/01/2000,00:41:06.93,22.33,-55.63,-991.98,96.25,-717.50,-306.25,1,94.446,
01/01/2000,00:41:06.94,22.45,-55.63,-991.98,166.25,-708.75,-297.50,1,94.447,
01/01/2000,00:41:06.95,22.33,-55.63,-992.10,78.75,-647.50,-367.50,1,94.448,
01/01/2000,00:41:06.96,22.45,-55.75,-992.23,78.75,-726.25,-367.50,1,94.449,
01/01/2000,00:41:06.97,22.45,-55.63,-992.35,183.75,-656.25,-306.25,1,94.450,
01/01/2000,00:41:06.98,22.20,-55.51,-992.35,192.50,-691.25,-288.75,1,94.451,
01/01/2000,00:41:06.99,22.20,-55.63,-992.10,201.25,-717.50,-323.75,1,94.452,
01/01/2000,00:41:07.00,22.08,-55.63,-992.10,183.75,-647.50,-393.75,1,94.454,
01/01/2000,00:41:07.01,21.96,-55.63,-992.10,96.25,-770.0,-350.0,1,94.455,
01/01/2000,00:41:07.02,22.08,-55.88,-992.10,157.50,-621.25,-332.50,1,94.456,
01/01/2000,00:41:07.03,22.08,-55.88,-992.35,306.25,-568.75,-288.75,1,94.457,
01/01/2000,00:41:07.04,22.08,-55.75,-992.23,175.0,-752.50,-428.75,1,94.458,
01/01/2000,00:41:07.05,22.20,-55.88,-992.35,105.0,-586.25,-411.25,1,94.440,
01/01/2000,00:41:07.06,22.20,-55.75,-992.23,70.0,-717.50,-315.0,1,94.441,
01/01/2000,00:41:07.07,22.33,-56.00,-992.10,210.0,-673.75,-428.75,1,94.442,
01/01/2000,00:41:07.08,22.20,-56.12,-992.10,288.75,-796.25,-245.0,1,94.443,
01/01/2000,00:41:07.09,22.20,-56.24,-992.10,245.0,-708.75,-393.75,1,94.444,
01/01/2000,00:41:07.10,22.20,-56.12,-992.10,105.0,-630.0,-341.25,1,94.446,
01/01/2000,00:41:07.12,22.20,-55.88,-992.35,253.75,-665.0,-288.75,1,94.447,
01/01/2000,00:41:07.13,22.20,-55.75,-992.35,192.50,-708.75,-315.0,1,94.448,
01/01/2000,00:41:07.14,22.33,-55.63,-992.23,201.25,-673.75,-236.25,1,94.449,
01/01/2000,00:41:07.15,22.33,-55.63,-992.10,227.50,-621.25,-402.50,1,94.450,
01/01/2000,00:41:07.16,22.45,-55.75,-992.10,70.0,-743.75,-367.50,1,94.451,
01/01/2000,00:41:07.17,22.45,-55.63,-992.10,131.25,-761.25,-323.75,1,94.433,
01/01/2000,00:41:07.18,22.45,-55.39,-992.10,131.25,-752.50,-315.0,1,94.434,
01/01/2000,00:41:07.19,22.45,-55.63,-992.10,236.25,-726.25,-297.50,1,94.435,
01/01/2000,00:41:07.20,22.33,-55.51,-991.98,0.0,-735.0,-306.25,1,94.437,
01/01/2000,00:41:07.21,22.20,-55.75,-991.86,-26.25,-673.75,-332.50,1,94.438,
01/01/2000,00:41:07.22,22.33,-55.88,-991.98,288.75,-735.0,-253.75,1,94.439,
01/01/2000,00:41:07.23,22.20,-55.75,-992.10,131.25,-621.25,-402.50,1,94.440,
01/01/2000,00:41:07.24,22.33,-55.63,-992.10,157.50,-638.75,-393.75,1,94.441,
01/01/2000,00:41:07.25,22.33,-55.51,-992.10,70.0,-595.0,-262.50,1,94.442,
01/01/2000,00:41:07.26,22.33,-55.27,-992.10,183.75,-691.25,-350.0,1,94.443,
01/01/2000,00:41:07.27,22.33,-55.39,-992.10,96.25,-743.75,-253.75,1,94.444,
01/01/2000,00:41:07.29,22.33,-55.51,-992.10,122.50,-621.25,-358.75,1,94.446,
01/01/2000,00:41:07.29,22.45,-55.63,-992.10,166.25,-735.0,-367.50,1,94.447,
01/01/2000,00:41:07.31,22.45,-55.63,-991.98,122.50,-673.75,-358.75,1,94.448,
01/01/2000,00:41:07.32,22.45,-55.39,-992.10,87.50,-778.75,-288.75,1,94.449,
01/01/2000,00:41:07.33,22.45,-55.39,-991.98,280.0,-647.50,-420.0,1,94.450,
01/01/2000,00:41:07.34,22.45,-55.27,-992.10,122.50,-735.0,-218.75,1,94.451,
01/01/2000,00:41:07.35,22.33,-55.51,-992.23,52.50,-665.0,-306.25,1,94.452,
01/01/2000,00:41:07.36,22.33,-55.63,-992.10,157.50,-673.75,-385.0,1,94.453,
01/01/2000,00:41:07.37,22.33,-55.63,-991.98,210.0,-822.50,-367.50,1,94.455,
01/01/2000,00:41:07.38,22.45,-55.63,-991.86,192.50,-761.25,-341.25,1,94.456,
01/01/2000,00:41:07.39,22.45,-55.51,-992.10,105.0,-630.0,-288.75,1,94.457,
01/01/2000,00:41:07.40,22.33,-55.63,-992.23,52.50,-717.50,-332.50,1,94.439,
01/01/2000,00:41:07.41,22.20,-55.75,-992.47,192.50,-787.50,-245.0,1,94.440,
01/01/2000,00:41:07.42,22.20,-55.88,-992.59,210.0,-577.50,-507.50,1,94.441,
01/01/2000,00:41:07.43,22.20,-55.88,-992.47,113.75,-630.0,-385.0,1,94.442,
01/01/2000,00:41:07.44,22.20,-55.63,-992.59,175.0,-717.50,-358.75,1,94.443,
01/01/2000,00:41:07.45,22.20,-55.75,-992.59,78.75,-735.0,-271.25,1,94.444,
01/01/2000,00:41:07.46,22.33,-55.75,-992.59,122.50,-752.50,-288.75,1,94.446,
01/01/2000,00:41:07.48,22.45,-55.88,-992.47,192.50,-665.0,-455.0,1,94.447,
01/01/2000,00:41:07.49,22.20,-55.75,-992.35,157.50,-673.75,-385.0,1,94.448,
01/01/2000,00:41:07.50,22.45,-55.75,-992.35,113.75,-673.75,-315.0,1,94.449,
01/01/2000,00:41:07.51,22.45,-55.63,-992.23,122.50,-621.25,-253.75,1,94.450,
01/01/2000,00:41:07.52,22.45,-55.63,-992.35,70.0,-612.50,-350.0,1,94.451,
01/01/2000,00:41:07.53,22.45,-55.75,-992.47,236.25,-682.50,-446.25,1,94.452,
01/01/2000,00:41:07.54,22.33,-55.39,-992.47,122.50,-656.25,-393.75,1,94.453,
01/01/2000,00:41:07.55,22.33,-55.51,-992.23,61.25,-630.0,-236.25,1,94.455,
01/01/2000,00:41:07.56,22.33,-55.75,-992.10,201.25,-638.75,-323.75,1,94.456,
01/01/2000,00:41:07.57,22.08,-55.63,-992.23,166.25,-700.0,-341.25,1,94.457,
01/01/2000,00:41:07.58,22.20,-55.88,-992.35,17.50,-603.75,-428.75,1,94.458,
01/01/2000,00:41:07.59,22.08,-55.75,-992.59,113.75,-656.25,-297.50,1,94.459,
01/01/2000,00:41:07.60,22.08,-55.88,-992.59,166.25,-726.25,-393.75,1,94.460,
01/01/2000,00:41:07.61,22.08,-56.00,-992.23,122.50,-717.50,-358.75,1,94.442,
01/01/2000,00:41:07.62,22.08,-56.00,-992.10,148.75,-682.50,-306.25,1,94.443,
01/01/2000,00:41:07.63,22.08,-56.12,-992.23,122.50,-673.75,-341.25,1,94.444,
01/01/2000,00:41:07.65,21.96,-56.00,-992.35,122.50,-630.0,-210.0,1,94.446,
01/01/2000,00:41:07.65,22.20,-56.12,-992.35,175.0,-656.25,-350.0,1,94.447,
01/01/2000,00:41:07.67,22.20,-55.88,-992.23,192.50,-708.75,-306.25,1,94.448,
01/01/2000,00:41:07.68,22.08,-56.00,-992.10,192.50,-638.75,-393.75,1,94.449,
01/01/2000,00:41:07.69,22.20,-56.00,-992.35,350.0,-682.50,-507.50,1,94.431,
01/01/2000,00:41:07.70,22.33,-56.00,-992.35,78.75,-612.50,-280.0,1,94.432,
01/01/2000,00:41:07.71,22.20,-56.00,-992.10,78.75,-621.25,-218.75,1,94.433,
01/01/2000,00:41:07.72,22.20,-55.88,-991.98,253.75,-621.25,-358.75,1,94.434,
01/01/2000,00:41:07.73,22.20,-55.88,-991.74,280.0,-700.0,-253.75,1,94.435,
01/01/2000,00:41:07.74,22.20,-55.88,-991.74,122.50,-787.50,-350.0,1,94.437,
01/01/2000,00:41:07.76,22.20,-56.12,-991.86,210.0,-752.50,-218.75,1,94.438,
01/01/2000,00:41:07.77,22.33,-56.24,-991.86,122.50,-595.0,-350.0,1,94.439,
01/01/2000,00:41:07.78,22.33,-56.12,-991.86,166.25,-717.50,-218.75,1,94.440,
01/01/2000,00:41:07.79,22.45,-55.88,-991.86,148.75,-638.75,-315.0,1,94.441,
01/01/2000,00:41:07.80,22.45,-56.00,-991.86,140.0,-752.50,-332.50,1,94.442,
01/01/2000,00:41:07.81,22.45,-55.88,-991.98,148.75,-761.25,-236.25,1,94.443,
01/01/2000,00:41:07.82,22.45,-56.00,-991.98,157.50,-656.25,-253.75,1,94.444,
01/01/2000,00:41:07.83,22.20,-55.88,-992.10,148.75,-752.50,-472.50,1,94.446,
01/01/2000,00:41:07.84,22.33,-55.88,-992.10,236.25,-673.75,-192.50,1,94.447,
01/01/2000,00:41:07.85,22.45,-55.88,-991.86,210.0,-708.75,-446.25,1,94.448,
01/01/2000,00:41:07.86,22.45,-55.75,-991.86,26.25,-630.0,-262.50,1,94.449,
01/01/2000,00:41:07.87,22.57,-55.88,-992.10,148.75,-708.75,-315.0,1,94.450,
01/01/2000,00:41:07.88,22.45,-55.88,-992.10,35.0,-708.75,-341.25,1,94.451,
01/01/2000,00:41:07.89,22.45,-55.88,-992.10,183.75,-708.75,-350.0,1,94.452,
01/01/2000,00:41:07.90,22.45,-55.88,-992.10,87.50,-700.0,-306.25,1,94.453,
01/01/2000,00:41:07.91,22.45,-55.88,-992.10,105.0,-568.75,-315.0,1,94.454,
01/01/2000,00:41:07.92,22.45,-55.88,-991.98,183.75,-630.0,-288.75,1,94.456,
01/01/2000,00:41:07.93,22.45,-55.75,-991.98,26.25,-682.50,-411.25,1,94.457,
01/01/2000,00:41:07.94,22.45,-55.88,-992.10,-26.25,-638.75,-393.75,1,94.458,
01/01/2000,00:41:07.95,22.57,-55.75,-992.10,201.25,-691.25,-420.0,1,94.459,
01/01/2000,00:41:07.97,22.33,-55.75,-992.23,105.0,-752.50,-376.25,1,94.441,
01/01/2000,00:41:07.98,22.33,-55.75,-992.10,105.0,-813.75,-227.50,1,94.442,
01/01/2000,00:41:07.99,22.45,-55.75,-992.10,166.25,-761.25,-385.0,1,94.443,
01/01/2000,00:41:08.00,22.45,-55.63,-992.10,122.50,-560.0,-367.50,1,94.444,
01/01/2000,00:41:08.01,22.45,-55.63,-992.23,52.50,-726.25,-210.0,1,94.446,
01/01/2000,00:41:08.02,22.45,-55.51,-992.23,218.75,-682.50,-332.50,1,94.447,
01/01/2000,00:41:08.03,22.45,-55.63,-992.23,131.25,-507.50,-437.50,1,94.448,
01/01/2000,00:41:08.04,22.45,-55.63,-992.35,131.25,-682.50,-297.50,1,94.449,
01/01/2000,00:41:08.05,22.20,-55.63,-992.47,227.50,-665.0,-297.50,1,94.450,
01/01/2000,00:41:08.06,22.45,-55.75,-992.35,306.25,-621.25,-323.75,1,94.451,
01/01/2000,00:41:08.07,22.20,-55.63,-992.35,52.50,-778.75,-393.75,1,94.452,
01/01/2000,00:41:08.08,22.20,-55.51,-992.35,70.0,-612.50,-253.75,1,94.453,
01/01/2000,00:41:08.09,22.33,-55.63,-992.23,78.75,-665.0,-332.50,1,94.454,
01/01/2000,00:41:08.10,22.20,-55.63,-992.10,131.25,-630.0,-323.75,1,94.437,
01/01/2000,00:41:08.11,22.20,-56.00,-991.98,175.0,-630.0,-411.25,1,94.438,
01/01/2000,00:41:08.12,22.20,-55.88,-992.10,218.75,-691.25,-358.75,1,94.439,
01/01/2000,00:41:08.13,22.33,-55.75,-992.10,113.75,-700.0,-358.75,1,94.440,
01/01/2000,00:41:08.14,22.45,-55.75,-992.35,271.25,-708.75,-350.0,1,94.441,
01/01/2000,00:41:08.15,22.45,-55.63,-992.47,113.75,-612.50,-262.50,1,94.442,
01/01/2000,00:41:08.16,22.33,-55.88,-992.35,157.50,-700.0,-446.25,1,94.443,
01/01/2000,00:41:08.18,22.45,-55.63,-992.23,166.25,-586.25,-341.25,1,94.426,
01/01/2000,00:41:08.20,22.33,-55.63,-992.23,218.75,-568.75,-385.0,1,94.427,
01/01/2000,00:41:08.21,22.33,-55.51,-992.23,192.50,-700.0,-323.75,1,94.428,
01/01/2000,00:41:08.22,22.33,-55.51,-992.35,61.25,-665.0,-297.50,1,94.429,
01/01/2000,00:41:08.23,22.45,-55.39,-992.35,148.75,-621.25,-411.25,1,94.430,
01/01/2000,00:41:08.24,22.57,-55.39,-992.35,26.25,-665.0,-306.25,1,94.431,
01/01/2000,00:41:08.25,22.57,-55.51,-992.23,183.75,-682.50,-236.25,1,94.432,
01/01/2000,00:41:08.26,22.45,-55.63,-992.23,113.75,-673.75,-385.0,1,94.433,
01/01/2000,00:41:08.27,22.45,-55.75,-992.10,192.50,-796.25,-455.0,1,94.434,
01/01/2000,00:41:08.28,22.57,-55.63,-991.98,78.75,-691.25,-393.75,1,94.436,
01/01/2000,00:41:08.29,22.69,-55.63,-992.10,122.50,-761.25,-358.75,1,94.437,
01/01/2000,00:41:08.30,22.57,-55.51,-992.35,253.75,-700.0,-227.50,1,94.438,
01/01/2000,00:41:08.31,22.45,-55.75,-992.35,192.50,-700.0,-323.75,1,94.439,
01/01/2000,00:41:08.32,22.57,-55.88,-992.35,227.50,-612.50,-367.50,1,94.440,
01/01/2000,00:41:08.33,22.57,-56.00,-992.23,271.25,-656.25,-393.75,1,94.441,
01/01/2000,00:41:08.34,22.69,-55.63,-992.23,43.75,-761.25,-288.75,1,94.442,
01/01/2000,00:41:08.35,22.57,-55.63,-992.35,297.50,-691.25,-402.50,1,94.443,
01/01/2000,00:41:08.36,22.45,-55.63,-992.35,157.50,-708.75,-297.50,1,94.444,
01/01/2000,00:41:08.37,22.45,-55.75,-992.35,122.50,-621.25,-350.0,1,94.446,
01/01/2000,00:41:08.38,22.45,-55.88,-992.23,192.50,-691.25,-341.25,1,94.447,
01/01/2000,00:41:08.39,22.45,-55.88,-992.23,157.50,-717.50,-297.50,1,94.448,
01/01/2000,00:41:08.40,22.45,-55.63,-992.10,148.75,-778.75,-393.75,1,94.449,
01/01/2000,00:41:08.41,22.57,-55.63,-992.35,105.0,-726.25,-315.0,1,94.450,
01/01/2000,00:41:08.42,22.45,-55.75,-992.35,183.75,-630.0,-350.0,1,94.451,
01/01/2000,00:41:08.43,22.45,-55.88,-992.35,297.50,-761.25,-288.75,1,94.452,
01/01/2000,00:41:08.44,22.45,-55.63,-992.23,201.25,-621.25,-350.0,1,94.453,
01/01/2000,00:41:08.45,22.57,-55.88,-992.10,236.25,-647.50,-236.25,1,94.454,
01/01/2000,00:41:08.46,22.33,-55.88,-992.10,122.50,-656.25,-315.0,1,94.437,
01/01/2000,00:41:08.47,22.33,-55.75,-991.86,131.25,-787.50,-280.0,1,94.438,
01/01/2000,00:41:08.48,22.45,-55.63,-991.86,131.25,-770.0,-350.0,1,94.439,
01/01/2000,00:41:08.49,22.45,-55.39,-991.86,157.50,-735.0,-358.75,1,94.440,
01/01/2000,00:41:08.50,22.57,-55.39,-991.98,78.75,-752.50,-271.25,1,94.441,
01/01/2000,00:41:08.52,22.57,-55.63,-992.10,113.75,-682.50,-393.75,1,94.442,
01/01/2000,00:41:08.53,22.45,-55.63,-992.23,218.75,-743.75,-323.75,1,94.443,
01/01/2000,00:41:08.54,22.45,-55.75,-992.35,183.75,-647.50,-315.0,1,94.444,
01/01/2000,00:41:08.55,22.45,-55.63,-992.35,236.25,-717.50,-367.50,1,94.446,
01/01/2000,00:41:08.56,22.45,-55.51,-992.35,183.75,-700.0,-245.0,1,94.447,
01/01/2000,00:41:08.57,22.33,-55.63,-992.35,166.25,-700.0,-376.25,1,94.448,
01/01/2000,00:41:08.58,22.20,-55.75,-992.35,227.50,-647.50,-332.50,1,94.449,
01/01/2000,00:41:08.59,22.33,-55.88,-992.23,157.50,-822.50,-341.25,1,94.450,
01/01/2000,00:41:08.60,22.33,-55.63,-992.35,140.0,-752.50,-376.25,1,94.432,
01/01/2000,00:41:08.61,22.33,-55.75,-992.35,218.75,-656.25,-332.50,1,94.433,
01/01/2000,00:41:08.62,22.33,-55.63,-992.47,218.75,-665.0,-271.25,1,94.435,
01/01/2000,00:41:08.63,22.20,-55.75,-992.47,210.0,-656.25,-446.25,1,94.436,
01/01/2000,00:41:08.64,22.33,-55.75,-992.47,96.25,-691.25,-350.0,1,94.437,
01/01/2000,00:41:08.65,22.20,-55.63,-992.35,192.50,-656.25,-332.50,1,94.438,
01/01/2000,00:41:08.67,22.20,-55.63,-992.10,218.75,-726.25,-297.50,1,94.439,
01/01/2000,00:41:08.68,22.20,-55.63,-992.10,148.75,-735.0,-393.75,1,94.440,
01/01/2000,00:41:08.69,22.33,-55.75,-992.23,166.25,-700.0,-350.0,1,94.441,
01/01/2000,00:41:08.70,22.45,-55.75,-992.35,175.0,-735.0,-428.75,1,94.442,
01/01/2000,00:41:08.71,22.20,-55.88,-992.35,43.75,-770.0,-218.75,1,94.443,
01/01/2000,00:41:08.72,22.20,-55.88,-992.23,61.25,-700.0,-332.50,1,94.426,
01/01/2000,00:41:08.73,22.08,-55.88,-992.10,166.25,-621.25,-341.25,1,94.446,
01/01/2000,00:41:08.74,22.20,-55.75,-992.23,183.75,-743.75,-332.50,1,94.428,
01/01/2000,00:41:08.75,22.20,-55.88,-992.35,157.50,-533.75,-358.75,1,94.429,
01/01/2000,00:41:08.76,22.20,-55.75,-992.35,131.25,-717.50,-358.75,1,94.430,
01/01/2000,00:41:08.77,22.20,-55.88,-992.35,26.25,-638.75,-306.25,1,94.431,
01/01/2000,00:41:08.78,22.20,-55.63,-992.35,166.25,-665.0,-367.50,1,94.432,
01/01/2000,00:41:08.79,22.33,-55.63,-992.23,236.25,-735.0,-367.50,1,94.433,
01/01/2000,00:41:08.80,22.45,-55.75,-992.47,210.0,-796.25,-358.75,1,94.435,
01/01/2000,00:41:08.81,22.45,-56.00,-992.59,315.0,-735.0,-323.75,1,94.436,
01/01/2000,00:41:08.83,22.45,-56.12,-992.59,157.50,-708.75,-288.75,1,94.437,
01/01/2000,00:41:08.83,22.33,-55.88,-992.35,227.50,-761.25,-455.0,1,94.438,
01/01/2000,00:41:08.85,22.45,-56.00,-992.47,201.25,-743.75,-376.25,1,94.439,
01/01/2000,00:41:08.86,22.33,-55.75,-992.47,78.75,-595.0,-402.50,1,94.440,
01/01/2000,00:41:08.87,22.20,-55.88,-992.47,157.50,-630.0,-253.75,1,94.441,
01/01/2000,00:41:08.88,22.33,-55.88,-992.47,35.0,-805.0,-297.50,1,94.442,
01/01/2000,00:41:08.89,22.45,-55.88,-992.47,140.0,-700.0,-481.25,1,94.443,
01/01/2000,00:41:08.90,22.45,-55.88,-992.35,323.75,-691.25,-350.0,1,94.444,
01/01/2000,00:41:08.91,22.45,-55.63,-992.47,78.75,-682.50,-332.50,1,94.446,
01/01/2000,00:41:08.92,22.45,-55.63,-992.47,131.25,-761.25,-218.75,1,94.447,
01/01/2000,00:41:08.93,22.20,-55.75,-992.47,148.75,-708.75,-393.75,1,94.448,
01/01/2000,00:41:08.94,22.33,-56.00,-992.23,245.0,-656.25,-332.50,1,94.449,
01/01/2000,00:41:08.95,22.45,-55.75,-992.35,131.25,-735.0,-332.50,1,94.431,
01/01/2000,00:41:08.96,22.57,-55.88,-992.35,306.25,-682.50,-332.50,1,94.432,
01/01/2000,00:41:08.97,22.45,-55.88,-992.35,201.25,-726.25,-297.50,1,94.434,
01/01/2000,00:41:08.98,22.33,-55.88,-992.10,148.75,-735.0,-393.75,1,94.435,
01/01/2000,00:41:08.99,22.45,-55.88,-991.98,245.0,-743.75,-455.0,1,94.436,
01/01/2000,00:41:09.00,22.45,-55.88,-991.98,131.25,-656.25,-341.25,1,94.437,
01/01/2000,00:41:09.01,22.45,-55.75,-992.10,52.50,-700.0,-315.0,1,94.438,
01/01/2000,00:41:09.03,22.45,-55.63,-992.23,253.75,-761.25,-402.50,1,94.439,
01/01/2000,00:41:09.04,22.45,-55.39,-992.10,61.25,-708.75,-315.0,1,94.440,
01/01/2000,00:41:09.05,22.45,-55.63,-992.10,166.25,-787.50,-262.50,1,94.441,
01/01/2000,00:41:09.06,22.33,-55.63,-992.23,218.75,-665.0,-420.0,1,94.442,
01/01/2000,00:41:09.07,22.33,-55.88,-992.23,-8.75,-717.50,-315.0,1,94.443,
01/01/2000,00:41:09.08,22.45,-55.88,-992.10,78.75,-682.50,-376.25,1,94.444,
01/01/2000,00:41:09.09,22.45,-55.88,-991.98,96.25,-656.25,-297.50,1,94.446,
01/01/2000,00:41:09.10,22.45,-55.88,-992.10,96.25,-638.75,-455.0,1,94.447,
01/01/2000,00:41:09.11,22.33,-55.75,-992.10,253.75,-673.75,-271.25,1,94.448,
01/01/2000,00:41:09.12,22.33,-55.63,-992.10,87.50,-708.75,-350.0,1,94.449,
01/01/2000,00:41:09.13,22.20,-55.63,-992.10,175.0,-691.25,-350.0,1,94.450,
01/01/2000,00:41:09.14,22.20,-55.51,-992.10,70.0,-647.50,-350.0,1,94.451,
01/01/2000,00:41:09.15,22.20,-55.63,-992.10,332.50,-638.75,-358.75,1,94.452,
01/01/2000,00:41:09.16,22.45,-55.51,-992.23,175.0,-638.75,-350.0,1,94.435,
01/01/2000,00:41:09.17,22.45,-55.63,-992.10,192.50,-700.0,-420.0,1,94.436,
01/01/2000,00:41:09.18,22.57,-55.51,-992.10,218.75,-621.25,-420.0,1,94.437,
01/01/2000,00:41:09.19,22.45,-55.51,-992.23,70.0,-726.25,-245.0,1,94.438,
01/01/2000,00:41:09.21,22.57,-55.27,-992.35,96.25,-717.50,-323.75,1,94.439,
01/01/2000,00:41:09.22,22.45,-55.39,-992.35,148.75,-603.75,-315.0,1,94.440,
01/01/2000,00:41:09.23,22.33,-55.63,-992.35,-8.75,-787.50,-350.0,1,94.441,
01/01/2000,00:41:09.24,22.33,-55.63,-992.10,96.25,-630.0,-341.25,1,94.442,
01/01/2000,00:41:09.25,22.20,-55.51,-992.23,105.0,-700.0,-323.75,1,94.443,
01/01/2000,00:41:09.26,22.33,-55.51,-992.35,96.25,-621.25,-315.0,1,94.444,
01/01/2000,00:41:09.27,22.33,-55.39,-992.35,70.0,-708.75,-323.75,1,94.446,
01/01/2000,00:41:09.28,22.45,-55.51,-992.47,122.50,-700.0,-358.75,1,94.447,
01/01/2000,00:41:09.29,22.45,-55.75,-992.35,218.75,-708.75,-385.0,1,94.448,
01/01/2000,00:41:09.30,22.45,-55.75,-992.35,245.0,-603.75,-341.25,1,94.430,
01/01/2000,00:41:09.31,22.45,-55.88,-992.35,87.50,-638.75,-428.75,1,94.431,
01/01/2000,00:41:09.32,22.33,-55.75,-992.23,166.25,-647.50,-315.0,1,94.433,
01/01/2000,00:41:09.33,22.33,-55.63,-992.35,61.25,-630.0,-262.50,1,94.434,
01/01/2000,00:41:09.34,22.33,-55.75,-992.59,288.75,-586.25,-315.0,1,94.435,
01/01/2000,00:41:09.35,22.45,-55.63,-992.59,52.50,-682.50,-332.50,1,94.436,
01/01/2000,00:41:09.36,22.33,-55.75,-992.84,131.25,-673.75,-350.0,1,94.437,
01/01/2000,00:41:09.37,22.45,-55.88,-992.71,201.25,-647.50,-306.25,1,94.438,
01/01/2000,00:41:09.38,22.45,-55.88,-992.71,166.25,-700.0,-367.50,1,94.439,
01/01/2000,00:41:09.39,22.45,-55.75,-992.59,192.50,-813.75,-315.0,1,94.440,
01/01/2000,00:41:09.40,22.33,-55.75,-992.84,105.0,-603.75,-271.25,1,94.441,
01/01/2000,00:41:09.41,22.20,-55.88,-992.84,218.75,-630.0,-385.0,1,94.442,
01/01/2000,00:41:09.42,22.20,-55.88,-992.84,175.0,-691.25,-332.50,1,94.443,
01/01/2000,00:41:09.43,22.20,-55.88,-992.71,61.25,-735.0,-297.50,1,94.444,
01/01/2000,00:41:09.45,22.33,-55.88,-992.59,157.50,-673.75,-210.0,1,94.446,
01/01/2000,00:41:09.46,22.33,-55.88,-992.35,78.75,-638.75,-297.50,1,94.447,
01/01/2000,00:41:09.47,22.20,-55.88,-992.59,227.50,-673.75,-358.75,1,94.448,
01/01/2000,00:41:09.48,22.20,-55.75,-992.59,78.75,-673.75,-288.75,1,94.449,
01/01/2000,00:41:09.49,22.33,-55.88,-992.59,192.50,-665.0,-533.75,1,94.450,
01/01/2000,00:41:09.50,22.33,-55.88,-992.59,70.0,-752.50,-175.0,1,94.451,
01/01/2000,00:41:09.51,22.45,-56.00,-992.47,87.50,-603.75,-323.75,1,94.452,
01/01/2000,00:41:09.52,22.45,-56.12,-992.47,218.75,-752.50,-472.50,1,94.453,
01/01/2000,00:41:09.53,22.33,-55.88,-992.47,-105.0,-708.75,-315.0,1,94.454,
01/01/2000,00:41:09.54,22.45,-56.00,-992.47,236.25,-665.0,-332.50,1,94.455,
01/01/2000,00:41:09.55,22.45,-55.75,-992.47,175.0,-603.75,-332.50,1,94.438,
01/01/2000,00:41:09.56,22.33,-55.63,-992.47,52.50,-735.0,-280.0,1,94.457,
01/01/2000,00:41:09.57,22.45,-55.88,-992.47,376.25,-665.0,-420.0,1,94.440,
01/01/2000,00:41:09.59,22.45,-55.88,-992.47,43.75,-700.0,-428.75,1,94.441,
01/01/2000,00:41:09.60,22.69,-55.75,-992.47,183.75,-673.75,-315.0,1,94.442,
01/01/2000,00:41:09.61,22.57,-55.63,-992.35,148.75,-752.50,-315.0,1,94.443,
01/01/2000,00:41:09.62,22.69,-55.51,-992.35,105.0,-612.50,-393.75,1,94.444,
01/01/2000,00:41:09.63,22.69,-55.63,-992.35,166.25,-577.50,-350.0,1,94.446,
01/01/2000,00:41:09.64,22.69,-55.75,-992.35,105.0,-735.0,-350.0,1,94.447,
01/01/2000,00:41:09.65,22.69,-55.75,-992.35,192.50,-656.25,-271.25,1,94.448,
01/01/2000,00:41:09.66,22.45,-55.63,-992.47,8.75,-700.0,-367.50,1,94.449,
01/01/2000,00:41:09.67,22.45,-55.63,-992.59,262.50,-647.50,-332.50,1,94.450,
01/01/2000,00:41:09.68,22.45,-55.63,-992.59,96.25,-577.50,-306.25,1,94.451,
01/01/2000,00:41:09.69,22.45,-55.63,-992.59,297.50,-708.75,-245.0,1,94.452,
01/01/2000,00:41:09.70,22.45,-55.51,-992.47,131.25,-647.50,-323.75,1,94.453,
01/01/2000,00:41:09.71,22.45,-55.39,-992.47,175.0,-595.0,-376.25,1,94.436,
01/01/2000,00:41:09.73,22.45,-55.39,-992.35,262.50,-595.0,-420.0,1,94.437,
01/01/2000,00:41:09.74,22.45,-55.39,-992.47,218.75,-630.0,-358.75,1,94.438,
01/01/2000,00:41:09.75,22.45,-55.39,-992.59,218.75,-787.50,-245.0,1,94.439,
01/01/2000,00:41:09.76,22.45,-55.27,-992.35,61.25,-682.50,-192.50,1,94.440,
01/01/2000,00:41:09.77,22.45,-55.51,-992.35,175.0,-682.50,-323.75,1,94.441,
01/01/2000,00:41:09.78,22.45,-55.63,-992.47,157.50,-743.75,-297.50,1,94.442,
01/01/2000,00:41:09.79,22.45,-55.63,-992.35,210.0,-621.25,-358.75,1,94.443,
01/01/2000,00:41:09.80,22.57,-55.51,-992.35,52.50,-726.25,-192.50,1,94.444,
01/01/2000,00:41:09.81,22.33,-55.51,-992.35,131.25,-647.50,-245.0,1,94.446,
01/01/2000,00:41:09.82,22.33,-55.63,-992.35,218.75,-498.75,-271.25,1,94.447,
01/01/2000,00:41:09.83,22.45,-55.75,-992.35,183.75,-805.0,-315.0,1,94.448,
01/01/2000,00:41:09.84,22.45,-55.63,-992.35,175.0,-735.0,-350.0,1,94.449,
01/01/2000,00:41:09.85,22.57,-55.75,-992.47,122.50,-612.50,-393.75,1,94.450,
01/01/2000,00:41:09.86,22.57,-55.63,-992.23,253.75,-647.50,-323.75,1,94.451,
01/01/2000,00:41:09.87,22.57,-55.75,-992.10,192.50,-682.50,-498.75,1,94.434,
01/01/2000,00:41:09.88,22.45,-55.88,-992.10,70.0,-691.25,-245.0,1,94.435,
01/01/2000,00:41:09.89,22.57,-55.63,-992.10,52.50,-735.0,-455.0,1,94.436,
01/01/2000,00:41:09.90,22.57,-55.75,-992.23,105.0,-638.75,-323.75,1,94.437,
01/01/2000,00:41:09.91,22.45,-55.51,-992.23,122.50,-656.25,-376.25,1,94.438,
01/01/2000,00:41:09.92,22.45,-55.63,-992.35,70.0,-673.75,-218.75,1,94.439,
01/01/2000,00:41:09.94,22.45,-55.88,-992.35,105.0,-656.25,-306.25,1,94.440,
01/01/2000,00:41:09.95,22.45,-55.88,-992.35,192.50,-726.25,-358.75,1,94.441,
01/01/2000,00:41:09.96,22.45,-55.75,-992.23,218.75,-682.50,-385.0,1,94.442,
01/01/2000,00:41:09.97,22.33,-55.75,-992.23,166.25,-682.50,-306.25,1,94.443,
01/01/2000,00:41:09.98,22.20,-55.51,-992.23,166.25,-665.0,-253.75,1,94.444,
01/01/2000,00:41:09.99,22.20,-55.63,-992.35,70.0,-621.25,-288.75,1,94.446,
01/01/2000,00:41:10.00,22.20,-55.63,-992.35,183.75,-665.0,-385.0,1,94.447,
01/01/2000,00:41:10.01,22.20,-55.88,-992.35,166.25,-708.75,-183.75,1,94.448,
01/01/2000,00:41:10.02,22.20,-55.75,-992.35,183.75,-717.50,-376.25,1,94.449,
01/01/2000,00:41:10.03,22.20,-55.63,-992.35,227.50,-752.50,-306.25,1,94.450,
01/01/2000,00:41:10.04,22.33,-55.63,-992.35,227.50,-647.50,-306.25,1,94.451,
01/01/2000,00:41:10.05,22.33,-55.63,-992.59,140.0,-656.25,-253.75,1,94.452,
01/01/2000,00:41:10.06,22.20,-55.51,-992.59,148.75,-586.25,-376.25,1,94.453,
01/01/2000,00:41:10.07,22.45,-55.63,-992.59,61.25,-665.0,-280.0,1,94.454,
01/01/2000,00:41:10.08,22.69,-55.63,-992.47,288.75,-726.25,-218.75,1,94.437,
01/01/2000,00:41:10.09,22.57,-55.63,-992.35,113.75,-700.0,-332.50,1,94.438,
01/01/2000,00:41:10.10,22.45,-55.39,-992.23,253.75,-770.0,-402.50,1,94.439,
01/01/2000,00:41:10.11,22.20,-55.51,-992.23,166.25,-743.75,-446.25,1,94.440,
01/01/2000,00:41:10.12,22.20,-55.51,-992.10,52.50,-700.0,-350.0,1,94.441,
01/01/2000,00:41:10.13,22.33,-55.63,-992.10,297.50,-717.50,-218.75,1,94.442,
01/01/2000,00:41:10.15,22.45,-55.75,-991.98,183.75,-708.75,-358.75,1,94.443,
01/01/2000,00:41:10.16,22.45,-55.88,-991.86,157.50,-656.25,-428.75,1,94.444,
01/01/2000,00:41:10.17,22.45,-55.63,-991.86,105.0,-700.0,-297.50,1,94.446,
01/01/2000,00:41:10.18,22.45,-55.63,-991.98,183.75,-568.75,-332.50,1,94.447,
01/01/2000,00:41:10.19,22.45,-55.51,-991.98,-8.75,-603.75,-262.50,1,94.448,
01/01/2000,00:41:10.20,22.57,-55.51,-992.10,166.25,-665.0,-306.25,1,94.449,
01/01/2000,00:41:10.21,22.45,-55.39,-992.10,43.75,-770.0,-323.75,1,94.450,
01/01/2000,00:41:10.23,22.45,-55.51,-992.23,280.0,-682.50,-306.25,1,94.433,
01/01/2000,00:41:10.24,22.45,-55.63,-992.35,166.25,-665.0,-323.75,1,94.434,
01/01/2000,00:41:10.25,22.45,-55.51,-992.35,35.0,-673.75,-376.25,1,94.435,
01/01/2000,00:41:10.26,22.45,-55.39,-992.10,0.0,-673.75,-306.25,1,94.436,
01/01/2000,00:41:10.27,22.33,-55.51,-991.98,192.50,-708.75,-253.75,1,94.437,
01/01/2000,00:41:10.28,22.45,-55.39,-991.98,245.0,-743.75,-437.50,1,94.438,
01/01/2000,00:41:10.29,22.33,-55.39,-992.10,280.0,-700.0,-280.0,1,94.439,
01/01/2000,00:41:10.30,22.33,-55.63,-992.23,131.25,-630.0,-323.75,1,94.440,
01/01/2000,00:41:10.31,22.33,-55.63,-992.23,183.75,-770.0,-367.50,1,94.441,
01/01/2000,00:41:10.32,22.45,-55.39,-992.23,166.25,-612.50,-385.0,1,94.442,
01/01/2000,00:41:10.33,22.45,-55.39,-992.23,201.25,-621.25,-455.0,1,94.443,
01/01/2000,00:41:10.34,22.45,-55.39,-992.23,218.75,-700.0,-332.50,1,94.444,
01/01/2000,00:41:10.35,22.33,-55.39,-992.23,35.0,-735.0,-437.50,1,94.446,
01/01/2000,00:41:10.36,22.20,-55.39,-992.10,113.75,-682.50,-367.50,1,94.447,
01/01/2000,00:41:10.37,22.08,-55.39,-992.10,157.50,-778.75,-297.50,1,94.448,
01/01/2000,00:41:10.38,22.20,-55.39,-991.98,306.25,-577.50,-385.0,1,94.449,
01/01/2000,00:41:10.39,22.20,-55.39,-991.86,87.50,-700.0,-358.75,1,94.450,
01/01/2000,00:41:10.40,22.20,-55.14,-991.86,183.75,-726.25,-323.75,1,94.451,
01/01/2000,00:41:10.41,22.20,-55.39,-991.98,105.0,-630.0,-280.0,1,94.452,
01/01/2000,00:41:10.42,22.45,-55.63,-992.10,157.50,-665.0,-385.0,1,94.453,
01/01/2000,00:41:10.43,22.45,-55.75,-992.23,70.0,-726.25,-376.25,1,94.454,
01/01/2000,00:41:10.44,22.45,-55.75,-992.10,148.75,-787.50,-358.75,1,94.455,
01/01/2000,00:41:10.45,22.57,-55.51,-992.10,96.25,-647.50,-245.0,1,94.456,
01/01/2000,00:41:10.46,22.45,-55.51,-991.98,61.25,-665.0,-498.75,1,94.457,
01/01/2000,00:41:10.47,22.33,-55.88,-992.10,210.0,-717.50,-341.25,1,94.458,
01/01/2000,00:41:10.48,22.33,-55.63,-992.10,183.75,-647.50,-402.50,1,94.459,
01/01/2000,00:41:10.49,22.33,-55.88,-992.10,140.0,-752.50,-288.75,1,94.442,
01/01/2000,00:41:10.51,22.33,-55.88,-991.98,157.50,-691.25,-288.75,1,94.443,
01/01/2000,00:41:10.52,22.33,-55.88,-991.74,280.0,-647.50,-245.0,1,94.444,
01/01/2000,00:41:10.53,22.33,-55.75,-991.86,201.25,-638.75,-332.50,1,94.446,
01/01/2000,00:41:10.54,22.20,-55.75,-991.98,315.0,-726.25,-332.50,1,94.447,
01/01/2000,00:41:10.55,22.33,-55.88,-992.10,96.25,-717.50,-297.50,1,94.448,
01/01/2000,00:41:10.56,22.33,-55.75,-992.10,192.50,-560.0,-280.0,1,94.449,
01/01/2000,00:41:10.57,22.45,-55.63,-991.86,96.25,-647.50,-315.0,1,94.450,
01/01/2000,00:41:10.58,22.33,-55.75,-991.74,323.75,-726.25,-227.50,1,94.451,
01/01/2000,00:41:10.59,22.20,-55.75,-991.74,157.50,-630.0,-262.50,1,94.452,
01/01/2000,00:41:10.60,22.08,-55.75,-991.86,201.25,-735.0,-428.75,1,94.453,
01/01/2000,00:41:10.61,22.20,-55.75,-992.10,183.75,-638.75,-332.50,1,94.454,
01/01/2000,00:41:10.62,22.20,-55.75,-992.10,183.75,-778.75,-271.25,1,94.455,
01/01/2000,00:41:10.63,22.20,-55.63,-991.98,183.75,-717.50,-306.25,1,94.456,
01/01/2000,00:41:10.64,22.45,-55.75,-992.10,183.75,-726.25,-463.75,1,94.439,
01/01/2000,00:41:10.65,22.45,-55.75,-991.98,175.0,-717.50,-376.25,1,94.440,
01/01/2000,00:41:10.66,22.33,-55.63,-992.23,43.75,-717.50,-297.50,1,94.441,
01/01/2000,00:41:10.67,22.45,-55.63,-991.98,70.0,-796.25,-367.50,1,94.442,
01/01/2000,00:41:10.68,22.33,-55.51,-991.86,183.75,-752.50,-210.0,1,94.443,
01/01/2000,00:41:10.69,22.33,-55.39,-991.86,166.25,-761.25,-385.0,1,94.444,
01/01/2000,00:41:10.70,22.45,-55.51,-991.86,192.50,-603.75,-315.0,1,94.446,
01/01/2000,00:41:10.72,22.45,-55.39,-991.86,35.0,-708.75,-253.75,1,94.447,
01/01/2000,00:41:10.73,22.69,-55.63,-991.86,96.25,-761.25,-280.0,1,94.448,
01/01/2000,00:41:10.74,22.45,-55.63,-991.98,35.0,-682.50,-271.25,1,94.431,
01/01/2000,00:41:10.75,22.57,-55.51,-992.10,148.75,-743.75,-367.50,1,94.432,
01/01/2000,00:41:10.76,22.57,-55.51,-992.10,192.50,-787.50,-402.50,1,94.433,
01/01/2000,00:41:10.77,22.69,-55.39,-992.10,122.50,-708.75,-280.0,1,94.434,
01/01/2000,00:41:10.78,22.69,-55.63,-992.10,210.0,-647.50,-315.0,1,94.435,
01/01/2000,00:41:10.79,22.57,-55.63,-992.10,78.75,-700.0,-297.50,1,94.436,
01/01/2000,00:41:10.80,22.57,-55.63,-992.10,78.75,-691.25,-516.25,1,94.437,
01/01/2000,00:41:10.81,22.57,-55.63,-992.10,140.0,-700.0,-315.0,1,94.438,
01/01/2000,00:41:10.82,22.45,-55.39,-992.10,201.25,-813.75,-288.75,1,94.439,
01/01/2000,00:41:10.83,22.45,-55.63,-992.10,148.75,-708.75,-315.0,1,94.440,
01/01/2000,00:41:10.84,22.45,-55.39,-992.10,166.25,-735.0,-385.0,1,94.441,
01/01/2000,00:41:10.86,22.45,-55.63,-992.23,148.75,-708.75,-376.25,1,94.442,
01/01/2000,00:41:10.87,22.45,-55.51,-992.23,78.75,-796.25,-367.50,1,94.443,
01/01/2000,00:41:10.88,22.45,-55.51,-992.10,148.75,-673.75,-323.75,1,94.444,
01/01/2000,00:41:10.89,22.45,-55.63,-992.10,201.25,-735.0,-280.0,1,94.445,
01/01/2000,00:41:10.90,22.20,-55.39,-992.10,87.50,-770.0,-385.0,1,94.447,
01/01/2000,00:41:10.91,22.33,-55.51,-992.10,52.50,-656.25,-218.75,1,94.448,
01/01/2000,00:41:10.92,22.45,-55.63,-991.98,175.0,-752.50,-385.0,1,94.449,
01/01/2000,00:41:10.93,22.20,-55.75,-991.98,122.50,-691.25,-341.25,1,94.450,
01/01/2000,00:41:10.94,22.33,-55.75,-991.86,157.50,-770.0,-393.75,1,94.451,
01/01/2000,00:41:10.95,22.08,-55.75,-991.86,96.25,-700.0,-332.50,1,94.452,
01/01/2000,00:41:10.96,22.20,-55.88,-991.98,227.50,-735.0,-297.50,1,94.453,
01/01/2000,00:41:10.97,22.20,-55.88,-992.10,297.50,-708.75,-385.0,1,94.454,
01/01/2000,00:41:10.98,22.20,-55.88,-992.10,175.0,-630.0,-306.25,1,94.455,
01/01/2000,00:41:10.99,22.20,-55.88,-992.23,148.75,-717.50,-280.0,1,94.438,
01/01/2000,00:41:11.00,22.33,-55.88,-992.35,262.50,-770.0,-428.75,1,94.439,
01/01/2000,00:41:11.01,22.45,-56.00,-992.35,70.0,-752.50,-393.75,1,94.440,
01/01/2000,00:41:11.02,22.45,-55.88,-992.35,148.75,-735.0,-306.25,1,94.441,
01/01/2000,00:41:11.03,22.45,-55.88,-992.47,140.0,-735.0,-402.50,1,94.442,
01/01/2000,00:41:11.04,22.45,-55.75,-992.35,113.75,-630.0,-192.50,1,94.443,
01/01/2000,00:41:11.05,22.45,-55.88,-992.23,297.50,-673.75,-428.75,1,94.444,
01/01/2000,00:41:11.07,22.33,-55.88,-991.98,201.25,-568.75,-402.50,1,94.445,
01/01/2000,00:41:11.08,22.20,-55.75,-991.98,271.25,-700.0,-358.75,1,94.447,
01/01/2000,00:41:11.09,22.33,-55.75,-992.10,166.25,-612.50,-323.75,1,94.448,
01/01/2000,00:41:11.10,22.45,-55.75,-992.23,175.0,-726.25,-271.25,1,94.449,
01/01/2000,00:41:11.11,22.45,-55.75,-992.35,96.25,-656.25,-350.0,1,94.450,
01/01/2000,00:41:11.12,22.20,-55.88,-992.10,122.50,-752.50,-332.50,1,94.451,
01/01/2000,00:41:11.13,22.20,-55.88,-991.86,262.50,-603.75,-350.0,1,94.452,
01/01/2000,00:41:11.14,22.20,-55.63,-991.86,183.75,-761.25,-315.0,1,94.453,
01/01/2000,00:41:11.15,22.33,-55.63,-991.86,183.75,-621.25,-201.25,1,94.454,
01/01/2000,00:41:11.16,22.33,-55.63,-991.86,122.50,-743.75,-358.75,1,94.455,
01/01/2000,00:41:11.17,22.33,-55.88,-992.10,323.75,-691.25,-306.25,1,94.456,
01/01/2000,00:41:11.18,22.20,-56.00,-992.10,148.75,-630.0,-376.25,1,94.457,
01/01/2000,00:41:11.19,22.33,-55.88,-991.98,175.0,-586.25,-358.75,1,94.458,
01/01/2000,00:41:11.21,22.33,-55.63,-991.98,201.25,-717.50,-341.25,1,94.441,
01/01/2000,00:41:11.21,22.20,-55.75,-991.98,113.75,-691.25,-297.50,1,94.442,
01/01/2000,00:41:11.23,22.33,-55.63,-992.10,245.0,-717.50,-393.75,1,94.443,
01/01/2000,00:41:11.24,22.33,-55.88,-992.10,166.25,-778.75,-393.75,1,94.444,
01/01/2000,00:41:11.25,22.45,-55.63,-992.10,192.50,-822.50,-253.75,1,94.445,
01/01/2000,00:41:11.26,22.33,-55.63,-991.98,175.0,-656.25,-385.0,1,94.447,
01/01/2000,00:41:11.27,22.45,-55.75,-991.86,280.0,-717.50,-315.0,1,94.448,
01/01/2000,00:41:11.28,22.45,-55.75,-992.23,140.0,-708.75,-350.0,1,94.449,
01/01/2000,00:41:11.29,22.45,-55.75,-992.35,148.75,-656.25,-262.50,1,94.450,
01/01/2000,00:41:11.30,22.45,-55.88,-992.47,210.0,-752.50,-402.50,1,94.433,
01/01/2000,00:41:11.31,22.45,-55.75,-992.35,175.0,-708.75,-323.75,1,94.452,
01/01/2000,00:41:11.32,22.45,-55.63,-992.10,35.0,-656.25,-323.75,1,94.435,
01/01/2000,00:41:11.33,22.33,-55.63,-992.23,280.0,-752.50,-350.0,1,94.436,
01/01/2000,00:41:11.34,22.20,-55.63,-992.35,78.75,-761.25,-315.0,1,94.437,
01/01/2000,00:41:11.35,22.33,-55.75,-992.47,218.75,-682.50,-376.25,1,94.438,
01/01/2000,00:41:11.36,22.20,-55.63,-992.10,52.50,-682.50,-297.50,1,94.439,
01/01/2000,00:41:11.37,22.20,-55.75,-991.98,148.75,-638.75,-297.50,1,94.440,
01/01/2000,00:41:11.38,22.20,-55.63,-991.86,192.50,-682.50,-341.25,1,94.441,
01/01/2000,00:41:11.39,22.20,-55.63,-991.98,52.50,-700.0,-192.50,1,94.442,
01/01/2000,00:41:11.40,22.20,-55.63,-992.23,210.0,-735.0,-481.25,1,94.443,
01/01/2000,00:41:11.42,22.20,-55.63,-992.35,157.50,-665.0,-210.0,1,94.444,
01/01/2000,00:41:11.42,22.20,-55.39,-992.35,131.25,-813.75,-437.50,1,94.445,
01/01/2000,00:41:11.44,22.33,-55.51,-992.10,175.0,-586.25,-288.75,1,94.447,
01/01/2000,00:41:11.45,22.33,-55.39,-991.98,315.0,-656.25,-332.50,1,94.448,
01/01/2000,00:41:11.46,22.33,-55.14,-992.10,148.75,-638.75,-288.75,1,94.449,
01/01/2000,00:41:11.47,22.33,-55.39,-992.23,218.75,-682.50,-498.75,1,94.450,
01/01/2000,00:41:11.48,22.20,-55.14,-992.35,61.25,-630.0,-175.0,1,94.451,
01/01/2000,00:41:11.49,22.20,-55.14,-992.23,122.50,-813.75,-455.0,1,94.452,
01/01/2000,00:41:11.50,22.45,-55.14,-992.23,87.50,-761.25,-341.25,1,94.453,
01/01/2000,00:41:11.51,22.45,-55.39,-992.35,105.0,-726.25,-393.75,1,94.454,
01/01/2000,00:41:11.52,22.45,-55.39,-992.35,175.0,-647.50,-446.25,1,94.455,
01/01/2000,00:41:11.53,22.45,-55.39,-992.10,148.75,-665.0,-280.0,1,94.456,
01/01/2000,00:41:11.54,22.33,-55.39,-992.10,43.75,-717.50,-271.25,1,94.457,
01/01/2000,00:41:11.55,22.45,-55.39,-991.98,105.0,-621.25,-297.50,1,94.440,
01/01/2000,00:41:11.56,22.45,-55.39,-992.10,105.0,-665.0,-218.75,1,94.441,
01/01/2000,00:41:11.57,22.45,-55.51,-991.98,218.75,-586.25,-297.50,1,94.442,
01/01/2000,00:41:11.58,22.45,-55.63,-991.98,157.50,-647.50,-332.50,1,94.443,
01/01/2000,00:41:11.59,22.45,-55.75,-991.98,26.25,-691.25,-402.50,1,94.444,
01/01/2000,00:41:11.60,22.33,-55.63,-992.10,148.75,-708.75,-332.50,1,94.445,
01/01/2000,00:41:11.61,22.45,-55.63,-992.10,245.0,-586.25,-236.25,1,94.447,
01/01/2000,00:41:11.63,22.45,-55.63,-992.10,157.50,-691.25,-280.0,1,94.448,
01/01/2000,00:41:11.64,22.33,-55.63,-992.10,87.50,-708.75,-192.50,1,94.449,
01/01/2000,00:41:11.65,22.20,-55.88,-992.10,253.75,-647.50,-402.50,1,94.450,
01/01/2000,00:41:11.66,22.45,-55.75,-992.35,148.75,-647.50,-358.75,1,94.451,
01/01/2000,00:41:11.67,22.45,-55.75,-992.35,-17.50,-726.25,-350.0,1,94.452,
01/01/2000,00:41:11.68,22.33,-55.63,-992.23,140.0,-665.0,-323.75,1,94.453,
01/01/2000,00:41:11.69,22.33,-55.75,-992.23,122.50,-770.0,-393.75,1,94.454,
01/01/2000,00:41:11.70,22.45,-55.88,-992.35,210.0,-761.25,-402.50,1,94.455,
01/01/2000,00:41:11.71,22.45,-55.75,-992.35,105.0,-726.25,-288.75,1,94.456,
01/01/2000,00:41:11.72,22.45,-55.88,-992.23,192.50,-656.25,-288.75,1,94.457,
01/01/2000,00:41:11.73,22.69,-55.63,-992.23,271.25,-796.25,-341.25,1,94.458,
01/01/2000,00:41:11.74,22.69,-55.63,-992.10,175.0,-787.50,-402.50,1,94.459,
01/01/2000,00:41:11.75,22.57,-55.63,-992.10,0.0,-805.0,-192.50,1,94.460,
01/01/2000,00:41:11.77,22.45,-55.75,-992.10,183.75,-638.75,-393.75,1,94.443,
01/01/2000,00:41:11.78,22.45,-55.88,-991.98,96.25,-708.75,-385.0,1,94.444,
01/01/2000,00:41:11.79,22.33,-55.88,-991.98,271.25,-638.75,-376.25,1,94.445,
01/01/2000,00:41:11.80,22.33,-55.88,-992.10,-8.75,-743.75,-350.0,1,94.447,
01/01/2000,00:41:11.81,22.33,-55.88,-992.10,306.25,-525.0,-367.50,1,94.448,
01/01/2000,00:41:11.82,22.45,-55.88,-992.10,210.0,-612.50,-376.25,1,94.449,
01/01/2000,00:41:11.83,22.33,-55.63,-992.10,96.25,-682.50,-323.75,1,94.450,
01/01/2000,00:41:11.84,22.33,-55.51,-991.98,61.25,-805.0,-227.50,1,94.451,
01/01/2000,00:41:11.85,22.45,-55.39,-991.86,148.75,-752.50,-393.75,1,94.452,
01/01/2000,00:41:11.86,22.33,-55.51,-991.86,245.0,-708.75,-271.25,1,94.453,
01/01/2000,00:41:11.87,22.45,-55.63,-991.86,175.0,-586.25,-446.25,1,94.454,
01/01/2000,00:41:11.88,22.45,-55.63,-991.98,288.75,-647.50,-253.75,1,94.455,
01/01/2000,00:41:11.89,22.57,-55.51,-991.98,166.25,-630.0,-358.75,1,94.456,
01/01/2000,00:41:11.90,22.57,-55.63,-992.10,236.25,-656.25,-332.50,1,94.457,
01/01/2000,00:41:11.91,22.57,-55.39,-991.98,96.25,-778.75,-490.0,1,94.440,
01/01/2000,00:41:11.92,22.57,-55.39,-992.10,192.50,-665.0,-201.25,1,94.441,
01/01/2000,00:41:11.93,22.57,-55.27,-992.10,122.50,-665.0,-420.0,1,94.442,
01/01/2000,00:41:11.94,22.69,-55.39,-992.10,140.0,-700.0,-481.25,1,94.443,
01/01/2000,00:41:11.95,22.57,-55.39,-992.10,113.75,-638.75,-288.75,1,94.444,
01/01/2000,00:41:11.96,22.45,-55.51,-992.10,166.25,-621.25,-428.75,1,94.445,
01/01/2000,00:41:11.98,22.45,-55.27,-992.10,26.25,-770.0,-315.0,1,94.447,
01/01/2000,00:41:11.99,22.45,-55.39,-992.10,297.50,-665.0,-306.25,1,94.448,
01/01/2000,00:41:12.00,22.45,-55.39,-992.35,131.25,-743.75,-297.50,1,94.449,
01/01/2000,00:41:12.01,22.45,-55.51,-992.35,148.75,-708.75,-227.50,1,94.450,
01/01/2000,00:41:12.02,22.45,-55.63,-992.35,96.25,-796.25,-358.75,1,94.451,
01/01/2000,00:41:12.03,22.45,-55.75,-992.10,201.25,-813.75,-420.0,1,94.452,
01/01/2000,00:41:12.04,22.45,-55.88,-992.10,148.75,-726.25,-420.0,1,94.453,
01/01/2000,00:41:12.05,22.45,-55.75,-992.23,148.75,-673.75,-358.75,1,94.454,
01/01/2000,00:41:12.06,22.57,-55.75,-992.23,157.50,-700.0,-358.75,1,94.455,
01/01/2000,00:41:12.07,22.69,-55.75,-992.10,148.75,-700.0,-297.50,1,94.456,
01/01/2000,00:41:12.08,22.57,-55.88,-992.10,175.0,-708.75,-271.25,1,94.457,
01/01/2000,00:41:12.09,22.57,-55.88,-992.10,113.75,-656.25,-393.75,1,94.458,
01/01/2000,00:41:12.10,22.45,-55.63,-992.10,-17.50,-691.25,-297.50,1,94.459,
01/01/2000,00:41:12.11,22.45,-55.63,-992.10,61.25,-691.25,-253.75,1,94.460,
01/01/2000,00:41:12.12,22.57,-55.63,-992.35,175.0,-682.50,-280.0,1,94.443,
01/01/2000,00:41:12.14,22.45,-55.63,-992.35,183.75,-700.0,-332.50,1,94.444,
01/01/2000,00:41:12.15,22.45,-55.63,-992.47,323.75,-778.75,-280.0,1,94.445,
01/01/2000,00:41:12.16,22.57,-55.63,-992.47,52.50,-735.0,-428.75,1,94.447,
01/01/2000,00:41:12.17,22.45,-55.75,-992.47,297.50,-673.75,-376.25,1,94.448,
01/01/2000,00:41:12.18,22.69,-55.75,-992.35,227.50,-770.0,-376.25,1,94.449,
01/01/2000,00:41:12.19,22.69,-55.75,-992.35,183.75,-665.0,-376.25,1,94.450,
01/01/2000,00:41:12.20,22.57,-55.63,-992.35,105.0,-717.50,-411.25,1,94.451,
01/01/2000,00:41:12.21,22.57,-55.63,-992.35,262.50,-743.75,-183.75,1,94.452,
01/01/2000,00:41:12.22,22.57,-55.75,-992.35,35.0,-743.75,-437.50,1,94.453,
01/01/2000,00:41:12.23,22.57,-55.88,-992.35,17.50,-822.50,-376.25,1,94.454,
01/01/2000,00:41:12.24,22.45,-55.88,-992.47,262.50,-691.25,-350.0,1,94.455,
01/01/2000,00:41:12.25,22.45,-55.88,-992.35,253.75,-708.75,-376.25,1,94.456,
01/01/2000,00:41:12.26,22.45,-55.63,-992.47,166.25,-700.0,-262.50,1,94.439,
01/01/2000,00:41:12.28,22.45,-55.75,-992.59,210.0,-743.75,-262.50,1,94.440,
01/01/2000,00:41:12.29,22.33,-55.75,-992.35,105.0,-691.25,-446.25,1,94.441,
01/01/2000,00:41:12.30,22.33,-55.88,-992.23,70.0,-691.25,-323.75,1,94.442,
01/01/2000,00:41:12.31,22.20,-55.75,-992.10,201.25,-726.25,-332.50,1,94.443,
01/01/2000,00:41:12.32,22.33,-55.63,-992.35,43.75,-761.25,-280.0,1,94.444,
01/01/2000,00:41:12.33,22.45,-55.63,-992.35,140.0,-700.0,-367.50,1,94.445,
01/01/2000,00:41:12.34,22.45,-55.63,-992.35,166.25,-630.0,-306.25,1,94.429,
01/01/2000,00:41:12.35,22.20,-55.75,-992.35,192.50,-656.25,-411.25,1,94.430,
01/01/2000,00:41:12.36,22.33,-55.63,-992.23,87.50,-761.25,-280.0,1,94.431,
01/01/2000,00:41:12.37,22.33,-55.75,-992.35,166.25,-708.75,-446.25,1,94.432,
01/01/2000,00:41:12.38,22.33,-55.63,-992.35,26.25,-717.50,-297.50,1,94.433,
01/01/2000,00:41:12.39,22.20,-55.63,-992.23,192.50,-735.0,-297.50,1,94.434,
01/01/2000,00:41:12.40,22.20,-55.51,-992.10,113.75,-612.50,-306.25,1,94.435,
01/01/2000,00:41:12.41,22.33,-55.51,-992.10,78.75,-752.50,-306.25,1,94.436,
01/01/2000,00:41:12.42,22.33,-55.51,-992.10,201.25,-656.25,-280.0,1,94.437,
01/01/2000,00:41:12.43,22.33,-55.88,-992.10,210.0,-665.0,-367.50,1,94.438,
01/01/2000,00:41:12.44,22.45,-55.75,-992.10,166.25,-761.25,-428.75,1,94.439,
01/01/2000,00:41:12.45,22.45,-56.00,-992.10,210.0,-656.25,-420.0,1,94.440,
01/01/2000,00:41:12.46,22.45,-55.63,-992.35,-26.25,-796.25,-297.50,1,94.441,
01/01/2000,00:41:12.48,22.45,-55.88,-992.47,157.50,-708.75,-315.0,1,94.442,
01/01/2000,00:41:12.49,22.33,-55.63,-992.47,8.75,-735.0,-385.0,1,94.443,
01/01/2000,00:41:12.50,22.45,-55.88,-992.59,271.25,-656.25,-315.0,1,94.444,
01/01/2000,00:41:12.51,22.45,-55.75,-992.47,192.50,-708.75,-271.25,1,94.445,
01/01/2000,00:41:12.52,22.45,-55.75,-992.35,192.50,-770.0,-350.0,1,94.446,
01/01/2000,00:41:12.53,22.45,-55.75,-992.23,192.50,-612.50,-245.0,1,94.448,
01/01/2000,00:41:12.54,22.45,-55.63,-992.35,315.0,-630.0,-393.75,1,94.449,
01/01/2000,00:41:12.55,22.45,-55.63,-992.23,96.25,-761.25,-271.25,1,94.450,
01/01/2000,00:41:12.56,22.33,-55.63,-992.10,157.50,-778.75,-315.0,1,94.451,
01/01/2000,00:41:12.57,22.45,-55.63,-991.98,61.25,-691.25,-323.75,1,94.452,
01/01/2000,00:41:12.58,22.45,-55.75,-991.86,297.50,-752.50,-288.75,1,94.453,
01/01/2000,00:41:12.59,22.45,-55.51,-991.98,183.75,-673.75,-358.75,1,94.454,
01/01/2000,00:41:12.60,22.45,-55.88,-992.10,218.75,-796.25,-358.75,1,94.455,
01/01/2000,00:41:12.61,22.45,-55.63,-991.86,113.75,-691.25,-253.75,1,94.438,
01/01/2000,00:41:12.62,22.69,-55.63,-991.98,148.75,-647.50,-341.25,1,94.439,
01/01/2000,00:41:12.63,22.45,-55.51,-992.10,245.0,-595.0,-306.25,1,94.440,
01/01/2000,00:41:12.64,22.57,-55.51,-992.10,87.50,-533.75,-271.25,1,94.441,
01/01/2000,00:41:12.65,22.45,-55.88,-992.23,227.50,-621.25,-350.0,1,94.442,
01/01/2000,00:41:12.66,22.33,-55.88,-992.35,105.0,-708.75,-288.75,1,94.443,
01/01/2000,00:41:12.67,22.33,-55.75,-992.23,96.25,-717.50,-280.0,1,94.444,
01/01/2000,00:41:12.69,22.45,-55.75,-992.35,140.0,-673.75,-420.0,1,94.445,
01/01/2000,00:41:12.70,22.57,-55.39,-992.23,113.75,-717.50,-192.50,1,94.446,
01/01/2000,00:41:12.71,22.57,-55.51,-992.35,70.0,-752.50,-350.0,1,94.448,
01/01/2000,00:41:12.72,22.57,-55.63,-992.10,105.0,-630.0,-385.0,1,94.449,
01/01/2000,00:41:12.73,22.57,-55.75,-992.10,26.25,-770.0,-323.75,1,94.450,
01/01/2000,00:41:12.74,22.57,-55.75,-992.23,192.50,-682.50,-280.0,1,94.451,
01/01/2000,00:41:12.75,22.45,-55.75,-992.23,280.0,-691.25,-297.50,1,94.452,
01/01/2000,00:41:12.76,22.45,-55.51,-992.23,113.75,-796.25,-402.50,1,94.453,
01/01/2000,00:41:12.77,22.45,-55.63,-992.35,166.25,-621.25,-323.75,1,94.454,
01/01/2000,00:41:12.79,22.45,-55.63,-992.35,113.75,-638.75,-280.0,1,94.437,
01/01/2000,00:41:12.80,22.33,-55.63,-992.10,253.75,-726.25,-288.75,1,94.438,
01/01/2000,00:41:12.81,22.45,-55.63,-991.98,78.75,-708.75,-428.75,1,94.439,
01/01/2000,00:41:12.82,22.45,-55.75,-991.98,113.75,-673.75,-288.75,1,94.440,
01/01/2000,00:41:12.83,22.33,-55.51,-992.10,105.0,-717.50,-367.50,1,94.441,
01/01/2000,00:41:12.84,22.33,-55.39,-992.23,341.25,-673.75,-350.0,1,94.442,
01/01/2000,00:41:12.85,22.33,-55.75,-992.23,131.25,-630.0,-210.0,1,94.443,
01/01/2000,00:41:12.86,22.20,-55.63,-992.10,87.50,-673.75,-376.25,1,94.444,
01/01/2000,00:41:12.87,22.20,-55.75,-991.86,288.75,-665.0,-420.0,1,94.445,
01/01/2000,00:41:12.88,22.20,-55.51,-991.74,157.50,-743.75,-227.50,1,94.446,
01/01/2000,00:41:12.89,22.08,-55.39,-991.86,183.75,-752.50,-245.0,1,94.447,
01/01/2000,00:41:12.90,22.08,-55.63,-991.86,245.0,-665.0,-428.75,1,94.449,
01/01/2000,00:41:12.91,22.33,-55.39,-991.86,183.75,-630.0,-280.0,1,94.450,
01/01/2000,00:41:12.92,22.20,-55.63,-991.98,236.25,-708.75,-402.50,1,94.451,
01/01/2000,00:41:12.93,22.45,-55.63,-992.10,166.25,-577.50,-253.75,1,94.452,
01/01/2000,00:41:12.94,22.20,-55.75,-991.98,61.25,-656.25,-306.25,1,94.453,
01/01/2000,00:41:12.95,22.45,-55.63,-991.98,70.0,-708.75,-227.50,1,94.454,
01/01/2000,00:41:12.96,22.45,-55.63,-992.23,341.25,-761.25,-306.25,1,94.437,
01/01/2000,00:41:12.97,22.45,-55.63,-992.47,122.50,-787.50,-192.50,1,94.438,
01/01/2000,00:41:12.98,22.45,-55.63,-992.35,288.75,-735.0,-367.50,1,94.439,
01/01/2000,00:41:12.99,22.33,-55.75,-992.10,201.25,-630.0,-315.0,1,94.440,
01/01/2000,00:41:13.00,22.20,-55.63,-991.98,70.0,-700.0,-393.75,1,94.441,
01/01/2000,00:41:13.01,22.20,-55.75,-991.86,140.0,-726.25,-280.0,1,94.442,
01/01/2000,00:41:13.02,22.45,-55.63,-992.35,157.50,-682.50,-542.50,1,94.443,
01/01/2000,00:41:13.04,22.45,-55.63,-992.47,157.50,-717.50,-122.50,1,94.444,
01/01/2000,00:41:13.05,22.45,-55.63,-992.35,96.25,-665.0,-437.50,1,94.445,
01/01/2000,00:41:13.06,22.20,-55.88,-992.23,131.25,-656.25,-367.50,1,94.446,
01/01/2000,00:41:13.07,22.33,-55.63,-992.23,122.50,-796.25,-271.25,1,94.447,
01/01/2000,00:41:13.08,22.45,-55.75,-992.35,52.50,-735.0,-332.50,1,94.448,
01/01/2000,00:41:13.09,22.33,-55.75,-992.35,113.75,-673.75,-341.25,1,94.450,
01/01/2000,00:41:13.10,22.20,-55.63,-992.23,218.75,-735.0,-271.25,1,94.451,
01/01/2000,00:41:13.11,22.33,-55.63,-992.23,262.50,-691.25,-385.0,1,94.452,
01/01/2000,00:41:13.12,22.33,-55.63,-992.10,280.0,-708.75,-385.0,1,94.453,
01/01/2000,00:41:13.13,22.45,-55.51,-992.10,245.0,-743.75,-376.25,1,94.454,
01/01/2000,00:41:13.14,22.33,-55.88,-992.10,43.75,-752.50,-323.75,1,94.437,
01/01/2000,00:41:13.15,22.45,-55.88,-992.10,183.75,-673.75,-236.25,1,94.456,
01/01/2000,00:41:13.16,22.33,-55.88,-992.35,210.0,-700.0,-350.0,1,94.439,
01/01/2000,00:41:13.18,22.20,-55.63,-992.35,253.75,-787.50,-227.50,1,94.440,
01/01/2000,00:41:13.19,22.33,-55.75,-992.47,105.0,-805.0,-385.0,1,94.441,
01/01/2000,00:41:13.20,22.33,-55.63,-992.59,218.75,-708.75,-358.75,1,94.442,
01/01/2000,00:41:13.21,22.20,-55.75,-992.59,218.75,-603.75,-420.0,1,94.443,
01/01/2000,00:41:13.22,22.20,-55.63,-992.47,96.25,-612.50,-227.50,1,94.444,
01/01/2000,00:41:13.23,22.20,-55.88,-992.47,218.75,-586.25,-507.50,1,94.445,
01/01/2000,00:41:13.24,22.20,-55.75,-992.35,157.50,-630.0,-367.50,1,94.446,
01/01/2000,00:41:13.25,22.20,-55.75,-992.35,245.0,-560.0,-315.0,1,94.447,
01/01/2000,00:41:13.26,22.33,-55.63,-992.23,210.0,-717.50,-306.25,1,94.448,
01/01/2000,00:41:13.27,22.33,-55.63,-992.10,105.0,-726.25,-271.25,1,94.449,
01/01/2000,00:41:13.28,22.20,-55.88,-992.10,122.50,-612.50,-323.75,1,94.450,
01/01/2000,00:41:13.29,22.45,-55.88,-992.10,192.50,-665.0,-358.75,1,94.434,
01/01/2000,00:41:13.30,22.45,-55.88,-992.23,192.50,-673.75,-367.50,1,94.435,
01/01/2000,00:41:13.31,22.33,-56.00,-992.35,376.25,-726.25,-385.0,1,94.436,
01/01/2000,00:41:13.33,22.20,-55.75,-992.23,148.75,-647.50,-288.75,1,94.437,
01/01/2000,00:41:13.34,22.20,-55.63,-992.10,236.25,-595.0,-358.75,1,94.438,
01/01/2000,00:41:13.35,22.20,-55.75,-992.23,183.75,-743.75,-393.75,1,94.439,
01/01/2000,00:41:13.36,22.20,-55.75,-992.23,367.50,-752.50,-323.75,1,94.440,
01/01/2000,00:41:13.37,22.33,-55.88,-992.10,148.75,-726.25,-306.25,1,94.441,
01/01/2000,00:41:13.38,22.20,-55.75,-992.10,201.25,-665.0,-350.0,1,94.442,
01/01/2000,00:41:13.39,22.33,-55.39,-992.10,0.0,-822.50,-262.50,1,94.443,
01/01/2000,00:41:13.40,22.45,-55.51,-992.35,113.75,-665.0,-315.0,1,94.444,
01/01/2000,00:41:13.41,22.45,-55.39,-992.47,70.0,-647.50,-358.75,1,94.445,
01/01/2000,00:41:13.42,22.45,-55.63,-992.59,218.75,-638.75,-376.25,1,94.446,
01/01/2000,00:41:13.43,22.20,-55.51,-992.47,96.25,-708.75,-367.50,1,94.447,
01/01/2000,00:41:13.44,22.20,-55.63,-992.35,166.25,-708.75,-192.50,1,94.448,
01/01/2000,00:41:13.45,22.45,-55.39,-992.35,43.75,-656.25,-402.50,1,94.449,
01/01/2000,00:41:13.46,22.33,-55.63,-992.35,271.25,-708.75,-341.25,1,94.450,
01/01/2000,00:41:13.47,22.45,-55.51,-992.23,105.0,-560.0,-367.50,1,94.451,
01/01/2000,00:41:13.48,22.20,-55.88,-992.10,113.75,-612.50,-332.50,1,94.452,
01/01/2000,00:41:13.49,22.20,-55.51,-992.10,43.75,-726.25,-323.75,1,94.453,
01/01/2000,00:41:13.50,22.20,-55.75,-991.98,122.50,-638.75,-253.75,1,94.454,
01/01/2000,00:41:13.51,22.20,-55.51,-992.23,218.75,-735.0,-358.75,1,94.455,
01/01/2000,00:41:13.52,22.45,-55.88,-992.35,157.50,-700.0,-236.25,1,94.456,
01/01/2000,00:41:13.53,22.45,-55.88,-992.35,192.50,-752.50,-280.0,1,94.440,
01/01/2000,00:41:13.54,22.45,-55.88,-992.35,122.50,-700.0,-358.75,1,94.441,
01/01/2000,00:41:13.55,22.57,-56.00,-992.23,315.0,-770.0,-323.75,1,94.442,
01/01/2000,00:41:13.56,22.45,-55.88,-992.10,61.25,-595.0,-297.50,1,94.443,
01/01/2000,00:41:13.57,22.33,-55.75,-992.23,157.50,-770.0,-420.0,1,94.444,
01/01/2000,00:41:13.58,22.45,-55.88,-992.35,218.75,-743.75,-271.25,1,94.445,
01/01/2000,00:41:13.60,22.45,-55.63,-992.35,0.0,-647.50,-297.50,1,94.446,
01/01/2000,00:41:13.61,22.20,-55.51,-992.23,227.50,-638.75,-262.50,1,94.447,
01/01/2000,00:41:13.62,22.20,-55.39,-992.10,122.50,-743.75,-402.50,1,94.448,
01/01/2000,00:41:13.63,22.33,-55.39,-992.35,192.50,-630.0,-402.50,1,94.449,
01/01/2000,00:41:13.64,22.33,-55.39,-992.35,157.50,-603.75,-323.75,1,94.450,
01/01/2000,00:41:13.65,22.33,-55.63,-992.35,210.0,-630.0,-332.50,1,94.451,
01/01/2000,00:41:13.66,22.20,-55.51,-992.23,61.25,-700.0,-367.50,1,94.452,
01/01/2000,00:41:13.67,22.08,-55.75,-992.10,306.25,-708.75,-385.0,1,94.453,
01/01/2000,00:41:13.68,22.20,-55.75,-992.35,192.50,-638.75,-323.75,1,94.454,
01/01/2000,00:41:13.69,22.33,-55.88,-992.35,262.50,-770.0,-280.0,1,94.455,
