rtcDate,rtcTime,aX,aY,aZ,gX,gY,gZ,dataRdy,output_Hz,
01/01/2000,00:54:08.25,19.28,-48.31,-854.61,218.75,-656.25,-411.25,1,0.0,
01/01/2000,00:54:08.27,19.89,-49.53,-879.01,140.0,-647.50,-385.0,1,100.0,
01/01/2000,00:54:08.28,20.37,-50.75,-898.90,175.0,-656.25,-306.25,1,100.0,
01/01/2000,00:54:08.29,20.74,-51.36,-910.36,131.25,-682.50,-341.25,1,100.0,
01/01/2000,00:54:08.30,20.74,-52.22,-920.49,87.50,-656.25,-393.75,1,100.0,
01/01/2000,00:54:08.31,20.98,-52.70,-929.40,148.75,-700.0,-297.50,1,100.0,
01/01/2000,00:54:08.32,20.98,-53.19,-940.62,253.75,-665.0,-236.25,1,100.0,
01/01/2000,00:54:08.33,21.23,-53.44,-946.96,201.25,-638.75,-306.25,1,100.0,
01/01/2000,00:54:08.34,21.35,-53.68,-952.58,122.50,-673.75,-288.75,1,100.0,
01/01/2000,00:54:08.35,21.47,-54.05,-957.46,297.50,-665.0,-245.0,1,100.0,
01/01/2000,00:54:08.36,21.59,-54.53,-964.04,113.75,-761.25,-288.75,1,100.0,
01/01/2000,00:54:08.37,21.72,-54.78,-967.70,315.0,-630.0,-402.50,1,100.0,
01/01/2000,00:54:08.38,21.84,-54.90,-970.88,236.25,-638.75,-385.0,1,100.0,
01/01/2000,00:54:08.39,21.96,-55.27,-974.78,210.0,-735.0,-411.25,1,93.333,
01/01/2000,00:54:08.40,21.96,-55.39,-976.98,253.75,-717.50,-385.0,1,93.750,
01/01/2000,00:54:08.41,21.96,-55.51,-979.05,35.0,-761.25,-323.75,1,94.118,
01/01/2000,00:54:08.42,21.96,-55.75,-980.76,201.25,-717.50,-367.50,1,94.444,
01/01/2000,00:54:08.43,22.20,-55.75,-982.47,192.50,-735.0,-358.75,1,94.737,
01/01/2000,00:54:08.44,22.08,-55.88,-984.30,210.0,-673.75,-332.50,1,95.0,
01/01/2000,00:54:08.45,22.08,-55.88,-985.27,148.75,-691.25,-376.25,1,95.238,
01/01/2000,00:54:08.46,22.08,-55.88,-986.25,-8.75,-743.75,-385.0,1,95.455,
01/01/2000,00:54:08.47,22.20,-56.00,-987.47,192.50,-813.75,-297.50,1,95.652,
01/01/2000,00:54:08.48,22.33,-56.00,-988.44,122.50,-682.50,-358.75,1,95.833,
01/01/2000,00:54:08.49,22.45,-56.00,-989.05,96.25,-586.25,-367.50,1,96.0,
01/01/2000,00:54:08.50,22.33,-55.88,-989.42,70.0,-761.25,-306.25,1,96.154,
01/01/2000,00:54:08.51,22.33,-56.00,-990.15,105.0,-638.75,-192.50,1,96.296,
01/01/2000,00:54:08.52,22.45,-56.12,-990.52,166.25,-638.75,-341.25,1,96.429,
01/01/2000,00:54:08.54,22.45,-56.12,-990.88,148.75,-717.50,-367.50,1,96.552,
01/01/2000,00:54:08.55,22.45,-56.12,-991.25,175.0,-595.0,-332.50,1,96.667,
01/01/2000,00:54:08.56,22.33,-56.12,-991.37,96.25,-735.0,-350.0,1,96.774,
01/01/2000,00:54:08.57,22.20,-56.00,-991.62,140.0,-656.25,-376.25,1,96.875,
01/01/2000,00:54:08.58,22.33,-56.12,-992.23,183.75,-647.50,-393.75,1,96.970,
01/01/2000,00:54:08.59,22.45,-56.12,-992.47,262.50,-708.75,-315.0,1,97.059,
01/01/2000,00:54:08.60,22.33,-56.12,-992.47,280.0,-717.50,-288.75,1,97.143,
01/01/2000,00:54:08.61,22.20,-56.12,-992.35,218.75,-743.75,-367.50,1,94.595,
01/01/2000,00:54:08.62,22.20,-55.88,-992.59,148.75,-796.25,-420.0,1,97.297,
01/01/2000,00:54:08.63,22.33,-55.88,-993.08,166.25,-630.0,-315.0,1,94.872,
01/01/2000,00:54:08.64,22.45,-55.88,-993.32,218.75,-735.0,-376.25,1,95.0,
01/01/2000,00:54:08.65,22.45,-55.88,-993.32,227.50,-612.50,-262.50,1,95.122,
01/01/2000,00:54:08.66,22.33,-56.36,-993.20,166.25,-717.50,-262.50,1,95.238,
01/01/2000,00:54:08.68,22.20,-56.49,-992.59,113.75,-682.50,-411.25,1,95.349,
01/01/2000,00:54:08.69,22.20,-56.49,-992.47,87.50,-735.0,-411.25,1,95.455,
01/01/2000,00:54:08.70,22.45,-56.00,-992.84,148.75,-805.0,-271.25,1,95.556,
01/01/2000,00:54:08.71,22.45,-55.88,-993.20,218.75,-577.50,-306.25,1,95.652,
01/01/2000,00:54:08.72,22.33,-56.12,-993.32,61.25,-691.25,-297.50,1,95.745,
01/01/2000,00:54:08.73,22.20,-56.12,-993.08,26.25,-691.25,-446.25,1,95.833,
01/01/2000,00:54:08.74,22.20,-56.24,-992.71,210.0,-875.0,-446.25,1,95.918,
01/01/2000,00:54:08.75,22.20,-56.36,-992.84,87.50,-735.0,-367.50,1,96.0,
01/01/2000,00:54:08.76,22.33,-56.49,-993.08,227.50,-700.0,-350.0,1,96.078,
01/01/2000,00:54:08.77,21.96,-56.36,-993.32,131.25,-665.0,-358.75,1,94.340,
01/01/2000,00:54:08.79,21.84,-56.36,-993.08,183.75,-708.75,-306.25,1,94.444,
01/01/2000,00:54:08.80,21.96,-56.12,-993.08,201.25,-603.75,-411.25,1,94.545,
01/01/2000,00:54:08.81,22.33,-56.12,-992.96,262.50,-717.50,-297.50,1,94.643,
01/01/2000,00:54:08.82,22.20,-56.24,-992.84,175.0,-621.25,-376.25,1,94.737,
01/01/2000,00:54:08.83,21.96,-56.49,-992.96,201.25,-682.50,-367.50,1,94.828,
01/01/2000,00:54:08.84,21.96,-56.49,-993.20,271.25,-761.25,-323.75,1,94.915,
01/01/2000,00:54:08.85,22.20,-56.24,-993.32,236.25,-717.50,-288.75,1,95.0,
01/01/2000,00:54:08.86,22.33,-55.88,-993.20,78.75,-761.25,-306.25,1,95.082,
01/01/2000,00:54:08.87,22.20,-56.00,-992.96,201.25,-717.50,-236.25,1,95.161,
01/01/2000,00:54:08.88,22.08,-56.24,-992.96,253.75,-787.50,-323.75,1,95.238,
01/01/2000,00:54:08.89,22.20,-56.24,-993.08,350.0,-647.50,-358.75,1,95.313,
01/01/2000,00:54:08.90,22.45,-56.12,-993.32,87.50,-735.0,-306.25,1,95.385,
01/01/2000,00:54:08.91,22.45,-56.00,-993.32,166.25,-647.50,-367.50,1,95.455,
01/01/2000,00:54:08.92,22.45,-55.88,-992.84,131.25,-691.25,-245.0,1,95.522,
01/01/2000,00:54:08.93,22.33,-55.88,-992.84,157.50,-700.0,-288.75,1,95.588,
01/01/2000,00:54:08.94,22.33,-56.00,-992.96,183.75,-735.0,-402.50,1,95.652,
01/01/2000,00:54:08.95,22.57,-56.12,-993.32,113.75,-612.50,-332.50,1,94.366,
01/01/2000,00:54:08.96,22.45,-56.00,-993.20,175.0,-656.25,-253.75,1,94.444,
01/01/2000,00:54:08.97,22.20,-56.12,-992.71,70.0,-778.75,-411.25,1,94.521,
01/01/2000,00:54:08.98,22.20,-56.12,-992.59,148.75,-761.25,-367.50,1,94.595,
01/01/2000,00:54:08.99,22.33,-56.12,-992.84,166.25,-700.0,-350.0,1,94.667,
01/01/2000,00:54:09.00,22.33,-56.12,-993.08,61.25,-726.25,-271.25,1,94.737,
01/01/2000,00:54:09.01,22.45,-56.00,-993.20,148.75,-761.25,-288.75,1,94.805,
01/01/2000,00:54:09.03,22.33,-56.24,-992.96,210.0,-708.75,-288.75,1,94.872,
01/01/2000,00:54:09.04,22.33,-56.36,-992.84,166.25,-743.75,-367.50,1,94.937,
01/01/2000,00:54:09.05,22.57,-56.24,-993.08,192.50,-656.25,-253.75,1,95.0,
01/01/2000,00:54:09.06,22.45,-56.12,-993.08,131.25,-673.75,-367.50,1,95.062,
01/01/2000,00:54:09.07,22.45,-56.12,-992.96,192.50,-735.0,-306.25,1,95.122,
01/01/2000,00:54:09.08,22.20,-56.12,-992.84,113.75,-691.25,-358.75,1,95.181,
01/01/2000,00:54:09.09,22.20,-56.24,-992.71,70.0,-673.75,-358.75,1,95.238,
01/01/2000,00:54:09.10,22.45,-56.24,-992.84,140.0,-673.75,-306.25,1,95.294,
01/01/2000,00:54:09.11,22.45,-56.36,-992.96,157.50,-647.50,-306.25,1,95.349,
01/01/2000,00:54:09.12,22.33,-56.24,-992.96,192.50,-743.75,-428.75,1,95.402,
01/01/2000,00:54:09.13,22.33,-56.24,-992.96,218.75,-778.75,-463.75,1,95.455,
01/01/2000,00:54:09.14,22.45,-56.00,-993.08,218.75,-752.50,-385.0,1,95.506,
01/01/2000,00:54:09.15,22.57,-56.00,-992.96,157.50,-787.50,-358.75,1,95.556,
01/01/2000,00:54:09.16,22.45,-56.12,-992.96,148.75,-726.25,-245.0,1,94.565,
01/01/2000,00:54:09.17,22.57,-56.24,-993.08,201.25,-726.25,-472.50,1,94.624,
01/01/2000,00:54:09.18,22.69,-56.12,-993.08,96.25,-726.25,-306.25,1,94.681,
01/01/2000,00:54:09.19,22.69,-56.00,-992.84,236.25,-735.0,-218.75,1,94.737,
01/01/2000,00:54:09.21,22.57,-56.00,-992.59,140.0,-735.0,-393.75,1,94.792,
01/01/2000,00:54:09.21,22.45,-55.75,-992.71,122.50,-673.75,-428.75,1,94.845,
01/01/2000,00:54:09.23,22.57,-55.51,-993.08,210.0,-743.75,-367.50,1,94.898,
01/01/2000,00:54:09.24,22.94,-55.75,-993.57,105.0,-735.0,-192.50,1,94.949,
01/01/2000,00:54:09.25,22.57,-56.24,-993.20,105.0,-630.0,-306.25,1,95.0,
01/01/2000,00:54:09.26,21.96,-56.49,-992.23,210.0,-708.75,-525.0,1,95.050,
01/01/2000,00:54:09.27,22.33,-56.12,-992.23,227.50,-691.25,-446.25,1,95.098,
01/01/2000,00:54:09.28,22.81,-55.88,-992.71,43.75,-761.25,-183.75,1,94.231,
01/01/2000,00:54:09.29,22.69,-56.00,-993.08,113.75,-708.75,-262.50,1,94.286,
01/01/2000,00:54:09.30,22.20,-56.36,-992.59,87.50,-743.75,-271.25,1,94.340,
01/01/2000,00:54:09.32,22.20,-56.24,-992.10,183.75,-665.0,-507.50,1,94.393,
01/01/2000,00:54:09.33,22.57,-56.12,-992.23,122.50,-726.25,-271.25,1,94.444,
01/01/2000,00:54:09.34,22.81,-55.88,-992.71,192.50,-656.25,-332.50,1,94.495,
01/01/2000,00:54:09.35,22.57,-56.00,-992.84,105.0,-805.0,-227.50,1,94.545,
01/01/2000,00:54:09.36,22.08,-56.24,-992.59,236.25,-621.25,-245.0,1,94.595,
01/01/2000,00:54:09.37,21.96,-56.24,-992.59,157.50,-665.0,-411.25,1,94.643,
01/01/2000,00:54:09.38,22.45,-56.00,-992.71,253.75,-726.25,-367.50,1,94.690,
01/01/2000,00:54:09.39,22.69,-55.88,-992.59,210.0,-673.75,-227.50,1,94.737,
01/01/2000,00:54:09.40,22.57,-56.12,-992.35,140.0,-813.75,-175.0,1,94.783,
01/01/2000,00:54:09.41,22.08,-56.24,-992.23,43.75,-770.0,-402.50,1,94.828,
01/01/2000,00:54:09.42,21.96,-56.36,-992.47,201.25,-612.50,-446.25,1,94.872,
01/01/2000,00:54:09.43,22.33,-56.12,-992.71,113.75,-630.0,-385.0,1,94.915,
01/01/2000,00:54:09.44,22.69,-55.88,-992.59,218.75,-735.0,-280.0,1,94.958,
01/01/2000,00:54:09.45,22.45,-56.12,-992.23,157.50,-682.50,-218.75,1,95.0,
01/01/2000,00:54:09.46,22.20,-56.24,-992.10,236.25,-586.25,-428.75,1,95.041,
01/01/2000,00:54:09.47,22.33,-56.36,-992.35,52.50,-700.0,-376.25,1,95.082,
01/01/2000,00:54:09.48,22.81,-56.36,-992.71,280.0,-665.0,-350.0,1,95.122,
01/01/2000,00:54:09.49,22.69,-56.24,-992.84,227.50,-673.75,-280.0,1,95.161,
01/01/2000,00:54:09.50,22.57,-56.00,-992.35,140.0,-647.50,-358.75,1,95.200,
01/01/2000,00:54:09.51,22.45,-56.12,-992.10,148.75,-708.75,-245.0,1,95.238,
01/01/2000,00:54:09.52,22.33,-56.24,-992.59,183.75,-752.50,-358.75,1,94.531,
01/01/2000,00:54:09.53,22.57,-56.24,-992.84,306.25,-638.75,-367.50,1,94.574,
01/01/2000,00:54:09.54,22.81,-56.36,-992.84,122.50,-717.50,-253.75,1,94.615,
01/01/2000,00:54:09.55,22.81,-56.12,-992.35,218.75,-770.0,-297.50,1,94.656,
01/01/2000,00:54:09.56,22.45,-56.12,-992.35,148.75,-743.75,-245.0,1,94.697,
01/01/2000,00:54:09.57,22.57,-56.12,-992.35,96.25,-761.25,-323.75,1,94.737,
01/01/2000,00:54:09.59,22.57,-56.12,-992.47,96.25,-656.25,-393.75,1,94.776,
01/01/2000,00:54:09.60,22.45,-56.12,-992.35,271.25,-735.0,-341.25,1,94.815,
01/01/2000,00:54:09.61,22.45,-55.88,-992.23,122.50,-691.25,-323.75,1,94.853,
01/01/2000,00:54:09.62,22.69,-55.75,-992.23,8.75,-726.25,-367.50,1,94.891,
01/01/2000,00:54:09.63,22.81,-55.88,-992.35,52.50,-717.50,-280.0,1,94.928,
01/01/2000,00:54:09.64,22.45,-56.12,-992.59,140.0,-717.50,-315.0,1,94.964,
01/01/2000,00:54:09.65,22.33,-56.12,-992.47,201.25,-708.75,-516.25,1,95.0,
01/01/2000,00:54:09.66,22.45,-55.88,-992.35,148.75,-647.50,-245.0,1,95.035,
01/01/2000,00:54:09.67,22.81,-55.63,-992.23,183.75,-787.50,-210.0,1,95.070,
01/01/2000,00:54:09.68,22.57,-55.88,-992.35,35.0,-717.50,-332.50,1,95.105,
01/01/2000,00:54:09.69,22.45,-56.12,-992.47,253.75,-743.75,-323.75,1,95.139,
01/01/2000,00:54:09.70,22.45,-56.24,-992.35,210.0,-700.0,-358.75,1,95.172,
01/01/2000,00:54:09.71,22.57,-56.12,-992.35,210.0,-717.50,-385.0,1,95.205,
01/01/2000,00:54:09.72,22.81,-55.75,-992.23,183.75,-551.25,-280.0,1,95.238,
01/01/2000,00:54:09.73,22.57,-55.88,-992.10,113.75,-656.25,-280.0,1,94.631,
01/01/2000,00:54:09.75,22.45,-56.00,-992.10,96.25,-743.75,-376.25,1,94.667,
01/01/2000,00:54:09.75,22.57,-56.12,-992.47,43.75,-708.75,-428.75,1,94.702,
01/01/2000,00:54:09.77,22.81,-56.12,-992.59,210.0,-647.50,-455.0,1,94.737,
01/01/2000,00:54:09.77,22.94,-55.88,-992.35,218.75,-647.50,-262.50,1,94.771,
01/01/2000,00:54:09.79,22.45,-55.63,-992.10,61.25,-743.75,-271.25,1,94.805,
01/01/2000,00:54:09.80,22.45,-55.88,-992.23,218.75,-647.50,-481.25,1,94.231,
01/01/2000,00:54:09.81,22.69,-55.88,-992.84,166.25,-682.50,-411.25,1,94.872,
01/01/2000,00:54:09.82,22.81,-55.88,-992.84,96.25,-673.75,-315.0,1,94.304,
01/01/2000,00:54:09.83,22.69,-55.63,-992.59,148.75,-700.0,-315.0,1,94.340,
01/01/2000,00:54:09.84,22.57,-55.75,-992.35,192.50,-735.0,-306.25,1,94.375,
01/01/2000,00:54:09.85,22.45,-55.88,-992.35,140.0,-656.25,-367.50,1,94.410,
01/01/2000,00:54:09.86,22.69,-56.00,-992.84,96.25,-673.75,-341.25,1,94.444,
01/01/2000,00:54:09.87,22.81,-56.00,-992.84,288.75,-735.0,-288.75,1,94.479,
01/01/2000,00:54:09.88,22.69,-56.00,-992.59,17.50,-717.50,-288.75,1,94.512,
01/01/2000,00:54:09.89,22.45,-56.00,-992.23,175.0,-647.50,-288.75,1,94.545,
01/01/2000,00:54:09.90,22.69,-55.88,-992.23,183.75,-726.25,-280.0,1,94.578,
01/01/2000,00:54:09.91,22.81,-55.88,-992.59,131.25,-560.0,-253.75,1,94.611,
01/01/2000,00:54:09.92,22.94,-55.88,-992.96,78.75,-630.0,-358.75,1,94.643,
01/01/2000,00:54:09.93,22.81,-56.00,-992.71,183.75,-691.25,-332.50,1,94.675,
01/01/2000,00:54:09.95,22.45,-55.88,-992.10,140.0,-700.0,-376.25,1,94.706,
01/01/2000,00:54:09.96,22.57,-55.88,-992.10,192.50,-796.25,-315.0,1,94.737,
01/01/2000,00:54:09.97,22.69,-55.88,-992.35,245.0,-638.75,-280.0,1,94.767,
01/01/2000,00:54:09.98,22.69,-55.88,-992.71,96.25,-717.50,-315.0,1,94.798,
01/01/2000,00:54:09.99,22.57,-56.00,-992.84,183.75,-665.0,-385.0,1,94.828,
01/01/2000,00:54:10.00,22.45,-56.12,-992.35,218.75,-743.75,-227.50,1,94.857,
01/01/2000,00:54:10.01,22.45,-56.12,-992.23,210.0,-630.0,-323.75,1,94.350,
01/01/2000,00:54:10.02,22.57,-56.12,-992.47,175.0,-778.75,-323.75,1,94.915,
01/01/2000,00:54:10.03,22.45,-56.12,-992.59,131.25,-735.0,-350.0,1,94.413,
01/01/2000,00:54:10.04,22.20,-56.12,-992.59,166.25,-533.75,-350.0,1,94.444,
01/01/2000,00:54:10.05,22.08,-56.00,-992.35,175.0,-621.25,-411.25,1,94.475,
01/01/2000,00:54:10.06,22.20,-55.75,-992.35,210.0,-822.50,-446.25,1,94.505,
01/01/2000,00:54:10.07,22.45,-55.75,-992.35,175.0,-700.0,-315.0,1,94.536,
01/01/2000,00:54:10.09,22.45,-56.00,-992.47,105.0,-778.75,-315.0,1,94.565,
01/01/2000,00:54:10.10,22.20,-56.00,-992.47,148.75,-726.25,-332.50,1,94.595,
01/01/2000,00:54:10.11,22.20,-56.00,-992.35,218.75,-638.75,-437.50,1,94.624,
01/01/2000,00:54:10.12,22.45,-55.63,-992.10,105.0,-621.25,-297.50,1,94.652,
01/01/2000,00:54:10.13,22.45,-55.63,-992.23,306.25,-726.25,-315.0,1,94.681,
01/01/2000,00:54:10.14,22.45,-55.63,-992.23,70.0,-682.50,-271.25,1,94.709,
01/01/2000,00:54:10.15,22.20,-55.88,-992.35,157.50,-708.75,-420.0,1,94.737,
01/01/2000,00:54:10.16,22.20,-56.00,-992.35,113.75,-770.0,-402.50,1,94.764,
01/01/2000,00:54:10.17,22.20,-55.88,-992.59,148.75,-726.25,-367.50,1,94.792,
01/01/2000,00:54:10.18,22.33,-55.88,-992.47,78.75,-665.0,-262.50,1,94.819,
01/01/2000,00:54:10.19,22.20,-55.88,-992.35,26.25,-682.50,-402.50,1,94.845,
01/01/2000,00:54:10.20,22.08,-56.00,-992.47,262.50,-682.50,-288.75,1,94.872,
01/01/2000,00:54:10.21,22.08,-56.00,-992.59,262.50,-700.0,-455.0,1,94.898,
01/01/2000,00:54:10.22,22.33,-56.00,-992.59,175.0,-647.50,-367.50,1,94.444,
01/01/2000,00:54:10.23,22.33,-56.12,-992.35,52.50,-700.0,-271.25,1,94.472,
01/01/2000,00:54:10.24,22.20,-56.24,-992.35,183.75,-735.0,-428.75,1,94.500,
01/01/2000,00:54:10.25,22.45,-56.36,-992.35,113.75,-665.0,-393.75,1,94.527,
01/01/2000,00:54:10.26,22.57,-56.00,-992.35,-26.25,-682.50,-323.75,1,94.554,
01/01/2000,00:54:10.27,22.45,-56.24,-992.59,183.75,-787.50,-297.50,1,94.581,
01/01/2000,00:54:10.28,22.20,-56.12,-992.59,218.75,-700.0,-262.50,1,94.608,
01/01/2000,00:54:10.30,22.57,-56.12,-992.35,87.50,-682.50,-341.25,1,94.175,
01/01/2000,00:54:10.31,22.57,-56.12,-992.23,35.0,-595.0,-227.50,1,94.203,
01/01/2000,00:54:10.32,22.45,-56.24,-992.23,236.25,-612.50,-393.75,1,94.231,
01/01/2000,00:54:10.33,22.45,-56.12,-992.47,236.25,-603.75,-428.75,1,94.258,
01/01/2000,00:54:10.34,22.45,-56.00,-992.35,26.25,-656.25,-201.25,1,94.286,
01/01/2000,00:54:10.35,22.45,-56.00,-992.47,210.0,-743.75,-315.0,1,94.313,
01/01/2000,00:54:10.36,22.45,-55.88,-992.47,105.0,-743.75,-245.0,1,94.340,
01/01/2000,00:54:10.37,22.20,-56.12,-992.59,236.25,-708.75,-402.50,1,94.366,
01/01/2000,00:54:10.38,22.20,-56.24,-992.47,218.75,-630.0,-271.25,1,94.393,
01/01/2000,00:54:10.40,22.20,-56.36,-992.47,271.25,-708.75,-463.75,1,94.419,
01/01/2000,00:54:10.41,22.20,-56.24,-992.47,61.25,-665.0,-315.0,1,94.444,
01/01/2000,00:54:10.42,22.08,-56.12,-992.47,192.50,-621.25,-402.50,1,94.470,
01/01/2000,00:54:10.43,21.96,-56.12,-992.59,227.50,-673.75,-315.0,1,94.495,
01/01/2000,00:54:10.44,22.20,-56.12,-992.47,52.50,-673.75,-192.50,1,94.521,
01/01/2000,00:54:10.45,22.20,-56.12,-992.47,157.50,-647.50,-376.25,1,94.545,
01/01/2000,00:54:10.46,21.96,-56.36,-992.35,131.25,-726.25,-367.50,1,94.570,
01/01/2000,00:54:10.47,22.20,-56.12,-992.35,105.0,-708.75,-332.50,1,94.595,
01/01/2000,00:54:10.48,22.20,-56.00,-992.47,78.75,-630.0,-253.75,1,94.619,
01/01/2000,00:54:10.49,22.20,-55.88,-992.47,122.50,-673.75,-227.50,1,94.643,
01/01/2000,00:54:10.50,22.08,-56.00,-992.35,280.0,-743.75,-385.0,1,94.667,
01/01/2000,00:54:10.51,22.20,-55.88,-992.47,105.0,-568.75,-393.75,1,94.690,
01/01/2000,00:54:10.52,22.20,-55.88,-992.35,183.75,-831.25,-411.25,1,94.714,
01/01/2000,00:54:10.53,22.20,-55.88,-992.35,157.50,-770.0,-341.25,1,94.737,
01/01/2000,00:54:10.54,22.08,-55.88,-992.35,166.25,-630.0,-463.75,1,94.760,
01/01/2000,00:54:10.55,22.20,-55.88,-992.35,245.0,-682.50,-385.0,1,94.783,
01/01/2000,00:54:10.56,22.33,-55.75,-992.47,288.75,-577.50,-350.0,1,94.805,
01/01/2000,00:54:10.57,22.33,-56.00,-992.59,113.75,-638.75,-323.75,1,94.828,
01/01/2000,00:54:10.58,22.20,-56.12,-992.35,192.50,-717.50,-385.0,1,94.444,
01/01/2000,00:54:10.59,22.33,-55.88,-992.35,218.75,-691.25,-393.75,1,94.468,
01/01/2000,00:54:10.60,22.20,-56.00,-992.35,131.25,-647.50,-262.50,1,94.492,
01/01/2000,00:54:10.61,22.20,-56.00,-992.47,140.0,-603.75,-297.50,1,94.515,
01/01/2000,00:54:10.62,21.96,-56.00,-992.47,35.0,-630.0,-297.50,1,94.538,
01/01/2000,00:54:10.63,22.20,-56.12,-992.35,245.0,-752.50,-350.0,1,94.561,
01/01/2000,00:54:10.65,22.20,-56.12,-992.47,131.25,-778.75,-288.75,1,94.583,
01/01/2000,00:54:10.66,22.20,-56.00,-992.47,227.50,-595.0,-262.50,1,94.606,
01/01/2000,00:54:10.67,22.20,-55.88,-992.47,201.25,-770.0,-245.0,1,94.628,
01/01/2000,00:54:10.68,22.20,-55.88,-992.59,122.50,-726.25,-297.50,1,94.650,
01/01/2000,00:54:10.69,22.20,-56.00,-992.59,61.25,-778.75,-358.75,1,94.672,
01/01/2000,00:54:10.70,22.08,-56.12,-992.47,262.50,-673.75,-315.0,1,94.694,
01/01/2000,00:54:10.71,22.20,-56.00,-992.35,306.25,-673.75,-306.25,1,94.715,
01/01/2000,00:54:10.72,22.08,-55.88,-992.35,140.0,-726.25,-323.75,1,94.737,
01/01/2000,00:54:10.73,22.08,-55.88,-992.23,210.0,-700.0,-341.25,1,94.758,
01/01/2000,00:54:10.74,21.96,-56.00,-992.35,157.50,-770.0,-411.25,1,94.779,
01/01/2000,00:54:10.75,22.33,-56.00,-992.23,78.75,-647.50,-428.75,1,94.800,
01/01/2000,00:54:10.76,22.33,-56.36,-992.10,358.75,-866.25,-271.25,1,94.821,
01/01/2000,00:54:10.77,22.33,-56.12,-991.98,8.75,-682.50,-367.50,1,94.841,
01/01/2000,00:54:10.78,22.08,-56.00,-992.35,245.0,-682.50,-463.75,1,94.488,
01/01/2000,00:54:10.79,22.20,-56.00,-992.59,288.75,-665.0,-323.75,1,94.510,
01/01/2000,00:54:10.80,22.33,-55.63,-992.59,35.0,-673.75,-166.25,1,94.531,
01/01/2000,00:54:10.82,22.20,-55.75,-992.10,52.50,-743.75,-358.75,1,94.553,
01/01/2000,00:54:10.83,22.08,-56.00,-992.10,113.75,-665.0,-315.0,1,94.574,
01/01/2000,00:54:10.84,22.45,-55.88,-992.35,122.50,-638.75,-455.0,1,94.595,
01/01/2000,00:54:10.85,22.45,-55.75,-992.47,105.0,-761.25,-323.75,1,94.615,
01/01/2000,00:54:10.86,22.33,-55.88,-992.35,183.75,-665.0,-376.25,1,94.636,
01/01/2000,00:54:10.87,22.20,-55.88,-992.23,61.25,-743.75,-350.0,1,94.656,
01/01/2000,00:54:10.88,22.20,-56.12,-992.23,87.50,-700.0,-332.50,1,94.677,
01/01/2000,00:54:10.89,22.33,-56.00,-992.59,17.50,-603.75,-385.0,1,94.697,
01/01/2000,00:54:10.90,22.20,-56.12,-992.47,262.50,-708.75,-323.75,1,94.717,
01/01/2000,00:54:10.91,22.20,-55.88,-992.35,157.50,-726.25,-306.25,1,94.737,
01/01/2000,00:54:10.92,22.20,-55.88,-992.23,245.0,-761.25,-385.0,1,94.757,
01/01/2000,00:54:10.93,22.33,-55.88,-992.23,210.0,-656.25,-236.25,1,94.424,
01/01/2000,00:54:10.94,22.45,-55.75,-992.35,87.50,-735.0,-411.25,1,94.444,
01/01/2000,00:54:10.95,22.57,-55.88,-992.35,78.75,-630.0,-280.0,1,94.465,
01/01/2000,00:54:10.96,22.57,-56.00,-992.35,201.25,-743.75,-437.50,1,94.485,
01/01/2000,00:54:10.97,22.57,-56.00,-992.35,35.0,-682.50,-350.0,1,94.505,
01/01/2000,00:54:10.98,22.57,-56.00,-992.23,210.0,-673.75,-402.50,1,94.526,
01/01/2000,00:54:10.99,22.57,-56.00,-992.35,201.25,-682.50,-315.0,1,94.545,
01/01/2000,00:54:11.01,22.69,-56.00,-992.35,131.25,-673.75,-393.75,1,94.565,
01/01/2000,00:54:11.02,22.69,-56.00,-992.47,175.0,-735.0,-297.50,1,94.585,
01/01/2000,00:54:11.03,22.57,-56.00,-992.35,157.50,-708.75,-455.0,1,94.604,
01/01/2000,00:54:11.04,22.45,-55.88,-992.23,253.75,-743.75,-367.50,1,94.624,
01/01/2000,00:54:11.05,22.45,-55.88,-992.23,148.75,-682.50,-411.25,1,94.643,
01/01/2000,00:54:11.06,22.45,-55.88,-992.23,271.25,-735.0,-350.0,1,94.662,
01/01/2000,00:54:11.07,22.57,-55.88,-992.35,122.50,-735.0,-253.75,1,94.681,
01/01/2000,00:54:11.08,22.45,-56.12,-992.10,218.75,-656.25,-332.50,1,94.700,
01/01/2000,00:54:11.09,22.45,-56.12,-992.10,183.75,-630.0,-350.0,1,94.718,
01/01/2000,00:54:11.10,22.33,-56.24,-992.47,122.50,-630.0,-350.0,1,94.737,
01/01/2000,00:54:11.11,22.33,-56.12,-992.59,140.0,-708.75,-288.75,1,94.755,
01/01/2000,00:54:11.12,22.45,-56.12,-992.84,192.50,-796.25,-358.75,1,94.774,
01/01/2000,00:54:11.13,22.45,-56.12,-992.59,280.0,-787.50,-376.25,1,94.792,
01/01/2000,00:54:11.14,22.45,-56.12,-992.35,131.25,-682.50,-245.0,1,94.483,
01/01/2000,00:54:11.15,22.33,-56.12,-992.47,245.0,-656.25,-341.25,1,94.502,
01/01/2000,00:54:11.16,22.20,-56.24,-992.59,122.50,-717.50,-341.25,1,94.521,
01/01/2000,00:54:11.17,22.20,-56.12,-992.71,227.50,-796.25,-402.50,1,94.539,
01/01/2000,00:54:11.19,22.20,-56.12,-992.47,280.0,-717.50,-332.50,1,94.558,
01/01/2000,00:54:11.19,22.20,-56.00,-992.59,87.50,-708.75,-227.50,1,94.576,
01/01/2000,00:54:11.21,22.20,-56.12,-992.59,210.0,-621.25,-385.0,1,94.595,
01/01/2000,00:54:11.22,22.33,-56.12,-992.71,166.25,-630.0,-297.50,1,94.613,
01/01/2000,00:54:11.23,22.20,-56.12,-992.59,201.25,-700.0,-332.50,1,94.631,
01/01/2000,00:54:11.24,22.20,-56.12,-992.47,262.50,-752.50,-271.25,1,94.649,
01/01/2000,00:54:11.25,22.33,-56.00,-992.47,175.0,-656.25,-332.50,1,94.667,
01/01/2000,00:54:11.26,22.33,-56.12,-992.47,70.0,-665.0,-271.25,1,94.684,
01/01/2000,00:54:11.27,22.20,-56.24,-992.59,131.25,-700.0,-306.25,1,94.702,
01/01/2000,00:54:11.28,22.20,-56.36,-992.71,122.50,-682.50,-481.25,1,94.408,
01/01/2000,00:54:11.29,22.33,-56.24,-992.71,148.75,-682.50,-341.25,1,94.426,
01/01/2000,00:54:11.30,22.33,-56.12,-992.59,122.50,-752.50,-218.75,1,94.444,
01/01/2000,00:54:11.31,22.45,-56.00,-992.47,280.0,-682.50,-315.0,1,94.463,
01/01/2000,00:54:11.33,22.57,-55.88,-992.59,131.25,-673.75,-402.50,1,94.481,
01/01/2000,00:54:11.34,22.69,-55.88,-992.59,166.25,-656.25,-262.50,1,94.498,
01/01/2000,00:54:11.35,22.69,-55.88,-992.47,87.50,-726.25,-297.50,1,94.516,
01/01/2000,00:54:11.36,22.45,-55.88,-992.35,218.75,-568.75,-411.25,1,94.534,
01/01/2000,00:54:11.37,22.45,-55.88,-992.35,35.0,-638.75,-315.0,1,94.551,
01/01/2000,00:54:11.38,22.45,-55.75,-992.59,262.50,-603.75,-280.0,1,94.569,
01/01/2000,00:54:11.39,22.45,-56.12,-992.59,78.75,-665.0,-297.50,1,94.586,
01/01/2000,00:54:11.40,22.45,-56.00,-992.35,297.50,-638.75,-315.0,1,94.603,
01/01/2000,00:54:11.41,22.45,-56.12,-992.23,201.25,-700.0,-437.50,1,94.620,
01/01/2000,00:54:11.42,22.45,-56.12,-992.35,227.50,-621.25,-323.75,1,94.637,
01/01/2000,00:54:11.43,22.57,-56.12,-992.35,280.0,-743.75,-262.50,1,94.654,
01/01/2000,00:54:11.44,22.33,-56.12,-992.47,-8.75,-595.0,-271.25,1,94.671,
01/01/2000,00:54:11.45,21.72,-56.49,-992.59,385.0,-612.50,-201.25,1,94.688,
01/01/2000,00:54:11.46,22.94,-55.88,-992.35,43.75,-612.50,-595.0,1,94.704,
01/01/2000,00:54:11.47,22.94,-56.49,-991.86,437.50,-743.75,-192.50,1,94.720,
01/01/2000,00:54:11.48,22.20,-56.73,-991.98,43.75,-691.25,315.0,1,94.737,
01/01/2000,00:54:11.49,21.84,-56.61,-992.47,297.50,-743.75,-245.0,1,94.462,
01/01/2000,00:54:11.50,21.96,-56.36,-992.84,350.0,-612.50,-1050.0,1,94.479,
01/01/2000,00:54:11.51,22.94,-55.39,-992.84,35.0,-665.0,-402.50,1,94.495,
01/01/2000,00:54:11.52,22.45,-55.75,-992.35,157.50,-700.0,525.0,1,94.512,
01/01/2000,00:54:11.53,22.69,-55.88,-991.86,183.75,-603.75,-113.75,1,94.529,
01/01/2000,00:54:11.54,22.45,-56.61,-991.86,262.50,-796.25,-805.0,1,94.545,
01/01/2000,00:54:11.55,22.45,-56.49,-992.59,131.25,-708.75,-402.50,1,94.562,
01/01/2000,00:54:11.57,22.08,-56.12,-992.96,140.0,-630.0,-402.50,1,94.578,
01/01/2000,00:54:11.58,22.20,-55.51,-992.59,157.50,-691.25,-262.50,1,94.595,
01/01/2000,00:54:11.59,22.33,-55.39,-992.10,43.75,-735.0,-166.25,1,94.611,
01/01/2000,00:54:11.60,22.20,-55.63,-991.98,245.0,-691.25,-210.0,1,94.627,
01/01/2000,00:54:11.61,22.33,-56.12,-992.35,113.75,-708.75,-332.50,1,94.643,
01/01/2000,00:54:11.62,22.57,-56.36,-992.71,297.50,-691.25,-560.0,1,94.659,
01/01/2000,00:54:11.63,22.45,-55.88,-992.35,210.0,-673.75,-218.75,1,94.675,
01/01/2000,00:54:11.64,22.45,-55.51,-991.86,166.25,-770.0,-376.25,1,94.690,
01/01/2000,00:54:11.65,22.33,-55.51,-991.86,122.50,-866.25,-227.50,1,94.706,
01/01/2000,00:54:11.66,22.33,-55.63,-992.10,262.50,-525.0,-157.50,1,94.721,
01/01/2000,00:54:11.67,22.20,-56.00,-992.59,227.50,-665.0,-463.75,1,94.737,
01/01/2000,00:54:11.68,22.33,-56.24,-992.59,157.50,-700.0,-315.0,1,94.752,
01/01/2000,00:54:11.69,22.33,-56.12,-992.10,70.0,-665.0,-402.50,1,94.767,
01/01/2000,00:54:11.70,22.20,-55.75,-991.86,113.75,-708.75,-358.75,1,94.509,
01/01/2000,00:54:11.71,22.33,-55.88,-991.98,17.50,-673.75,-245.0,1,94.524,
01/01/2000,00:54:11.72,22.45,-55.88,-992.23,245.0,-682.50,-306.25,1,94.540,
01/01/2000,00:54:11.73,22.45,-56.24,-992.47,306.25,-708.75,-358.75,1,94.556,
01/01/2000,00:54:11.74,22.45,-56.24,-992.23,175.0,-603.75,-385.0,1,94.571,
01/01/2000,00:54:11.75,22.45,-56.12,-991.98,201.25,-752.50,-315.0,1,94.587,
01/01/2000,00:54:11.77,22.81,-55.88,-992.10,35.0,-761.25,-253.75,1,94.602,
01/01/2000,00:54:11.78,22.81,-56.00,-992.47,175.0,-621.25,-297.50,1,94.618,
01/01/2000,00:54:11.79,22.69,-56.00,-992.71,192.50,-726.25,-297.50,1,94.633,
01/01/2000,00:54:11.80,22.69,-56.00,-992.47,-52.50,-743.75,-411.25,1,94.648,
01/01/2000,00:54:11.81,22.57,-56.00,-992.35,236.25,-673.75,-341.25,1,94.663,
01/01/2000,00:54:11.82,22.45,-56.00,-992.35,96.25,-638.75,-288.75,1,94.678,
01/01/2000,00:54:11.83,22.69,-56.12,-992.59,175.0,-735.0,-306.25,1,94.429,
01/01/2000,00:54:11.85,22.45,-56.12,-992.59,183.75,-735.0,-288.75,1,94.444,
01/01/2000,00:54:11.86,22.20,-56.12,-992.59,140.0,-743.75,-306.25,1,94.460,
01/01/2000,00:54:11.87,22.45,-56.12,-992.35,35.0,-682.50,-262.50,1,94.475,
01/01/2000,00:54:11.88,22.45,-55.88,-992.35,157.50,-717.50,-332.50,1,94.490,
01/01/2000,00:54:11.89,22.45,-55.88,-992.47,227.50,-752.50,-306.25,1,94.505,
01/01/2000,00:54:11.90,22.33,-56.12,-992.59,131.25,-647.50,-350.0,1,94.521,
01/01/2000,00:54:11.91,22.45,-56.12,-992.47,350.0,-577.50,-402.50,1,94.536,
01/01/2000,00:54:11.92,22.57,-55.88,-992.47,192.50,-726.25,-288.75,1,94.550,
01/01/2000,00:54:11.93,22.57,-55.63,-992.47,61.25,-630.0,-210.0,1,94.565,
01/01/2000,00:54:11.94,22.45,-55.63,-992.47,78.75,-743.75,-288.75,1,94.580,
01/01/2000,00:54:11.95,22.45,-55.75,-992.59,201.25,-682.50,-218.75,1,94.595,
01/01/2000,00:54:11.96,22.33,-55.75,-992.59,131.25,-638.75,-376.25,1,94.609,
01/01/2000,00:54:11.97,22.45,-55.88,-992.47,175.0,-673.75,-297.50,1,94.624,
01/01/2000,00:54:11.98,22.45,-55.88,-992.35,175.0,-735.0,-463.75,1,94.638,
01/01/2000,00:54:11.99,22.45,-55.88,-992.35,105.0,-595.0,-323.75,1,94.652,
01/01/2000,00:54:12.00,22.33,-55.88,-992.35,183.75,-630.0,-350.0,1,94.667,
01/01/2000,00:54:12.01,22.33,-55.88,-992.59,315.0,-612.50,-393.75,1,94.681,
01/01/2000,00:54:12.02,22.45,-55.88,-992.59,218.75,-743.75,-297.50,1,94.695,
01/01/2000,00:54:12.03,22.45,-55.88,-992.35,157.50,-682.50,-297.50,1,94.709,
01/01/2000,00:54:12.04,22.20,-55.75,-992.35,192.50,-656.25,-288.75,1,94.723,
01/01/2000,00:54:12.06,22.20,-56.00,-992.59,157.50,-673.75,-280.0,1,94.488,
01/01/2000,00:54:12.07,22.20,-55.88,-992.71,122.50,-691.25,-367.50,1,94.503,
01/01/2000,00:54:12.08,22.33,-55.88,-992.47,227.50,-770.0,-262.50,1,94.517,
01/01/2000,00:54:12.09,22.20,-55.75,-992.23,35.0,-726.25,-341.25,1,94.531,
01/01/2000,00:54:12.10,22.20,-55.88,-992.35,122.50,-726.25,-236.25,1,94.545,
01/01/2000,00:54:12.11,22.33,-56.00,-992.47,131.25,-778.75,-420.0,1,94.560,
01/01/2000,00:54:12.12,22.45,-56.12,-992.47,166.25,-761.25,-376.25,1,94.574,
01/01/2000,00:54:12.13,22.69,-56.12,-992.35,148.75,-700.0,-367.50,1,94.588,
01/01/2000,00:54:12.14,22.69,-55.88,-992.47,175.0,-647.50,-376.25,1,94.602,
01/01/2000,00:54:12.15,22.69,-55.88,-992.35,236.25,-717.50,-332.50,1,94.615,
01/01/2000,00:54:12.16,22.57,-55.88,-992.35,166.25,-647.50,-341.25,1,94.629,
01/01/2000,00:54:12.17,22.57,-55.88,-992.23,35.0,-700.0,-306.25,1,94.643,
01/01/2000,00:54:12.18,22.45,-56.12,-992.35,192.50,-665.0,-288.75,1,94.656,
01/01/2000,00:54:12.19,22.45,-55.88,-992.35,113.75,-735.0,-341.25,1,94.670,
01/01/2000,00:54:12.20,22.45,-55.63,-992.35,17.50,-708.75,-306.25,1,94.444,
01/01/2000,00:54:12.21,22.45,-55.63,-992.35,183.75,-700.0,-315.0,1,94.458,
01/01/2000,00:54:12.22,22.20,-55.75,-992.47,236.25,-665.0,-411.25,1,94.472,
01/01/2000,00:54:12.23,22.57,-55.75,-992.59,183.75,-612.50,-411.25,1,94.486,
01/01/2000,00:54:12.24,22.81,-55.75,-992.35,148.75,-735.0,-332.50,1,94.500,
01/01/2000,00:54:12.25,22.57,-55.75,-992.23,78.75,-735.0,-227.50,1,94.514,
01/01/2000,00:54:12.27,22.33,-55.88,-992.23,70.0,-796.25,-428.75,1,94.527,
01/01/2000,00:54:12.28,22.45,-56.00,-992.23,218.75,-630.0,-341.25,1,94.541,
01/01/2000,00:54:12.29,22.69,-55.63,-992.35,113.75,-857.50,-288.75,1,94.554,
01/01/2000,00:54:12.30,22.57,-55.75,-992.35,122.50,-796.25,-262.50,1,94.568,
01/01/2000,00:54:12.31,22.33,-55.88,-992.23,157.50,-726.25,-393.75,1,94.581,
01/01/2000,00:54:12.32,22.45,-56.00,-992.10,87.50,-682.50,-358.75,1,94.595,
01/01/2000,00:54:12.33,22.57,-56.00,-991.98,122.50,-726.25,-332.50,1,94.608,
01/01/2000,00:54:12.35,22.33,-56.12,-991.86,78.75,-708.75,-315.0,1,94.390,
01/01/2000,00:54:12.36,22.45,-56.12,-991.86,210.0,-647.50,-393.75,1,94.404,
01/01/2000,00:54:12.37,22.57,-56.00,-991.98,280.0,-708.75,-271.25,1,94.417,
01/01/2000,00:54:12.38,22.45,-56.00,-991.98,166.25,-708.75,-271.25,1,94.431,
01/01/2000,00:54:12.39,22.45,-56.12,-991.98,17.50,-691.25,-350.0,1,94.444,
01/01/2000,00:54:12.40,22.45,-56.00,-992.10,140.0,-717.50,-306.25,1,94.458,
01/01/2000,00:54:12.41,22.45,-56.00,-991.98,166.25,-726.25,-297.50,1,94.471,
01/01/2000,00:54:12.42,22.33,-55.88,-992.10,8.75,-770.0,-341.25,1,94.484,
01/01/2000,00:54:12.43,22.33,-56.00,-992.10,122.50,-665.0,-323.75,1,94.498,
01/01/2000,00:54:12.44,22.45,-56.12,-992.10,166.25,-735.0,-297.50,1,94.511,
01/01/2000,00:54:12.45,22.45,-56.00,-992.10,253.75,-787.50,-376.25,1,94.524,
01/01/2000,00:54:12.46,22.45,-56.12,-992.23,192.50,-927.50,-367.50,1,94.537,
01/01/2000,00:54:12.47,22.45,-56.00,-992.23,201.25,-595.0,-367.50,1,94.550,
01/01/2000,00:54:12.48,22.57,-55.88,-992.10,148.75,-770.0,-393.75,1,94.563,
01/01/2000,00:54:12.49,22.57,-55.88,-992.10,122.50,-595.0,-306.25,1,94.575,
01/01/2000,00:54:12.50,22.45,-56.00,-992.10,210.0,-708.75,-332.50,1,94.588,
01/01/2000,00:54:12.51,22.45,-56.12,-992.10,122.50,-700.0,-341.25,1,94.601,
01/01/2000,00:54:12.52,22.45,-56.12,-992.23,140.0,-630.0,-393.75,1,94.614,
01/01/2000,00:54:12.53,22.57,-56.12,-992.35,201.25,-708.75,-376.25,1,94.626,
01/01/2000,00:54:12.54,22.45,-56.00,-992.35,87.50,-708.75,-323.75,1,94.639,
01/01/2000,00:54:12.55,22.45,-56.00,-992.35,227.50,-665.0,-315.0,1,94.432,
01/01/2000,00:54:12.56,22.45,-56.00,-992.35,26.25,-673.75,-411.25,1,94.444,
01/01/2000,00:54:12.57,22.45,-55.88,-992.23,87.50,-743.75,-288.75,1,94.457,
01/01/2000,00:54:12.58,22.57,-55.88,-992.35,17.50,-743.75,-245.0,1,94.470,
01/01/2000,00:54:12.59,22.45,-55.88,-992.35,183.75,-551.25,-350.0,1,94.483,
01/01/2000,00:54:12.60,22.45,-55.88,-992.47,157.50,-621.25,-367.50,1,94.495,
01/01/2000,00:54:12.62,22.45,-55.75,-992.35,26.25,-673.75,-236.25,1,94.508,
01/01/2000,00:54:12.63,22.57,-55.88,-992.35,157.50,-577.50,-341.25,1,94.521,
01/01/2000,00:54:12.64,22.57,-56.00,-992.35,201.25,-630.0,-315.0,1,94.533,
01/01/2000,00:54:12.65,22.57,-56.00,-992.35,157.50,-770.0,-350.0,1,94.545,
01/01/2000,00:54:12.66,22.57,-56.12,-992.47,192.50,-761.25,-306.25,1,94.558,
01/01/2000,00:54:12.67,22.45,-56.12,-992.35,78.75,-630.0,-315.0,1,94.570,
01/01/2000,00:54:12.68,22.57,-55.88,-992.23,140.0,-647.50,-306.25,1,94.582,
01/01/2000,00:54:12.69,22.69,-55.88,-992.10,26.25,-673.75,-280.0,1,94.382,
01/01/2000,00:54:12.70,22.69,-56.12,-992.10,201.25,-673.75,-253.75,1,94.395,
01/01/2000,00:54:12.71,22.69,-56.12,-991.98,192.50,-682.50,-323.75,1,94.407,
01/01/2000,00:54:12.72,22.69,-56.12,-992.10,192.50,-647.50,-420.0,1,94.420,
01/01/2000,00:54:12.73,22.69,-55.88,-992.23,122.50,-726.25,-376.25,1,94.432,
01/01/2000,00:54:12.74,22.45,-55.88,-992.10,157.50,-761.25,-315.0,1,94.444,
01/01/2000,00:54:12.75,22.57,-55.75,-992.10,280.0,-682.50,-280.0,1,94.457,
01/01/2000,00:54:12.77,22.57,-55.88,-991.98,166.25,-700.0,-350.0,1,94.469,
01/01/2000,00:54:12.78,22.57,-56.12,-992.10,52.50,-717.50,-323.75,1,94.481,
01/01/2000,00:54:12.79,22.57,-56.12,-992.10,201.25,-656.25,-376.25,1,94.493,
01/01/2000,00:54:12.80,22.57,-55.75,-992.10,122.50,-621.25,-367.50,1,94.505,
01/01/2000,00:54:12.81,22.57,-55.88,-992.10,271.25,-691.25,-323.75,1,94.518,
01/01/2000,00:54:12.82,22.45,-55.75,-992.10,157.50,-656.25,-323.75,1,94.530,
01/01/2000,00:54:12.83,22.45,-55.88,-992.35,218.75,-752.50,-420.0,1,94.541,
01/01/2000,00:54:12.84,22.57,-55.88,-992.35,236.25,-691.25,-306.25,1,94.553,
01/01/2000,00:54:12.86,22.57,-56.00,-992.10,183.75,-560.0,-376.25,1,94.360,
01/01/2000,00:54:12.87,22.20,-55.88,-992.23,166.25,-726.25,-367.50,1,94.372,
01/01/2000,00:54:12.88,22.45,-55.88,-992.35,236.25,-752.50,-306.25,1,94.384,
01/01/2000,00:54:12.89,22.57,-55.88,-992.35,262.50,-743.75,-288.75,1,94.397,
01/01/2000,00:54:12.90,22.45,-55.88,-992.35,288.75,-638.75,-288.75,1,94.409,
01/01/2000,00:54:12.91,22.57,-56.12,-992.10,113.75,-770.0,-411.25,1,94.421,
01/01/2000,00:54:12.92,22.45,-56.00,-992.23,210.0,-752.50,-358.75,1,94.433,
01/01/2000,00:54:12.93,22.33,-56.12,-992.23,78.75,-875.0,-297.50,1,94.444,
01/01/2000,00:54:12.94,22.33,-56.00,-992.35,122.50,-708.75,-306.25,1,94.456,
01/01/2000,00:54:12.95,22.57,-56.12,-992.59,210.0,-673.75,-402.50,1,94.468,
01/01/2000,00:54:12.96,22.57,-56.12,-992.59,218.75,-638.75,-385.0,1,94.480,
01/01/2000,00:54:12.97,22.33,-56.12,-992.47,183.75,-708.75,-376.25,1,94.492,
01/01/2000,00:54:12.98,22.45,-55.88,-992.59,122.50,-586.25,-297.50,1,94.503,
01/01/2000,00:54:12.99,22.45,-55.75,-992.71,140.0,-630.0,-306.25,1,94.515,
01/01/2000,00:54:13.00,22.33,-56.00,-992.71,35.0,-787.50,-245.0,1,94.526,
01/01/2000,00:54:13.01,21.96,-56.00,-992.71,157.50,-743.75,-315.0,1,94.340,
01/01/2000,00:54:13.02,21.96,-56.00,-992.71,236.25,-638.75,-603.75,1,94.549,
01/01/2000,00:54:13.03,22.94,-56.00,-992.23,148.75,-726.25,-463.75,1,94.363,
01/01/2000,00:54:13.05,22.20,-56.12,-992.23,35.0,-612.50,70.0,1,94.375,
01/01/2000,00:54:13.06,21.59,-56.49,-992.35,140.0,-612.50,-122.50,1,94.387,
01/01/2000,00:54:13.07,22.08,-56.36,-992.59,201.25,-638.75,-1015.0,1,94.398,
01/01/2000,00:54:13.08,22.69,-55.88,-992.59,122.50,-743.75,-210.0,1,94.410,
01/01/2000,00:54:13.09,22.45,-56.12,-992.47,236.25,-577.50,341.25,1,94.421,
01/01/2000,00:54:13.10,21.96,-56.12,-992.10,183.75,-848.75,-218.75,1,94.433,
01/01/2000,00:54:13.11,21.96,-56.49,-992.23,192.50,-770.0,-822.50,1,94.444,
01/01/2000,00:54:13.12,22.20,-56.36,-992.47,192.50,-761.25,-297.50,1,94.456,
01/01/2000,00:54:13.13,22.08,-56.12,-992.59,17.50,-638.75,-35.0,1,94.467,
01/01/2000,00:54:13.14,22.33,-56.00,-992.47,297.50,-726.25,-393.75,1,94.479,
01/01/2000,00:54:13.15,22.20,-55.88,-992.23,148.75,-673.75,-280.0,1,94.490,
01/01/2000,00:54:13.16,22.20,-56.24,-992.47,227.50,-700.0,-411.25,1,94.501,
01/01/2000,00:54:13.17,22.20,-56.36,-992.84,236.25,-778.75,-420.0,1,94.512,
01/01/2000,00:54:13.18,22.45,-56.24,-993.08,201.25,-805.0,-332.50,1,94.523,
01/01/2000,00:54:13.19,22.45,-55.88,-992.71,87.50,-761.25,-323.75,1,94.343,
01/01/2000,00:54:13.20,22.45,-55.88,-992.35,157.50,-612.50,-288.75,1,94.355,
01/01/2000,00:54:13.21,22.45,-56.12,-992.47,227.50,-516.25,-323.75,1,94.366,
01/01/2000,00:54:13.22,22.69,-56.12,-992.71,315.0,-708.75,-271.25,1,94.378,
01/01/2000,00:54:13.23,22.57,-56.36,-992.84,236.25,-638.75,-393.75,1,94.389,
01/01/2000,00:54:13.24,22.45,-56.36,-992.59,227.50,-682.50,-306.25,1,94.400,
01/01/2000,00:54:13.26,22.45,-56.12,-992.35,140.0,-831.25,-376.25,1,94.411,
01/01/2000,00:54:13.27,22.57,-56.12,-992.47,227.50,-848.75,-323.75,1,94.422,
01/01/2000,00:54:13.28,22.45,-56.12,-992.71,271.25,-630.0,-350.0,1,94.433,
01/01/2000,00:54:13.29,22.69,-56.12,-992.71,105.0,-656.25,-271.25,1,94.444,
01/01/2000,00:54:13.30,22.69,-56.12,-992.59,253.75,-691.25,-315.0,1,94.455,
01/01/2000,00:54:13.31,22.57,-56.12,-992.35,113.75,-647.50,-297.50,1,94.466,
01/01/2000,00:54:13.32,22.69,-55.88,-992.47,166.25,-621.25,-367.50,1,94.477,
01/01/2000,00:54:13.33,22.69,-56.12,-992.59,122.50,-577.50,-323.75,1,94.488,
01/01/2000,00:54:13.34,22.57,-56.24,-992.71,157.50,-761.25,-367.50,1,94.314,
01/01/2000,00:54:13.35,22.57,-56.24,-992.71,175.0,-656.25,-358.75,1,94.325,
01/01/2000,00:54:13.37,22.69,-56.00,-992.47,113.75,-691.25,-297.50,1,94.336,
01/01/2000,00:54:13.38,22.57,-56.00,-992.59,122.50,-752.50,-306.25,1,94.347,
01/01/2000,00:54:13.39,22.45,-56.12,-992.71,183.75,-691.25,-262.50,1,94.358,
01/01/2000,00:54:13.40,22.45,-56.24,-992.71,131.25,-700.0,-463.75,1,94.369,
01/01/2000,00:54:13.41,22.45,-56.24,-992.84,166.25,-568.75,-262.50,1,94.380,
01/01/2000,00:54:13.42,22.45,-56.12,-992.84,192.50,-770.0,-428.75,1,94.391,
01/01/2000,00:54:13.43,22.57,-56.12,-992.71,227.50,-787.50,-332.50,1,94.402,
01/01/2000,00:54:13.44,22.69,-56.24,-992.59,78.75,-700.0,-332.50,1,94.412,
01/01/2000,00:54:13.45,22.57,-56.36,-992.71,157.50,-665.0,-402.50,1,94.423,
01/01/2000,00:54:13.46,22.45,-56.36,-992.71,315.0,-691.25,-350.0,1,94.434,
01/01/2000,00:54:13.47,22.45,-56.24,-992.59,201.25,-743.75,-367.50,1,94.444,
01/01/2000,00:54:13.48,22.57,-56.12,-992.47,175.0,-761.25,-393.75,1,94.455,
01/01/2000,00:54:13.49,22.45,-56.12,-992.59,87.50,-665.0,-315.0,1,94.466,
01/01/2000,00:54:13.50,22.45,-56.12,-992.71,131.25,-708.75,-490.0,1,94.476,
01/01/2000,00:54:13.51,22.45,-56.12,-992.71,210.0,-761.25,-227.50,1,94.487,
01/01/2000,00:54:13.52,22.45,-56.12,-992.59,113.75,-682.50,-315.0,1,94.497,
01/01/2000,00:54:13.53,22.57,-56.12,-992.71,166.25,-735.0,-297.50,1,94.508,
01/01/2000,00:54:13.54,22.57,-56.12,-992.59,218.75,-761.25,-245.0,1,94.340,
01/01/2000,00:54:13.55,22.45,-56.12,-992.59,122.50,-691.25,-341.25,1,94.350,
01/01/2000,00:54:13.56,22.20,-56.12,-992.59,245.0,-726.25,-297.50,1,94.361,
01/01/2000,00:54:13.57,22.33,-56.00,-992.71,183.75,-691.25,-245.0,1,94.371,
01/01/2000,00:54:13.58,22.45,-55.88,-992.84,201.25,-700.0,-393.75,1,94.382,
01/01/2000,00:54:13.60,22.45,-56.00,-992.59,210.0,-857.50,-306.25,1,94.393,
01/01/2000,00:54:13.61,22.33,-56.12,-992.35,26.25,-691.25,-385.0,1,94.403,
01/01/2000,00:54:13.62,22.45,-56.24,-992.47,43.75,-682.50,-376.25,1,94.413,
01/01/2000,00:54:13.63,22.57,-56.12,-992.59,35.0,-726.25,-306.25,1,94.424,
01/01/2000,00:54:13.64,22.45,-56.00,-992.59,140.0,-630.0,-315.0,1,94.434,
01/01/2000,00:54:13.65,22.20,-56.00,-992.35,78.75,-805.0,-297.50,1,94.444,
01/01/2000,00:54:13.66,22.33,-56.12,-992.35,105.0,-787.50,-280.0,1,94.455,
01/01/2000,00:54:13.67,22.45,-56.24,-992.47,245.0,-752.50,-358.75,1,94.465,
01/01/2000,00:54:13.68,22.33,-56.12,-992.59,315.0,-717.50,-402.50,1,94.301,
01/01/2000,00:54:13.69,22.45,-56.12,-992.47,271.25,-700.0,-306.25,1,94.312,
01/01/2000,00:54:13.70,22.45,-56.12,-992.35,175.0,-708.75,-385.0,1,94.322,
01/01/2000,00:54:13.71,22.33,-56.12,-992.47,157.50,-682.50,-280.0,1,94.333,
01/01/2000,00:54:13.72,22.33,-56.12,-992.59,271.25,-665.0,-402.50,1,94.343,
01/01/2000,00:54:13.73,22.45,-56.36,-992.59,122.50,-691.25,-166.25,1,94.353,
01/01/2000,00:54:13.74,22.45,-56.49,-992.59,131.25,-778.75,-367.50,1,94.364,
01/01/2000,00:54:13.76,22.33,-56.36,-992.59,96.25,-752.50,-332.50,1,94.374,
01/01/2000,00:54:13.77,22.45,-56.36,-992.59,192.50,-682.50,-358.75,1,94.384,
01/01/2000,00:54:13.78,22.45,-56.36,-992.59,105.0,-752.50,-280.0,1,94.394,
01/01/2000,00:54:13.79,22.45,-56.36,-992.71,201.25,-656.25,-332.50,1,94.404,
01/01/2000,00:54:13.80,22.45,-56.49,-992.59,262.50,-700.0,-420.0,1,94.414,
01/01/2000,00:54:13.81,22.45,-56.36,-992.59,140.0,-743.75,-315.0,1,94.424,
01/01/2000,00:54:13.82,22.45,-56.36,-992.71,175.0,-761.25,-332.50,1,94.434,
01/01/2000,00:54:13.83,22.45,-56.36,-992.71,26.25,-717.50,-280.0,1,94.444,
01/01/2000,00:54:13.84,22.33,-56.49,-992.84,148.75,-752.50,-393.75,1,94.454,
01/01/2000,00:54:13.85,22.45,-56.36,-992.84,61.25,-603.75,-323.75,1,94.464,
01/01/2000,00:54:13.86,22.33,-56.49,-992.71,218.75,-665.0,-315.0,1,94.474,
01/01/2000,00:54:13.87,22.45,-56.36,-992.71,192.50,-638.75,-280.0,1,94.316,
01/01/2000,00:54:13.89,22.45,-56.36,-992.71,122.50,-726.25,-385.0,1,94.326,
01/01/2000,00:54:13.90,22.33,-56.36,-992.84,227.50,-603.75,-350.0,1,94.336,
01/01/2000,00:54:13.91,22.20,-56.36,-992.71,218.75,-665.0,-385.0,1,94.346,
01/01/2000,00:54:13.92,22.45,-56.36,-992.59,105.0,-717.50,-350.0,1,94.356,
01/01/2000,00:54:13.93,22.45,-56.24,-992.59,271.25,-752.50,-315.0,1,94.366,
01/01/2000,00:54:13.94,22.45,-56.36,-992.59,140.0,-708.75,-288.75,1,94.376,
01/01/2000,00:54:13.95,22.33,-56.36,-992.71,157.50,-831.25,-402.50,1,94.386,
01/01/2000,00:54:13.96,22.20,-56.36,-992.59,113.75,-691.25,-358.75,1,94.396,
01/01/2000,00:54:13.97,22.20,-56.36,-992.59,87.50,-647.50,-315.0,1,94.406,
01/01/2000,00:54:13.98,22.33,-56.36,-992.84,148.75,-656.25,-315.0,1,94.415,
01/01/2000,00:54:13.99,22.33,-56.49,-992.71,105.0,-735.0,-376.25,1,94.425,
01/01/2000,00:54:14.00,22.33,-56.49,-992.59,96.25,-743.75,-210.0,1,94.435,
01/01/2000,00:54:14.01,22.20,-56.36,-992.59,192.50,-673.75,-393.75,1,94.444,
01/01/2000,00:54:14.02,22.20,-56.36,-992.47,157.50,-700.0,-385.0,1,94.454,
01/01/2000,00:54:14.03,22.20,-56.36,-992.47,148.75,-647.50,-297.50,1,94.301,
01/01/2000,00:54:14.04,22.33,-56.24,-992.47,148.75,-638.75,-393.75,1,94.310,
01/01/2000,00:54:14.05,22.20,-56.36,-992.35,87.50,-752.50,-253.75,1,94.320,
01/01/2000,00:54:14.06,22.20,-56.24,-992.35,218.75,-682.50,-306.25,1,94.330,
01/01/2000,00:54:14.07,22.33,-56.36,-992.35,140.0,-656.25,-323.75,1,94.340,
01/01/2000,00:54:14.08,22.20,-56.24,-992.35,245.0,-700.0,-262.50,1,94.349,
01/01/2000,00:54:14.09,22.20,-56.12,-992.35,131.25,-647.50,-253.75,1,94.359,
01/01/2000,00:54:14.11,22.08,-56.24,-992.35,175.0,-665.0,-358.75,1,94.369,
01/01/2000,00:54:14.12,22.20,-56.12,-992.47,122.50,-691.25,-332.50,1,94.378,
01/01/2000,00:54:14.13,22.20,-56.24,-992.47,262.50,-717.50,-323.75,1,94.388,
01/01/2000,00:54:14.14,22.33,-56.12,-992.35,61.25,-735.0,-306.25,1,94.397,
01/01/2000,00:54:14.15,22.33,-56.24,-992.47,218.75,-647.50,-455.0,1,94.407,
01/01/2000,00:54:14.16,22.20,-56.12,-992.59,61.25,-647.50,-253.75,1,94.416,
01/01/2000,00:54:14.17,22.33,-56.24,-992.71,113.75,-700.0,-367.50,1,94.426,
01/01/2000,00:54:14.18,22.33,-56.24,-992.59,148.75,-665.0,-332.50,1,94.435,
01/01/2000,00:54:14.19,22.45,-56.24,-992.59,140.0,-621.25,-262.50,1,94.444,
01/01/2000,00:54:14.20,22.45,-56.36,-992.59,148.75,-595.0,-262.50,1,94.454,
01/01/2000,00:54:14.21,22.45,-56.36,-992.47,61.25,-813.75,-367.50,1,94.463,
01/01/2000,00:54:14.22,22.45,-56.36,-992.59,236.25,-647.50,-253.75,1,94.472,
01/01/2000,00:54:14.23,22.45,-56.36,-992.71,122.50,-708.75,-323.75,1,94.482,
01/01/2000,00:54:14.24,22.45,-56.24,-992.71,131.25,-831.25,-350.0,1,94.333,
01/01/2000,00:54:14.25,22.57,-56.24,-992.59,183.75,-717.50,-227.50,1,94.343,
01/01/2000,00:54:14.26,22.57,-56.12,-992.59,262.50,-717.50,-323.75,1,94.352,
01/01/2000,00:54:14.27,22.57,-56.12,-992.84,236.25,-761.25,-306.25,1,94.362,
01/01/2000,00:54:14.28,22.57,-56.00,-992.84,157.50,-638.75,-341.25,1,94.371,
01/01/2000,00:54:14.29,22.45,-56.00,-992.71,96.25,-682.50,-367.50,1,94.380,
01/01/2000,00:54:14.30,22.45,-56.12,-992.59,183.75,-638.75,-376.25,1,94.389,
01/01/2000,00:54:14.32,22.45,-56.12,-992.59,122.50,-735.0,-271.25,1,94.399,
01/01/2000,00:54:14.33,22.45,-56.24,-992.84,105.0,-726.25,-280.0,1,94.408,
01/01/2000,00:54:14.34,22.45,-56.12,-992.84,131.25,-761.25,-201.25,1,94.417,
01/01/2000,00:54:14.35,22.57,-56.12,-992.96,201.25,-691.25,-358.75,1,94.426,
01/01/2000,00:54:14.36,22.57,-56.00,-992.84,96.25,-708.75,-288.75,1,94.435,
01/01/2000,00:54:14.37,22.45,-56.12,-992.59,140.0,-621.25,-393.75,1,94.444,
01/01/2000,00:54:14.39,22.69,-56.00,-992.71,166.25,-630.0,-315.0,1,94.300,
01/01/2000,00:54:14.40,22.81,-56.00,-992.71,210.0,-612.50,-262.50,1,94.309,
01/01/2000,00:54:14.41,22.57,-56.12,-992.59,61.25,-778.75,-315.0,1,94.318,
01/01/2000,00:54:14.42,22.57,-56.12,-992.47,113.75,-752.50,-306.25,1,94.327,
01/01/2000,00:54:14.43,22.57,-56.24,-992.47,280.0,-691.25,-315.0,1,94.337,
01/01/2000,00:54:14.44,22.57,-56.36,-992.47,140.0,-770.0,-262.50,1,94.346,
01/01/2000,00:54:14.45,22.45,-56.24,-992.59,175.0,-770.0,-315.0,1,94.355,
01/01/2000,00:54:14.46,22.33,-56.12,-992.71,52.50,-761.25,-315.0,1,94.364,
01/01/2000,00:54:14.47,22.20,-56.24,-992.71,227.50,-630.0,-402.50,1,94.373,
01/01/2000,00:54:14.48,22.33,-56.00,-992.71,105.0,-752.50,-166.25,1,94.382,
01/01/2000,00:54:14.49,22.45,-56.12,-992.84,236.25,-708.75,-341.25,1,94.391,
01/01/2000,00:54:14.50,22.33,-56.12,-992.71,166.25,-770.0,-280.0,1,94.400,
01/01/2000,00:54:14.51,22.20,-56.36,-992.84,87.50,-682.50,-341.25,1,94.409,
01/01/2000,00:54:14.52,22.20,-56.12,-992.59,122.50,-813.75,-218.75,1,94.418,
01/01/2000,00:54:14.53,22.20,-56.12,-992.71,192.50,-595.0,-323.75,1,94.427,
01/01/2000,00:54:14.54,22.20,-56.12,-992.59,17.50,-743.75,-183.75,1,94.436,
01/01/2000,00:54:14.55,22.33,-56.12,-992.59,201.25,-603.75,-367.50,1,94.444,
01/01/2000,00:54:14.56,22.33,-56.12,-992.35,26.25,-595.0,-323.75,1,94.453,
01/01/2000,00:54:14.57,22.20,-56.12,-992.47,105.0,-717.50,-288.75,1,94.462,
01/01/2000,00:54:14.58,22.20,-56.12,-992.47,227.50,-665.0,-358.75,1,94.471,
01/01/2000,00:54:14.59,22.33,-56.00,-992.47,210.0,-603.75,-367.50,1,94.331,
01/01/2000,00:54:14.60,22.20,-56.00,-992.35,105.0,-717.50,-332.50,1,94.340,
01/01/2000,00:54:14.61,22.08,-56.00,-992.23,157.50,-735.0,-376.25,1,94.349,
01/01/2000,00:54:14.62,22.20,-55.88,-992.35,148.75,-691.25,-376.25,1,94.357,
01/01/2000,00:54:14.63,22.45,-56.00,-992.35,148.75,-700.0,-358.75,1,94.366,
01/01/2000,00:54:14.64,22.45,-56.00,-992.35,157.50,-848.75,-411.25,1,94.375,
01/01/2000,00:54:14.65,22.45,-56.12,-992.47,166.25,-700.0,-157.50,1,94.384,
01/01/2000,00:54:14.67,22.45,-56.12,-992.59,113.75,-770.0,-253.75,1,94.393,
01/01/2000,00:54:14.68,22.45,-56.12,-992.71,210.0,-612.50,-376.25,1,94.401,
01/01/2000,00:54:14.69,22.45,-56.12,-992.84,105.0,-691.25,-245.0,1,94.410,
01/01/2000,00:54:14.70,22.33,-56.12,-992.71,245.0,-647.50,-341.25,1,94.419,
01/01/2000,00:54:14.71,22.33,-56.24,-992.59,87.50,-708.75,-262.50,1,94.427,
01/01/2000,00:54:14.72,20.25,-55.75,-972.10,-87.50,-332.50,2826.25,1,94.436,
01/01/2000,00:54:14.73,10.25,-52.34,-946.60,472.50,-1391.25,2843.75,1,94.444,
01/01/2000,00:54:14.74,19.03,-59.05,-986.86,-35.0,-1522.50,-3263.75,1,94.308,
01/01/2000,00:54:14.75,28.55,-62.10,-1024.07,735.0,-350.0,-3193.75,1,94.316,
01/01/2000,00:54:14.76,30.99,-61.0,-1044.20,236.25,262.50,1233.75,1,94.325,
01/01/2000,00:54:14.77,30.13,-56.12,-1039.07,-61.25,70.0,1417.50,1,94.334,
01/01/2000,00:54:14.78,25.99,-50.87,-1002.96,691.25,-577.50,-516.25,1,94.343,
01/01/2000,00:54:14.79,23.18,-50.39,-980.15,-157.50,-945.0,-953.75,1,94.351,
01/01/2000,00:54:14.81,20.25,-58.93,-972.10,-17.50,-1303.75,1286.25,1,94.360,
01/01/2000,00:54:14.82,21.96,-62.95,-984.66,-113.75,-848.75,-1723.75,1,94.368,
01/01/2000,00:54:14.83,23.67,-63.20,-1000.40,385.0,-551.25,-2362.50,1,94.377,
01/01/2000,00:54:14.84,24.77,-55.63,-1007.72,192.50,-315.0,-288.75,1,94.385,
01/01/2000,00:54:14.85,23.06,-50.26,-1001.38,350.0,-428.75,1172.50,1,94.394,
01/01/2000,00:54:14.86,22.08,-48.31,-991.98,96.25,-533.75,857.50,1,94.402,
01/01/2000,00:54:14.87,21.35,-51.85,-984.78,122.50,-822.50,568.75,1,94.411,
01/01/2000,00:54:14.88,21.72,-60.15,-984.91,26.25,-883.75,-78.75,1,94.419,
01/01/2000,00:54:14.89,23.30,-63.20,-993.32,78.75,-735.0,-1960.0,1,94.286,
01/01/2000,00:54:14.91,23.18,-57.46,-996.01,341.25,-630.0,-1198.75,1,94.294,
01/01/2000,00:54:14.92,22.20,-52.46,-993.57,227.50,-551.25,-43.75,1,94.303,
01/01/2000,00:54:14.93,21.47,-49.78,-990.64,-26.25,-726.25,647.50,1,94.311,
01/01/2000,00:54:14.94,21.23,-51.61,-989.18,166.25,-743.75,997.50,1,94.320,
01/01/2000,00:54:14.95,21.96,-57.83,-990.88,140.0,-700.0,-122.50,1,94.328,
01/01/2000,00:54:14.96,22.94,-60.76,-992.84,192.50,-665.0,-988.75,1,94.337,
01/01/2000,00:54:14.97,23.18,-60.63,-993.20,227.50,-778.75,-1111.25,1,94.345,
01/01/2000,00:54:14.98,22.94,-56.12,-991.13,113.75,-708.75,-1137.50,1,94.354,
01/01/2000,00:54:14.99,22.20,-53.56,-990.27,245.0,-840.0,-315.0,1,94.362,
01/01/2000,00:54:15.00,21.59,-52.46,-990.88,113.75,-752.50,481.25,1,94.370,
01/01/2000,00:54:15.01,21.59,-54.05,-992.47,140.0,-656.25,551.25,1,94.379,
01/01/2000,00:54:15.02,22.20,-57.71,-993.81,358.75,-700.0,-140.0,1,94.387,
01/01/2000,00:54:15.03,22.57,-58.56,-992.96,131.25,-735.0,-883.75,1,94.395,
01/01/2000,00:54:15.04,22.69,-58.07,-991.62,70.0,-796.25,-1137.50,1,94.404,
01/01/2000,00:54:15.05,22.57,-56.73,-990.88,192.50,-857.50,-507.50,1,94.412,
01/01/2000,00:54:15.06,21.96,-54.90,-992.10,113.75,-586.25,-183.75,1,94.420,
01/01/2000,00:54:15.07,21.72,-54.66,-993.69,131.25,-656.25,201.25,1,94.428,
01/01/2000,00:54:15.08,21.72,-55.14,-994.30,157.50,-542.50,192.50,1,94.436,
01/01/2000,00:54:15.09,22.20,-56.24,-992.84,113.75,-691.25,-341.25,1,94.307,
01/01/2000,00:54:15.10,22.45,-56.73,-991.62,166.25,-717.50,-568.75,1,94.315,
01/01/2000,00:54:15.11,22.69,-56.85,-991.13,218.75,-770.0,-735.0,1,94.323,
01/01/2000,00:54:15.12,22.33,-56.61,-992.10,323.75,-708.75,-341.25,1,94.331,
01/01/2000,00:54:15.13,22.08,-56.00,-993.08,227.50,-700.0,-183.75,1,94.340,
01/01/2000,00:54:15.14,21.84,-55.51,-993.45,210.0,-586.25,-52.50,1,94.348,
01/01/2000,00:54:15.16,22.08,-55.14,-992.47,61.25,-621.25,-253.75,1,94.356,
01/01/2000,00:54:15.17,22.45,-55.63,-991.74,148.75,-691.25,-402.50,1,94.364,
01/01/2000,00:54:15.18,22.69,-56.73,-991.86,192.50,-647.50,-385.0,1,94.372,
01/01/2000,00:54:15.19,22.69,-56.97,-992.47,70.0,-735.0,-533.75,1,94.380,
01/01/2000,00:54:15.20,22.57,-56.73,-992.96,175.0,-717.50,-358.75,1,94.388,
01/01/2000,00:54:15.21,22.45,-56.00,-992.96,271.25,-735.0,-393.75,1,94.397,
01/01/2000,00:54:15.22,22.33,-55.27,-992.59,52.50,-603.75,-157.50,1,94.405,
01/01/2000,00:54:15.23,22.45,-55.14,-992.47,-8.75,-752.50,-376.25,1,94.413,
01/01/2000,00:54:15.24,22.45,-56.24,-992.84,218.75,-673.75,-332.50,1,94.421,
01/01/2000,00:54:15.25,22.45,-56.85,-993.08,122.50,-682.50,-315.0,1,94.429,
01/01/2000,00:54:15.26,22.20,-56.85,-992.84,87.50,-691.25,-306.25,1,94.437,
01/01/2000,00:54:15.27,22.20,-56.49,-992.47,78.75,-647.50,-411.25,1,94.444,
01/01/2000,00:54:15.28,22.45,-55.51,-992.10,245.0,-717.50,-297.50,1,94.452,
01/01/2000,00:54:15.29,22.33,-55.51,-992.59,218.75,-673.75,-245.0,1,94.460,
01/01/2000,00:54:15.31,22.08,-56.00,-993.20,78.75,-656.25,-245.0,1,94.334,
01/01/2000,00:54:15.31,22.20,-56.61,-993.20,183.75,-735.0,-358.75,1,94.342,
01/01/2000,00:54:15.33,22.33,-56.61,-992.71,17.50,-560.0,-297.50,1,94.350,
01/01/2000,00:54:15.34,22.57,-56.49,-992.10,306.25,-700.0,-306.25,1,94.358,
01/01/2000,00:54:15.35,22.45,-56.12,-992.35,166.25,-673.75,-280.0,1,94.366,
01/01/2000,00:54:15.36,22.33,-55.88,-992.84,192.50,-717.50,-367.50,1,94.374,
01/01/2000,00:54:15.37,22.20,-55.88,-993.20,105.0,-752.50,-253.75,1,94.382,
01/01/2000,00:54:15.38,22.20,-55.88,-993.08,183.75,-630.0,-262.50,1,94.390,
01/01/2000,00:54:15.39,22.45,-56.12,-992.59,245.0,-708.75,-306.25,1,94.398,
01/01/2000,00:54:15.40,22.45,-56.36,-992.10,78.75,-647.50,-280.0,1,94.274,
01/01/2000,00:54:15.41,22.33,-56.49,-992.35,183.75,-726.25,-393.75,1,94.282,
01/01/2000,00:54:15.42,22.08,-56.36,-992.84,96.25,-726.25,-385.0,1,94.290,
01/01/2000,00:54:15.43,21.96,-56.12,-993.08,87.50,-691.25,-350.0,1,94.298,
01/01/2000,00:54:15.45,22.20,-55.75,-992.59,96.25,-656.25,-271.25,1,94.306,
01/01/2000,00:54:15.46,22.33,-55.75,-992.23,26.25,-726.25,-253.75,1,94.313,
01/01/2000,00:54:15.47,22.33,-56.36,-992.35,175.0,-726.25,-236.25,1,94.321,
01/01/2000,00:54:15.48,22.33,-56.61,-992.71,131.25,-743.75,-551.25,1,94.329,
01/01/2000,00:54:15.49,22.33,-56.61,-992.84,105.0,-805.0,-455.0,1,94.337,
01/01/2000,00:54:15.50,22.20,-56.12,-992.96,87.50,-770.0,-350.0,1,94.345,
01/01/2000,00:54:15.51,22.20,-55.63,-992.59,148.75,-682.50,-280.0,1,94.353,
01/01/2000,00:54:15.52,22.08,-55.63,-992.47,280.0,-630.0,-271.25,1,94.360,
01/01/2000,00:54:15.53,22.20,-56.12,-992.59,140.0,-656.25,-253.75,1,94.368,
01/01/2000,00:54:15.54,22.20,-56.49,-992.84,105.0,-691.25,-367.50,1,94.376,
01/01/2000,00:54:15.55,22.20,-56.61,-992.84,166.25,-595.0,-472.50,1,94.384,
01/01/2000,00:54:15.56,22.20,-56.24,-992.84,131.25,-708.75,-358.75,1,94.391,
01/01/2000,00:54:15.57,22.20,-55.88,-992.71,166.25,-700.0,-376.25,1,94.399,
01/01/2000,00:54:15.58,22.20,-55.63,-992.84,210.0,-638.75,-306.25,1,94.407,
01/01/2000,00:54:15.59,22.33,-55.88,-992.96,236.25,-708.75,-376.25,1,94.414,
01/01/2000,00:54:15.60,22.33,-56.00,-992.96,166.25,-682.50,-341.25,1,94.422,
01/01/2000,00:54:15.61,22.45,-56.12,-992.84,122.50,-743.75,-411.25,1,94.429,
01/01/2000,00:54:15.62,22.57,-56.24,-992.59,201.25,-638.75,-306.25,1,94.437,
01/01/2000,00:54:15.63,22.45,-56.00,-992.71,78.75,-813.75,-306.25,1,94.444,
01/01/2000,00:54:15.64,22.45,-56.00,-992.96,96.25,-752.50,-253.75,1,94.324,
01/01/2000,00:54:15.66,22.45,-55.88,-993.20,323.75,-787.50,-306.25,1,94.332,
01/01/2000,00:54:15.67,22.45,-56.12,-992.96,183.75,-691.25,-341.25,1,94.340,
01/01/2000,00:54:15.68,22.45,-56.36,-992.59,236.25,-743.75,-367.50,1,94.347,
01/01/2000,00:54:15.69,22.45,-56.36,-992.47,122.50,-691.25,-323.75,1,94.355,
01/01/2000,00:54:15.70,22.57,-56.24,-992.35,271.25,-673.75,-516.25,1,94.362,
01/01/2000,00:54:15.71,22.33,-56.00,-992.71,166.25,-708.75,-315.0,1,94.370,
01/01/2000,00:54:15.72,22.20,-55.75,-992.96,157.50,-638.75,-358.75,1,94.378,
01/01/2000,00:54:15.73,22.08,-55.75,-992.84,113.75,-726.25,-315.0,1,94.385,
01/01/2000,00:54:15.74,22.33,-56.12,-992.47,87.50,-717.50,-323.75,1,94.393,
01/01/2000,00:54:15.75,22.45,-56.36,-992.35,175.0,-708.75,-315.0,1,94.400,
01/01/2000,00:54:15.76,22.45,-56.12,-992.47,175.0,-761.25,-367.50,1,94.407,
01/01/2000,00:54:15.77,22.45,-56.24,-992.59,288.75,-761.25,-253.75,1,94.415,
01/01/2000,00:54:15.78,22.45,-55.88,-992.84,131.25,-682.50,-428.75,1,94.422,
01/01/2000,00:54:15.79,22.33,-55.51,-992.71,210.0,-665.0,-245.0,1,94.305,
01/01/2000,00:54:15.80,22.33,-55.63,-992.71,227.50,-551.25,-315.0,1,94.312,
01/01/2000,00:54:15.81,22.33,-56.12,-992.71,96.25,-708.75,-297.50,1,94.320,
01/01/2000,00:54:15.82,22.57,-56.49,-992.84,175.0,-717.50,-446.25,1,94.327,
01/01/2000,00:54:15.83,22.45,-56.49,-993.08,105.0,-647.50,-385.0,1,94.335,
01/01/2000,00:54:15.84,22.33,-56.12,-993.08,122.50,-813.75,-332.50,1,94.342,
01/01/2000,00:54:15.85,22.20,-56.00,-992.84,122.50,-778.75,-306.25,1,94.350,
01/01/2000,00:54:15.87,22.20,-55.88,-992.71,166.25,-647.50,-280.0,1,94.357,
01/01/2000,00:54:15.88,22.33,-56.36,-992.71,166.25,-700.0,-402.50,1,94.364,
01/01/2000,00:54:15.89,22.45,-56.24,-992.96,227.50,-577.50,-253.75,1,94.372,
01/01/2000,00:54:15.90,22.45,-56.36,-992.84,323.75,-691.25,-472.50,1,94.379,
01/01/2000,00:54:15.91,22.45,-56.00,-992.84,245.0,-778.75,-341.25,1,94.263,
01/01/2000,00:54:15.92,22.45,-55.88,-992.84,140.0,-577.50,-297.50,1,94.271,
01/01/2000,00:54:15.94,22.45,-55.75,-993.08,105.0,-726.25,-297.50,1,94.278,
01/01/2000,00:54:15.94,22.69,-56.24,-993.20,210.0,-691.25,-323.75,1,94.286,
01/01/2000,00:54:15.96,22.69,-56.49,-993.08,245.0,-700.0,-306.25,1,94.293,
01/01/2000,00:54:15.97,22.69,-56.36,-992.96,52.50,-691.25,-315.0,1,94.301,
01/01/2000,00:54:15.98,22.69,-56.24,-992.84,262.50,-673.75,-385.0,1,94.308,
01/01/2000,00:54:15.99,22.57,-55.88,-992.96,35.0,-743.75,-280.0,1,94.315,
01/01/2000,00:54:16.00,22.57,-55.88,-993.08,70.0,-726.25,-306.25,1,94.323,
01/01/2000,00:54:16.01,22.57,-56.12,-993.08,52.50,-682.50,-323.75,1,94.330,
01/01/2000,00:54:16.02,22.69,-56.36,-992.96,113.75,-708.75,-332.50,1,94.337,
01/01/2000,00:54:16.03,22.69,-56.61,-992.84,350.0,-638.75,-323.75,1,94.344,
01/01/2000,00:54:16.04,22.69,-56.36,-992.84,271.25,-787.50,-437.50,1,94.352,
01/01/2000,00:54:16.05,22.69,-56.36,-992.84,306.25,-726.25,-315.0,1,94.359,
01/01/2000,00:54:16.06,22.45,-56.12,-992.96,96.25,-743.75,-411.25,1,94.366,
01/01/2000,00:54:16.07,22.33,-56.12,-992.84,78.75,-656.25,-367.50,1,94.373,
01/01/2000,00:54:16.08,22.45,-56.24,-992.84,175.0,-743.75,-262.50,1,94.381,
01/01/2000,00:54:16.09,22.57,-56.24,-992.71,122.50,-726.25,-315.0,1,94.388,
01/01/2000,00:54:16.10,22.45,-56.12,-992.71,166.25,-603.75,-367.50,1,94.395,
01/01/2000,00:54:16.11,22.45,-56.36,-992.59,122.50,-621.25,-323.75,1,94.402,
01/01/2000,00:54:16.12,22.33,-56.12,-992.71,113.75,-752.50,-350.0,1,94.409,
01/01/2000,00:54:16.13,22.20,-56.12,-992.71,227.50,-621.25,-288.75,1,94.416,
01/01/2000,00:54:16.14,22.33,-56.12,-992.71,70.0,-743.75,-358.75,1,94.304,
01/01/2000,00:54:16.15,22.33,-56.12,-992.71,218.75,-682.50,-332.50,1,94.311,
01/01/2000,00:54:16.17,22.45,-56.00,-992.84,148.75,-630.0,-227.50,1,94.318,
01/01/2000,00:54:16.17,22.33,-56.12,-992.59,253.75,-708.75,-367.50,1,94.325,
01/01/2000,00:54:16.19,22.20,-56.12,-992.71,17.50,-630.0,-271.25,1,94.332,
01/01/2000,00:54:16.20,22.45,-56.12,-992.84,218.75,-735.0,-367.50,1,94.340,
01/01/2000,00:54:16.21,22.45,-56.12,-992.84,323.75,-883.75,-341.25,1,94.347,
01/01/2000,00:54:16.22,22.33,-56.24,-992.59,227.50,-717.50,-350.0,1,94.354,
01/01/2000,00:54:16.23,22.20,-56.12,-992.59,253.75,-656.25,-350.0,1,94.361,
01/01/2000,00:54:16.24,22.20,-56.12,-992.59,113.75,-630.0,-411.25,1,94.368,
01/01/2000,00:54:16.25,22.20,-56.00,-992.71,332.50,-726.25,-201.25,1,94.375,
01/01/2000,00:54:16.26,22.45,-56.00,-992.96,227.50,-708.75,-358.75,1,94.382,
01/01/2000,00:54:16.27,22.33,-56.12,-993.08,61.25,-743.75,-385.0,1,94.389,
01/01/2000,00:54:16.28,22.20,-56.00,-992.84,148.75,-595.0,-402.50,1,94.396,
01/01/2000,00:54:16.29,22.20,-56.00,-992.84,358.75,-761.25,-271.25,1,94.286,
01/01/2000,00:54:16.30,22.20,-55.88,-992.96,17.50,-665.0,-192.50,1,94.293,
01/01/2000,00:54:16.31,22.33,-56.00,-992.84,192.50,-752.50,-332.50,1,94.300,
01/01/2000,00:54:16.32,22.33,-56.12,-992.84,166.25,-717.50,-341.25,1,94.307,
01/01/2000,00:54:16.33,22.20,-56.12,-992.84,227.50,-840.0,-341.25,1,94.314,
01/01/2000,00:54:16.34,22.33,-56.00,-992.59,131.25,-726.25,-297.50,1,94.321,
01/01/2000,00:54:16.36,22.20,-56.00,-992.59,87.50,-665.0,-271.25,1,94.328,
01/01/2000,00:54:16.37,22.33,-56.00,-992.71,210.0,-735.0,-245.0,1,94.335,
01/01/2000,00:54:16.38,22.20,-56.12,-992.84,218.75,-551.25,-315.0,1,94.342,
01/01/2000,00:54:16.39,22.33,-56.24,-992.71,157.50,-691.25,-420.0,1,94.349,
01/01/2000,00:54:16.40,22.33,-56.24,-992.47,236.25,-726.25,-323.75,1,94.356,
01/01/2000,00:54:16.41,22.33,-56.12,-992.35,113.75,-621.25,-253.75,1,94.363,
01/01/2000,00:54:16.42,22.45,-56.12,-992.47,236.25,-673.75,-341.25,1,94.254,
01/01/2000,00:54:16.44,22.45,-56.12,-992.71,271.25,-717.50,-350.0,1,94.261,
01/01/2000,00:54:16.45,22.81,-56.12,-992.71,218.75,-726.25,-402.50,1,94.268,
01/01/2000,00:54:16.46,22.81,-56.24,-992.59,201.25,-630.0,-297.50,1,94.275,
01/01/2000,00:54:16.47,22.81,-56.24,-992.59,166.25,-735.0,-393.75,1,94.282,
01/01/2000,00:54:16.48,22.69,-56.12,-992.59,297.50,-647.50,-280.0,1,94.289,
01/01/2000,00:54:16.49,22.69,-56.00,-992.59,43.75,-743.75,-472.50,1,94.296,
01/01/2000,00:54:16.50,22.57,-56.12,-992.84,236.25,-717.50,-297.50,1,94.303,
01/01/2000,00:54:16.51,22.57,-56.00,-992.84,96.25,-647.50,-402.50,1,94.310,
01/01/2000,00:54:16.52,22.45,-56.12,-992.96,-8.75,-770.0,-393.75,1,94.317,
01/01/2000,00:54:16.53,22.57,-56.36,-992.84,245.0,-735.0,-341.25,1,94.324,
01/01/2000,00:54:16.54,22.69,-56.36,-992.84,218.75,-656.25,-437.50,1,94.331,
01/01/2000,00:54:16.55,22.69,-56.24,-992.71,122.50,-743.75,-350.0,1,94.337,
01/01/2000,00:54:16.56,22.57,-56.12,-992.84,192.50,-717.50,-332.50,1,94.344,
01/01/2000,00:54:16.57,22.45,-56.00,-992.59,148.75,-726.25,-280.0,1,94.238,
01/01/2000,00:54:16.58,22.45,-56.00,-992.47,52.50,-673.75,-306.25,1,94.245,
01/01/2000,00:54:16.59,22.45,-56.12,-992.59,122.50,-665.0,-420.0,1,94.251,
01/01/2000,00:54:16.60,22.45,-56.12,-992.71,113.75,-630.0,-455.0,1,94.258,
01/01/2000,00:54:16.61,22.45,-56.00,-992.84,157.50,-665.0,-315.0,1,94.265,
01/01/2000,00:54:16.62,22.45,-55.88,-992.84,140.0,-822.50,-323.75,1,94.272,
01/01/2000,00:54:16.63,22.57,-55.75,-992.84,52.50,-647.50,-245.0,1,94.279,
01/01/2000,00:54:16.65,22.45,-56.00,-992.84,157.50,-813.75,-262.50,1,94.286,
01/01/2000,00:54:16.66,22.57,-55.88,-992.84,35.0,-595.0,-297.50,1,94.293,
01/01/2000,00:54:16.67,22.45,-56.12,-992.84,201.25,-682.50,-437.50,1,94.299,
01/01/2000,00:54:16.68,22.45,-56.12,-992.84,140.0,-770.0,-350.0,1,94.306,
01/01/2000,00:54:16.69,22.45,-56.00,-992.84,262.50,-665.0,-393.75,1,94.313,
01/01/2000,00:54:16.70,22.45,-56.00,-992.84,201.25,-577.50,-341.25,1,94.320,
01/01/2000,00:54:16.71,22.57,-55.88,-992.71,201.25,-700.0,-420.0,1,94.326,
01/01/2000,00:54:16.72,22.45,-55.88,-992.84,192.50,-612.50,-393.75,1,94.333,
01/01/2000,00:54:16.73,22.57,-55.88,-992.84,105.0,-691.25,-332.50,1,94.340,
01/01/2000,00:54:16.74,22.57,-55.88,-992.84,183.75,-770.0,-385.0,1,94.346,
01/01/2000,00:54:16.75,22.57,-56.12,-992.71,140.0,-761.25,-253.75,1,94.353,
01/01/2000,00:54:16.76,22.57,-56.24,-992.59,236.25,-708.75,-376.25,1,94.360,
01/01/2000,00:54:16.77,22.69,-56.00,-992.59,61.25,-647.50,-315.0,1,94.366,
01/01/2000,00:54:16.78,22.57,-56.12,-992.59,245.0,-717.50,-323.75,1,94.262,
01/01/2000,00:54:16.79,22.57,-56.12,-992.59,175.0,-656.25,-420.0,1,94.269,
01/01/2000,00:54:16.80,22.57,-56.24,-992.71,245.0,-665.0,-437.50,1,94.276,
01/01/2000,00:54:16.81,22.57,-56.12,-992.71,122.50,-630.0,-262.50,1,94.282,
01/01/2000,00:54:16.82,22.45,-56.00,-992.71,96.25,-726.25,-280.0,1,94.289,
01/01/2000,00:54:16.83,22.45,-56.12,-992.84,131.25,-735.0,-332.50,1,94.296,
01/01/2000,00:54:16.85,22.45,-56.00,-993.08,253.75,-682.50,-350.0,1,94.302,
01/01/2000,00:54:16.86,22.45,-56.12,-992.96,131.25,-656.25,-393.75,1,94.309,
01/01/2000,00:54:16.87,22.57,-56.36,-992.96,367.50,-717.50,-262.50,1,94.316,
01/01/2000,00:54:16.88,22.45,-56.12,-992.96,157.50,-700.0,-350.0,1,94.322,
01/01/2000,00:54:16.89,22.45,-56.12,-992.71,227.50,-665.0,-341.25,1,94.329,
01/01/2000,00:54:16.90,22.45,-56.00,-992.71,78.75,-691.25,-402.50,1,94.335,
01/01/2000,00:54:16.91,22.45,-56.24,-992.71,271.25,-778.75,-358.75,1,94.342,
01/01/2000,00:54:16.92,22.57,-56.12,-992.84,96.25,-726.25,-411.25,1,94.348,
01/01/2000,00:54:16.94,22.69,-56.24,-992.71,113.75,-717.50,-227.50,1,94.246,
01/01/2000,00:54:16.95,22.69,-56.24,-992.59,122.50,-761.25,-350.0,1,94.253,
01/01/2000,00:54:16.96,22.69,-56.24,-992.59,35.0,-656.25,-306.25,1,94.259,
01/01/2000,00:54:16.97,22.81,-56.36,-992.71,227.50,-700.0,-297.50,1,94.266,
01/01/2000,00:54:16.98,22.69,-56.12,-992.59,183.75,-673.75,-271.25,1,94.273,
01/01/2000,00:54:16.99,22.69,-56.00,-992.59,122.50,-682.50,-288.75,1,94.279,
01/01/2000,00:54:17.00,22.57,-56.00,-992.71,192.50,-665.0,-323.75,1,94.286,
01/01/2000,00:54:17.01,22.57,-56.12,-992.71,131.25,-708.75,-393.75,1,94.292,
01/01/2000,00:54:17.02,22.69,-56.00,-992.84,113.75,-612.50,-297.50,1,94.299,
01/01/2000,00:54:17.03,22.81,-56.24,-992.71,253.75,-735.0,-323.75,1,94.305,
01/01/2000,00:54:17.04,22.45,-56.00,-992.59,271.25,-700.0,-341.25,1,94.312,
01/01/2000,00:54:17.05,22.33,-56.12,-992.59,96.25,-848.75,-332.50,1,94.318,
01/01/2000,00:54:17.06,22.45,-56.24,-992.71,148.75,-743.75,-358.75,1,94.325,
01/01/2000,00:54:17.07,22.45,-56.00,-992.96,61.25,-761.25,-288.75,1,94.331,
01/01/2000,00:54:17.08,22.45,-56.12,-992.84,122.50,-752.50,-245.0,1,94.337,
01/01/2000,00:54:17.09,22.45,-56.24,-992.84,218.75,-568.75,-306.25,1,94.237,
01/01/2000,00:54:17.10,22.45,-56.24,-992.71,131.25,-673.75,-297.50,1,94.350,
01/01/2000,00:54:17.11,22.45,-56.24,-992.71,148.75,-630.0,-332.50,1,94.250,
01/01/2000,00:54:17.12,22.45,-56.12,-992.84,218.75,-621.25,-420.0,1,94.257,
01/01/2000,00:54:17.14,22.45,-56.00,-992.84,166.25,-813.75,-332.50,1,94.263,
01/01/2000,00:54:17.15,22.45,-56.24,-992.96,157.50,-743.75,-350.0,1,94.270,
01/01/2000,00:54:17.16,22.45,-56.36,-992.96,210.0,-586.25,-455.0,1,94.276,
01/01/2000,00:54:17.17,22.57,-56.36,-992.96,96.25,-700.0,-306.25,1,94.283,
01/01/2000,00:54:17.18,22.69,-56.36,-992.84,227.50,-743.75,-376.25,1,94.289,
01/01/2000,00:54:17.19,22.45,-56.12,-992.96,105.0,-787.50,-245.0,1,94.295,
01/01/2000,00:54:17.20,22.45,-56.12,-993.08,166.25,-595.0,-437.50,1,94.302,
01/01/2000,00:54:17.21,22.33,-56.24,-992.84,148.75,-717.50,-358.75,1,94.308,
01/01/2000,00:54:17.22,22.45,-56.24,-992.71,-35.0,-717.50,-210.0,1,94.314,
01/01/2000,00:54:17.23,22.45,-56.36,-992.71,140.0,-630.0,-288.75,1,94.321,
01/01/2000,00:54:17.24,22.45,-56.36,-992.84,166.25,-665.0,-411.25,1,94.327,
01/01/2000,00:54:17.25,22.57,-56.36,-992.84,332.50,-735.0,-358.75,1,94.333,
01/01/2000,00:54:17.26,22.33,-56.12,-992.84,96.25,-656.25,-271.25,1,94.340,
01/01/2000,00:54:17.27,22.33,-56.24,-992.84,218.75,-796.25,-323.75,1,94.346,
01/01/2000,00:54:17.28,22.45,-56.12,-992.71,236.25,-647.50,-288.75,1,94.248,
01/01/2000,00:54:17.29,22.45,-56.00,-992.84,157.50,-691.25,-402.50,1,94.254,
01/01/2000,00:54:17.30,22.45,-56.12,-992.84,52.50,-726.25,-332.50,1,94.260,
01/01/2000,00:54:17.31,22.45,-56.12,-992.84,280.0,-743.75,-315.0,1,94.267,
01/01/2000,00:54:17.32,22.57,-56.12,-992.71,105.0,-717.50,-393.75,1,94.273,
01/01/2000,00:54:17.33,22.45,-56.12,-992.84,192.50,-708.75,-297.50,1,94.279,
01/01/2000,00:54:17.35,22.57,-55.88,-992.84,122.50,-647.50,-271.25,1,94.286,
01/01/2000,00:54:17.36,22.57,-56.00,-992.84,166.25,-621.25,-455.0,1,94.292,
01/01/2000,00:54:17.37,22.45,-55.88,-992.84,227.50,-647.50,-227.50,1,94.298,
01/01/2000,00:54:17.38,22.45,-55.88,-992.96,96.25,-665.0,-420.0,1,94.304,
01/01/2000,00:54:17.39,22.69,-56.12,-992.96,43.75,-577.50,-297.50,1,94.311,
01/01/2000,00:54:17.40,22.57,-56.12,-993.08,218.75,-752.50,-463.75,1,94.317,
01/01/2000,00:54:17.41,22.69,-56.00,-993.08,157.50,-673.75,-332.50,1,94.323,
01/01/2000,00:54:17.42,22.69,-55.63,-993.08,87.50,-612.50,-262.50,1,94.227,
01/01/2000,00:54:17.43,22.69,-55.88,-992.96,157.50,-743.75,-323.75,1,94.233,
01/01/2000,00:54:17.45,22.69,-55.88,-992.96,35.0,-630.0,-323.75,1,94.239,
01/01/2000,00:54:17.46,22.81,-56.12,-992.96,350.0,-805.0,-595.0,1,94.245,
01/01/2000,00:54:17.47,22.81,-55.75,-993.08,-43.75,-682.50,-962.50,1,94.252,
01/01/2000,00:54:17.48,22.69,-55.63,-992.84,192.50,-761.25,-1102.50,1,94.258,
01/01/2000,00:54:17.49,22.69,-55.27,-992.84,201.25,-840.0,-1251.25,1,94.264,
01/01/2000,00:54:17.50,22.81,-55.02,-992.84,262.50,-708.75,-2476.25,1,94.168,
01/01/2000,00:54:17.51,22.81,-55.14,-992.96,201.25,-805.0,-3150.0,1,94.175,
01/01/2000,00:54:17.52,22.94,-55.39,-992.84,227.50,-743.75,-2957.50,1,94.181,
01/01/2000,00:54:17.53,22.94,-55.51,-992.84,122.50,-630.0,-3088.75,1,94.187,
01/01/2000,00:54:17.54,22.69,-55.63,-992.84,157.50,-953.75,-3596.25,1,94.194,
01/01/2000,00:54:17.55,22.69,-55.75,-992.84,262.50,-805.0,-5048.75,1,94.200,
01/01/2000,00:54:17.56,22.69,-55.51,-992.84,96.25,-936.25,-6098.75,1,94.206,
01/01/2000,00:54:17.57,22.69,-55.88,-992.96,481.25,-892.50,-6825.0,1,94.212,
01/01/2000,00:54:17.58,22.69,-55.51,-992.96,148.75,-910.0,-8505.0,1,94.218,
01/01/2000,00:54:17.59,22.69,-55.51,-992.84,236.25,-980.0,-9747.50,1,94.225,
01/01/2000,00:54:17.60,22.69,-55.63,-992.84,315.0,-936.25,-11322.50,1,94.231,
01/01/2000,00:54:17.61,22.57,-55.63,-992.84,227.50,-1023.75,-12932.50,1,94.237,
01/01/2000,00:54:17.62,22.57,-55.88,-992.96,411.25,-1085.0,-14070.0,1,94.243,
01/01/2000,00:54:17.64,22.57,-56.00,-992.96,446.25,-1146.25,-14875.0,1,94.249,
01/01/2000,00:54:17.65,22.57,-56.00,-992.84,315.0,-1032.50,-14245.0,1,94.255,
01/01/2000,00:54:17.66,22.45,-56.24,-992.71,245.0,-1111.25,-12705.0,1,94.261,
01/01/2000,00:54:17.67,22.33,-56.36,-992.59,105.0,-840.0,-9213.75,1,94.268,
01/01/2000,00:54:17.68,22.45,-56.61,-992.59,350.0,-918.75,-6720.0,1,94.274,
01/01/2000,00:54:17.69,22.33,-56.73,-992.59,175.0,-840.0,-4401.25,1,94.280,
01/01/2000,00:54:17.70,22.45,-56.85,-992.59,253.75,-857.50,-3220.0,1,94.286,
01/01/2000,00:54:17.71,22.33,-56.49,-992.59,192.50,-708.75,-3526.25,1,94.292,
01/01/2000,00:54:17.72,22.20,-56.49,-992.59,297.50,-883.75,-4462.50,1,94.298,
01/01/2000,00:54:17.73,22.20,-56.49,-992.59,288.75,-778.75,-5136.25,1,94.304,
01/01/2000,00:54:17.74,22.45,-56.36,-992.71,245.0,-866.25,-5337.50,1,94.310,
01/01/2000,00:54:17.75,22.57,-56.49,-992.59,236.25,-805.0,-5381.25,1,94.316,
01/01/2000,00:54:17.76,22.57,-56.49,-992.59,315.0,-980.0,-4917.50,1,94.322,
01/01/2000,00:54:17.77,22.45,-56.73,-992.71,52.50,-752.50,-3762.50,1,94.229,
01/01/2000,00:54:17.78,22.45,-56.97,-992.71,140.0,-743.75,-2721.25,1,94.235,
01/01/2000,00:54:17.79,22.33,-56.85,-992.84,175.0,-673.75,-2126.25,1,94.241,
01/01/2000,00:54:17.80,22.33,-56.36,-992.96,61.25,-665.0,-1592.50,1,94.247,
01/01/2000,00:54:17.81,22.45,-56.49,-992.96,358.75,-743.75,-1181.25,1,94.253,
01/01/2000,00:54:17.82,22.33,-56.36,-992.84,140.0,-761.25,-1233.75,1,94.259,
01/01/2000,00:54:17.84,22.45,-56.49,-992.71,218.75,-665.0,-962.50,1,94.265,
01/01/2000,00:54:17.85,22.45,-56.24,-992.84,61.25,-682.50,-1093.75,1,94.271,
01/01/2000,00:54:17.86,22.45,-56.24,-992.84,140.0,-656.25,-1023.75,1,94.277,
01/01/2000,00:54:17.87,22.33,-56.12,-992.71,87.50,-726.25,-621.25,1,94.283,
01/01/2000,00:54:17.88,22.20,-56.12,-992.59,131.25,-656.25,-472.50,1,94.289,
01/01/2000,00:54:17.89,22.45,-56.24,-992.35,52.50,-796.25,-350.0,1,94.295,
01/01/2000,00:54:17.90,22.20,-56.36,-992.35,210.0,-691.25,-586.25,1,94.301,
01/01/2000,00:54:17.91,22.45,-56.36,-992.47,253.75,-638.75,-682.50,1,94.209,
01/01/2000,00:54:17.92,22.33,-56.24,-992.35,367.50,-577.50,-367.50,1,94.215,
01/01/2000,00:54:17.93,22.33,-55.88,-992.35,183.75,-726.25,-437.50,1,94.221,
01/01/2000,00:54:17.94,22.33,-56.00,-992.35,131.25,-778.75,-472.50,1,94.227,
01/01/2000,00:54:17.96,22.57,-56.00,-992.35,148.75,-621.25,-411.25,1,94.233,
01/01/2000,00:54:17.97,22.57,-56.00,-992.35,87.50,-665.0,-446.25,1,94.239,
01/01/2000,00:54:17.98,22.45,-56.12,-992.35,183.75,-770.0,-586.25,1,94.245,
01/01/2000,00:54:17.99,22.45,-55.88,-992.35,-17.50,-743.75,-630.0,1,94.251,
01/01/2000,00:54:18.00,22.45,-56.00,-992.35,157.50,-691.25,-420.0,1,94.256,
01/01/2000,00:54:18.01,22.33,-55.88,-992.35,157.50,-665.0,-350.0,1,94.262,
01/01/2000,00:54:18.02,22.45,-55.88,-992.35,201.25,-665.0,-262.50,1,94.268,
01/01/2000,00:54:18.03,22.33,-56.12,-992.35,148.75,-726.25,-367.50,1,94.274,
01/01/2000,00:54:18.04,22.45,-56.12,-992.35,131.25,-813.75,-332.50,1,94.280,
01/01/2000,00:54:18.05,22.45,-56.00,-992.23,157.50,-630.0,-376.25,1,94.286,
01/01/2000,00:54:18.06,22.45,-56.12,-992.23,105.0,-700.0,-306.25,1,94.292,
01/01/2000,00:54:18.07,22.33,-56.00,-992.35,227.50,-682.50,-323.75,1,94.297,
01/01/2000,00:54:18.08,22.20,-56.00,-992.35,210.0,-621.25,-323.75,1,94.303,
01/01/2000,00:54:18.09,22.20,-56.00,-992.23,61.25,-673.75,-525.0,1,94.309,
01/01/2000,00:54:18.10,22.33,-56.12,-992.10,192.50,-682.50,-358.75,1,94.315,
01/01/2000,00:54:18.11,22.45,-55.88,-992.10,61.25,-743.75,-411.25,1,94.320,
01/01/2000,00:54:18.12,22.45,-55.88,-992.35,218.75,-630.0,-358.75,1,94.231,
01/01/2000,00:54:18.13,22.57,-56.00,-992.35,183.75,-778.75,-358.75,1,94.237,
01/01/2000,00:54:18.14,22.57,-55.88,-992.35,201.25,-656.25,-262.50,1,94.242,
01/01/2000,00:54:18.15,22.45,-55.88,-992.35,131.25,-638.75,-358.75,1,94.248,
01/01/2000,00:54:18.16,22.57,-55.88,-992.47,245.0,-656.25,-358.75,1,94.254,
01/01/2000,00:54:18.17,22.57,-55.88,-992.47,323.75,-665.0,-358.75,1,94.260,
01/01/2000,00:54:18.19,22.45,-56.12,-992.47,122.50,-787.50,-385.0,1,94.266,
01/01/2000,00:54:18.20,22.45,-56.12,-992.47,52.50,-735.0,-306.25,1,94.271,
01/01/2000,00:54:18.21,22.33,-56.12,-992.59,122.50,-673.75,-288.75,1,94.277,
01/01/2000,00:54:18.22,22.33,-56.00,-992.59,52.50,-656.25,-288.75,1,94.283,
01/01/2000,00:54:18.23,22.45,-56.12,-992.59,157.50,-647.50,-288.75,1,94.289,
01/01/2000,00:54:18.24,22.45,-55.88,-992.35,87.50,-700.0,-183.75,1,94.294,
01/01/2000,00:54:18.25,22.45,-56.12,-992.35,148.75,-708.75,-332.50,1,94.300,
01/01/2000,00:54:18.26,22.45,-56.24,-992.35,227.50,-691.25,-245.0,1,94.306,
01/01/2000,00:54:18.27,22.69,-56.12,-992.35,157.50,-752.50,-437.50,1,94.311,
01/01/2000,00:54:18.28,22.69,-55.88,-992.35,175.0,-621.25,-122.50,1,94.317,
01/01/2000,00:54:18.29,22.57,-56.00,-992.35,271.25,-665.0,-262.50,1,94.323,
01/01/2000,00:54:18.30,22.45,-56.00,-992.35,210.0,-682.50,-271.25,1,94.328,
01/01/2000,00:54:18.31,22.69,-56.00,-992.35,35.0,-805.0,-507.50,1,94.334,
01/01/2000,00:54:18.32,22.69,-56.24,-992.35,183.75,-708.75,-315.0,1,94.340,
01/01/2000,00:54:18.33,22.57,-55.88,-992.35,157.50,-647.50,-218.75,1,94.252,
01/01/2000,00:54:18.34,22.45,-55.88,-992.23,96.25,-691.25,-192.50,1,94.257,
01/01/2000,00:54:18.35,22.69,-56.00,-992.10,253.75,-700.0,-253.75,1,94.263,
01/01/2000,00:54:18.36,22.69,-56.12,-992.10,175.0,-665.0,-385.0,1,94.269,
01/01/2000,00:54:18.37,22.57,-56.00,-992.10,96.25,-665.0,-358.75,1,94.274,
01/01/2000,00:54:18.39,22.69,-56.00,-992.10,218.75,-656.25,-402.50,1,94.280,
01/01/2000,00:54:18.40,22.69,-55.88,-991.98,210.0,-682.50,-332.50,1,94.286,
01/01/2000,00:54:18.41,22.69,-56.00,-992.23,61.25,-665.0,-341.25,1,94.291,
01/01/2000,00:54:18.42,22.69,-55.88,-992.35,157.50,-735.0,-280.0,1,94.297,
01/01/2000,00:54:18.43,22.69,-55.88,-992.23,43.75,-708.75,-297.50,1,94.303,
01/01/2000,00:54:18.44,22.69,-55.88,-992.23,183.75,-638.75,-393.75,1,94.308,
01/01/2000,00:54:18.45,22.57,-56.00,-992.23,218.75,-700.0,-245.0,1,94.314,
01/01/2000,00:54:18.47,22.45,-56.12,-992.47,157.50,-735.0,-271.25,1,94.227,
01/01/2000,00:54:18.48,22.57,-55.88,-992.35,192.50,-682.50,-201.25,1,94.233,
01/01/2000,00:54:18.49,22.57,-55.88,-992.35,183.75,-708.75,-358.75,1,94.238,
01/01/2000,00:54:18.50,22.69,-55.88,-992.35,0.0,-831.25,-341.25,1,94.244,
01/01/2000,00:54:18.51,22.69,-56.00,-992.23,166.25,-691.25,-385.0,1,94.250,
01/01/2000,00:54:18.52,22.69,-55.88,-992.10,131.25,-700.0,-341.25,1,94.255,
01/01/2000,00:54:18.53,22.69,-55.88,-992.23,17.50,-630.0,-367.50,1,94.261,
01/01/2000,00:54:18.54,22.57,-55.75,-992.35,87.50,-673.75,-297.50,1,94.266,
01/01/2000,00:54:18.55,22.57,-55.75,-992.23,148.75,-726.25,-280.0,1,94.272,
01/01/2000,00:54:18.56,22.69,-55.75,-992.10,140.0,-586.25,-332.50,1,94.277,
01/01/2000,00:54:18.57,22.81,-56.00,-992.35,175.0,-691.25,-463.75,1,94.283,
01/01/2000,00:54:18.58,22.94,-56.00,-992.47,148.75,-647.50,-306.25,1,94.288,
01/01/2000,00:54:18.59,22.81,-56.12,-992.47,122.50,-682.50,-420.0,1,94.294,
01/01/2000,00:54:18.60,22.69,-55.88,-992.35,140.0,-656.25,-253.75,1,94.300,
01/01/2000,00:54:18.61,22.57,-56.12,-992.35,227.50,-743.75,-393.75,1,94.214,
01/01/2000,00:54:18.62,22.69,-55.88,-992.47,131.25,-656.25,-315.0,1,94.220,
01/01/2000,00:54:18.63,23.18,-55.88,-992.23,87.50,-621.25,-437.50,1,94.225,
01/01/2000,00:54:18.64,23.18,-56.12,-992.23,192.50,-708.75,-210.0,1,94.231,
01/01/2000,00:54:18.65,22.69,-56.36,-992.47,70.0,-656.25,-280.0,1,94.236,
01/01/2000,00:54:18.66,22.45,-56.00,-992.47,52.50,-708.75,-481.25,1,94.242,
01/01/2000,00:54:18.67,23.06,-55.51,-992.47,245.0,-717.50,-385.0,1,94.247,
01/01/2000,00:54:18.69,23.06,-55.63,-992.35,148.75,-621.25,35.0,1,94.253,
01/01/2000,00:54:18.70,22.81,-55.75,-992.23,227.50,-796.25,-297.50,1,94.258,
01/01/2000,00:54:18.71,22.94,-56.00,-992.10,210.0,-805.0,-385.0,1,94.264,
01/01/2000,00:54:18.72,22.94,-55.88,-992.23,157.50,-612.50,-463.75,1,94.269,
01/01/2000,00:54:18.73,22.81,-55.63,-992.35,122.50,-691.25,-315.0,1,94.275,
01/01/2000,00:54:18.74,22.94,-55.51,-992.35,122.50,-665.0,-332.50,1,94.280,
01/01/2000,00:54:18.75,22.81,-55.39,-992.10,148.75,-638.75,-201.25,1,94.286,
01/01/2000,00:54:18.76,22.69,-55.88,-992.10,245.0,-708.75,-350.0,1,94.202,
01/01/2000,00:54:18.77,22.69,-56.00,-992.10,227.50,-700.0,-306.25,1,94.297,
01/01/2000,00:54:18.78,22.81,-56.12,-992.10,61.25,-638.75,-446.25,1,94.213,
01/01/2000,00:54:18.79,23.06,-55.75,-991.98,131.25,-568.75,-341.25,1,94.218,
01/01/2000,00:54:18.80,22.94,-55.75,-991.98,218.75,-665.0,-210.0,1,94.223,
01/01/2000,00:54:18.81,22.81,-55.75,-992.10,122.50,-717.50,-376.25,1,94.229,
01/01/2000,00:54:18.83,22.81,-55.88,-992.23,-52.50,-752.50,-402.50,1,94.234,
01/01/2000,00:54:18.84,22.69,-56.12,-992.23,201.25,-682.50,-323.75,1,94.240,
01/01/2000,00:54:18.85,22.94,-56.12,-992.23,262.50,-647.50,-280.0,1,94.245,
01/01/2000,00:54:18.86,22.94,-56.00,-992.10,148.75,-630.0,-402.50,1,94.251,
01/01/2000,00:54:18.87,22.69,-55.88,-992.23,140.0,-717.50,-297.50,1,94.256,
01/01/2000,00:54:18.88,22.45,-55.88,-992.59,122.50,-577.50,-350.0,1,94.262,
01/01/2000,00:54:18.89,22.57,-56.12,-992.71,201.25,-638.75,-367.50,1,94.267,
01/01/2000,00:54:18.90,22.81,-55.88,-992.35,131.25,-717.50,-227.50,1,94.272,
01/01/2000,00:54:18.91,22.69,-56.12,-992.23,122.50,-595.0,-297.50,1,94.278,
01/01/2000,00:54:18.92,22.69,-56.12,-992.10,-43.75,-717.50,-385.0,1,94.283,
01/01/2000,00:54:18.93,22.57,-56.00,-992.35,148.75,-761.25,-402.50,1,94.288,
01/01/2000,00:54:18.94,22.57,-56.12,-992.35,122.50,-726.25,-280.0,1,94.294,
01/01/2000,00:54:18.95,22.69,-55.88,-992.47,210.0,-726.25,-376.25,1,94.299,
01/01/2000,00:54:18.96,22.69,-56.12,-992.10,52.50,-691.25,-306.25,1,94.304,
01/01/2000,00:54:18.98,22.57,-56.24,-991.98,201.25,-708.75,-393.75,1,94.222,
01/01/2000,00:54:18.99,22.69,-56.24,-992.23,61.25,-700.0,-498.75,1,94.227,
01/01/2000,00:54:19.00,22.69,-56.12,-992.35,122.50,-647.50,-280.0,1,94.233,
01/01/2000,00:54:19.01,22.69,-55.88,-992.23,131.25,-691.25,-236.25,1,94.238,
01/01/2000,00:54:19.02,22.57,-55.88,-992.10,236.25,-743.75,-411.25,1,94.243,
01/01/2000,00:54:19.03,22.57,-55.88,-992.10,175.0,-647.50,-358.75,1,94.249,
01/01/2000,00:54:19.04,22.69,-55.88,-992.23,166.25,-743.75,-428.75,1,94.254,
01/01/2000,00:54:19.05,22.69,-56.12,-992.35,148.75,-665.0,-280.0,1,94.259,
01/01/2000,00:54:19.06,22.69,-56.12,-992.47,96.25,-647.50,-297.50,1,94.265,
01/01/2000,00:54:19.07,22.45,-56.00,-992.35,166.25,-743.75,-428.75,1,94.270,
01/01/2000,00:54:19.08,22.69,-55.88,-992.10,148.75,-665.0,-280.0,1,94.275,
01/01/2000,00:54:19.09,22.81,-55.88,-992.10,113.75,-691.25,-358.75,1,94.280,
01/01/2000,00:54:19.10,22.69,-56.12,-992.23,157.50,-735.0,-218.75,1,94.286,
01/01/2000,00:54:19.11,22.81,-56.12,-992.23,113.75,-656.25,-437.50,1,94.204,
01/01/2000,00:54:19.12,22.81,-56.00,-992.35,148.75,-682.50,-358.75,1,94.210,
01/01/2000,00:54:19.13,22.69,-55.88,-992.23,113.75,-770.0,-332.50,1,94.215,
01/01/2000,00:54:19.14,22.81,-56.00,-992.23,218.75,-673.75,-332.50,1,94.220,
01/01/2000,00:54:19.15,22.81,-56.12,-992.35,78.75,-752.50,-332.50,1,94.225,
01/01/2000,00:54:19.16,22.94,-56.12,-992.59,96.25,-630.0,-385.0,1,94.231,
01/01/2000,00:54:19.18,22.81,-56.12,-992.47,288.75,-612.50,-315.0,1,94.236,
01/01/2000,00:54:19.19,22.94,-55.88,-992.35,183.75,-673.75,-288.75,1,94.241,
01/01/2000,00:54:19.20,22.69,-55.88,-992.23,87.50,-647.50,-306.25,1,94.247,
01/01/2000,00:54:19.21,22.69,-55.88,-992.35,78.75,-857.50,-280.0,1,94.252,
01/01/2000,00:54:19.22,22.69,-56.00,-992.35,323.75,-656.25,-376.25,1,94.257,
01/01/2000,00:54:19.23,22.81,-56.00,-992.59,-8.75,-708.75,-297.50,1,94.262,
01/01/2000,00:54:19.24,22.81,-56.00,-992.59,105.0,-726.25,-245.0,1,94.268,
01/01/2000,00:54:19.25,22.69,-55.88,-992.35,183.75,-743.75,-437.50,1,94.273,
01/01/2000,00:54:19.26,22.81,-55.88,-992.47,253.75,-743.75,-350.0,1,94.278,
01/01/2000,00:54:19.27,22.69,-55.88,-992.59,113.75,-700.0,-385.0,1,94.283,
01/01/2000,00:54:19.28,22.69,-55.88,-992.59,236.25,-682.50,-411.25,1,94.288,
01/01/2000,00:54:19.29,22.69,-55.75,-992.35,157.50,-673.75,-323.75,1,94.293,
01/01/2000,00:54:19.30,22.57,-55.88,-992.23,113.75,-735.0,-253.75,1,94.299,
01/01/2000,00:54:19.31,22.57,-55.88,-992.23,131.25,-761.25,-385.0,1,94.304,
01/01/2000,00:54:19.32,22.57,-55.88,-992.35,201.25,-743.75,-367.50,1,94.224,
01/01/2000,00:54:19.33,22.69,-55.88,-992.35,227.50,-735.0,-358.75,1,94.229,
01/01/2000,00:54:19.35,22.69,-56.00,-992.47,183.75,-638.75,-315.0,1,94.234,
01/01/2000,00:54:19.35,22.69,-55.88,-992.35,-43.75,-735.0,-332.50,1,94.239,
01/01/2000,00:54:19.37,22.57,-55.88,-992.35,131.25,-752.50,-192.50,1,94.245,
01/01/2000,00:54:19.38,22.69,-56.12,-992.23,288.75,-638.75,-358.75,1,94.250,
01/01/2000,00:54:19.39,22.81,-56.12,-992.35,140.0,-656.25,-262.50,1,94.255,
01/01/2000,00:54:19.40,22.94,-56.00,-992.35,271.25,-630.0,-332.50,1,94.260,
01/01/2000,00:54:19.41,22.94,-55.88,-992.35,210.0,-621.25,-341.25,1,94.265,
01/01/2000,00:54:19.42,22.94,-55.88,-992.10,122.50,-761.25,-437.50,1,94.270,
01/01/2000,00:54:19.43,22.81,-55.88,-992.10,140.0,-691.25,-192.50,1,94.275,
01/01/2000,00:54:19.44,22.81,-55.88,-992.10,192.50,-778.75,-516.25,1,94.281,
01/01/2000,00:54:19.45,22.94,-55.63,-992.10,140.0,-778.75,-271.25,1,94.286,
01/01/2000,00:54:19.46,22.69,-55.63,-992.23,140.0,-568.75,-332.50,1,94.207,
01/01/2000,00:54:19.47,22.69,-55.63,-992.23,192.50,-717.50,-262.50,1,94.212,
01/01/2000,00:54:19.49,22.69,-55.63,-992.10,166.25,-577.50,-280.0,1,94.217,
01/01/2000,00:54:19.50,22.69,-55.75,-992.10,236.25,-770.0,-245.0,1,94.222,
01/01/2000,00:54:19.51,22.69,-56.12,-991.98,70.0,-735.0,-402.50,1,94.227,
01/01/2000,00:54:19.52,22.57,-55.88,-991.98,43.75,-700.0,-402.50,1,94.232,
01/01/2000,00:54:19.53,22.45,-55.88,-992.10,183.75,-700.0,-306.25,1,94.238,
01/01/2000,00:54:19.54,22.57,-55.75,-991.98,8.75,-638.75,-306.25,1,94.243,
01/01/2000,00:54:19.55,22.57,-55.88,-991.98,210.0,-638.75,-201.25,1,94.248,
01/01/2000,00:54:19.56,22.57,-56.12,-991.98,192.50,-700.0,-341.25,1,94.253,
01/01/2000,00:54:19.57,22.57,-56.12,-992.10,175.0,-752.50,-245.0,1,94.258,
01/01/2000,00:54:19.58,22.45,-56.00,-991.98,297.50,-560.0,-332.50,1,94.263,
01/01/2000,00:54:19.59,22.45,-55.88,-991.86,96.25,-577.50,-227.50,1,94.268,
01/01/2000,00:54:19.60,22.45,-55.63,-991.98,113.75,-787.50,-420.0,1,94.273,
01/01/2000,00:54:19.61,22.69,-55.63,-992.23,166.25,-621.25,-236.25,1,94.278,
01/01/2000,00:54:19.62,22.69,-55.75,-992.23,323.75,-603.75,-306.25,1,94.283,
01/01/2000,00:54:19.63,22.69,-55.63,-992.10,78.75,-726.25,-306.25,1,94.205,
01/01/2000,00:54:19.64,22.69,-55.88,-991.98,210.0,-726.25,-455.0,1,94.211,
01/01/2000,00:54:19.65,22.57,-55.88,-992.10,122.50,-665.0,-236.25,1,94.216,
01/01/2000,00:54:19.66,22.57,-55.75,-992.10,157.50,-708.75,-332.50,1,94.221,
01/01/2000,00:54:19.67,22.69,-55.75,-992.23,166.25,-717.50,-271.25,1,94.226,
01/01/2000,00:54:19.68,22.45,-55.63,-992.10,87.50,-822.50,-315.0,1,94.231,
01/01/2000,00:54:19.69,22.57,-55.88,-991.98,52.50,-656.25,-315.0,1,94.236,
01/01/2000,00:54:19.70,22.69,-55.88,-991.98,227.50,-770.0,-350.0,1,94.241,
01/01/2000,00:54:19.71,22.69,-55.75,-992.10,148.75,-787.50,-315.0,1,94.246,
01/01/2000,00:54:19.72,22.69,-56.00,-992.35,253.75,-708.75,-420.0,1,94.251,
01/01/2000,00:54:19.73,22.45,-55.88,-992.47,183.75,-682.50,-323.75,1,94.256,
01/01/2000,00:54:19.75,22.57,-55.88,-992.35,113.75,-743.75,-385.0,1,94.261,
01/01/2000,00:54:19.76,22.69,-55.75,-992.10,17.50,-831.25,-306.25,1,94.266,
01/01/2000,00:54:19.77,22.69,-55.88,-992.10,201.25,-787.50,-367.50,1,94.271,
01/01/2000,00:54:19.78,22.69,-56.00,-992.10,183.75,-665.0,-280.0,1,94.276,
01/01/2000,00:54:19.79,22.81,-56.12,-992.35,183.75,-752.50,-288.75,1,94.281,
01/01/2000,00:54:19.80,22.81,-56.12,-992.47,148.75,-717.50,-498.75,1,94.286,
01/01/2000,00:54:19.81,22.45,-55.88,-992.10,96.25,-770.0,-315.0,1,94.291,
01/01/2000,00:54:19.82,22.57,-56.00,-991.86,96.25,-717.50,-271.25,1,94.296,
01/01/2000,00:54:19.83,22.45,-56.12,-991.86,78.75,-603.75,-428.75,1,94.301,
01/01/2000,00:54:19.84,22.57,-56.12,-991.98,201.25,-621.25,-332.50,1,94.224,
01/01/2000,00:54:19.85,22.69,-56.24,-992.10,140.0,-673.75,-393.75,1,94.310,
01/01/2000,00:54:19.86,22.69,-55.88,-992.23,105.0,-673.75,-262.50,1,94.234,
01/01/2000,00:54:19.87,22.69,-56.00,-992.23,253.75,-708.75,-341.25,1,94.239,
01/01/2000,00:54:19.89,22.57,-56.00,-992.23,140.0,-691.25,-420.0,1,94.244,
01/01/2000,00:54:19.90,22.57,-56.00,-992.23,113.75,-735.0,-332.50,1,94.249,
01/01/2000,00:54:19.91,22.45,-56.12,-992.35,227.50,-691.25,-367.50,1,94.254,
01/01/2000,00:54:19.92,22.45,-56.00,-992.35,131.25,-761.25,-280.0,1,94.259,
01/01/2000,00:54:19.93,22.45,-56.24,-992.35,96.25,-761.25,-297.50,1,94.264,
01/01/2000,00:54:19.94,22.45,-56.36,-992.23,271.25,-586.25,-437.50,1,94.269,
01/01/2000,00:54:19.95,22.45,-56.24,-992.35,113.75,-638.75,-323.75,1,94.274,
01/01/2000,00:54:19.96,22.45,-56.24,-992.23,148.75,-735.0,-323.75,1,94.278,
01/01/2000,00:54:19.97,22.33,-56.36,-992.10,183.75,-761.25,-297.50,1,94.283,
01/01/2000,00:54:19.98,22.33,-56.49,-992.10,122.50,-708.75,-253.75,1,94.288,
01/01/2000,00:54:19.99,22.45,-56.36,-992.10,8.75,-700.0,-350.0,1,94.213,
01/01/2000,00:54:20.01,22.57,-56.24,-992.23,140.0,-761.25,-297.50,1,94.218,
01/01/2000,00:54:20.02,22.45,-56.24,-992.10,218.75,-682.50,-280.0,1,94.223,
01/01/2000,00:54:20.03,22.57,-56.24,-992.10,192.50,-857.50,-341.25,1,94.228,
01/01/2000,00:54:20.04,22.45,-56.12,-992.35,52.50,-638.75,-245.0,1,94.232,
01/01/2000,00:54:20.05,22.45,-56.24,-992.47,140.0,-787.50,-271.25,1,94.237,
01/01/2000,00:54:20.06,22.45,-56.00,-992.35,87.50,-726.25,-341.25,1,94.242,
01/01/2000,00:54:20.07,22.45,-56.12,-992.23,113.75,-787.50,-236.25,1,94.247,
01/01/2000,00:54:20.08,22.45,-56.12,-992.23,262.50,-682.50,-341.25,1,94.252,
01/01/2000,00:54:20.09,22.20,-56.12,-992.23,96.25,-656.25,-245.0,1,94.257,
01/01/2000,00:54:20.10,22.33,-56.24,-992.23,201.25,-656.25,-385.0,1,94.262,
01/01/2000,00:54:20.11,22.45,-56.24,-992.23,113.75,-656.25,-297.50,1,94.266,
01/01/2000,00:54:20.12,22.45,-56.12,-992.23,70.0,-743.75,-341.25,1,94.271,
01/01/2000,00:54:20.13,22.45,-55.88,-992.10,8.75,-726.25,-341.25,1,94.276,
01/01/2000,00:54:20.14,22.45,-56.00,-992.10,376.25,-708.75,-341.25,1,94.281,
01/01/2000,00:54:20.15,22.45,-55.88,-992.23,0.0,-612.50,-472.50,1,94.286,
01/01/2000,00:54:20.16,22.45,-56.00,-992.47,350.0,-647.50,-253.75,1,94.291,
01/01/2000,00:54:20.17,22.45,-56.12,-992.59,148.75,-630.0,-227.50,1,94.216,
01/01/2000,00:54:20.18,22.45,-55.88,-992.59,131.25,-735.0,-306.25,1,94.221,
01/01/2000,00:54:20.19,22.57,-56.00,-992.35,253.75,-752.50,-280.0,1,94.226,
01/01/2000,00:54:20.20,22.69,-56.00,-992.35,166.25,-726.25,-315.0,1,94.231,
01/01/2000,00:54:20.21,22.69,-56.00,-992.47,96.25,-770.0,-306.25,1,94.236,
01/01/2000,00:54:20.22,22.69,-56.00,-992.35,271.25,-700.0,-358.75,1,94.240,
01/01/2000,00:54:20.24,22.45,-56.12,-992.35,218.75,-621.25,-306.25,1,94.245,
01/01/2000,00:54:20.25,22.45,-55.88,-992.35,96.25,-700.0,-332.50,1,94.250,
01/01/2000,00:54:20.26,22.69,-55.88,-992.35,175.0,-595.0,-245.0,1,94.255,
01/01/2000,00:54:20.27,22.69,-55.88,-992.35,17.50,-761.25,-315.0,1,94.260,
01/01/2000,00:54:20.28,22.69,-55.88,-992.35,210.0,-787.50,-271.25,1,94.264,
01/01/2000,00:54:20.29,22.57,-56.00,-992.10,148.75,-735.0,-323.75,1,94.269,
01/01/2000,00:54:20.30,22.45,-55.88,-992.10,210.0,-682.50,-463.75,1,94.274,
01/01/2000,00:54:20.31,22.57,-55.88,-992.10,236.25,-691.25,-315.0,1,94.279,
01/01/2000,00:54:20.32,22.57,-55.88,-992.10,341.25,-700.0,-385.0,1,94.283,
01/01/2000,00:54:20.33,22.57,-55.88,-992.35,78.75,-647.50,-358.75,1,94.288,
01/01/2000,00:54:20.34,22.57,-56.00,-992.23,306.25,-752.50,-245.0,1,94.293,
01/01/2000,00:54:20.35,22.69,-55.88,-992.10,166.25,-621.25,-262.50,1,94.298,
01/01/2000,00:54:20.36,22.57,-55.88,-991.98,332.50,-630.0,-332.50,1,94.302,
01/01/2000,00:54:20.37,22.57,-55.88,-991.98,332.50,-761.25,-332.50,1,94.307,
01/01/2000,00:54:20.38,22.45,-56.00,-991.98,131.25,-621.25,-315.0,1,94.234,
01/01/2000,00:54:20.40,22.45,-55.88,-992.10,192.50,-595.0,-402.50,1,94.239,
01/01/2000,00:54:20.40,22.33,-56.00,-992.10,8.75,-726.25,-350.0,1,94.243,
01/01/2000,00:54:20.42,22.45,-55.88,-992.10,131.25,-603.75,-358.75,1,94.248,
01/01/2000,00:54:20.43,22.57,-55.88,-992.10,166.25,-665.0,-306.25,1,94.253,
01/01/2000,00:54:20.44,22.57,-56.12,-991.98,236.25,-700.0,-376.25,1,94.258,
01/01/2000,00:54:20.45,22.45,-56.12,-991.98,61.25,-612.50,-288.75,1,94.262,
01/01/2000,00:54:20.46,22.45,-56.00,-992.10,157.50,-682.50,-402.50,1,94.267,
01/01/2000,00:54:20.47,22.69,-56.12,-992.10,175.0,-603.75,-236.25,1,94.272,
01/01/2000,00:54:20.48,22.69,-56.00,-992.23,122.50,-822.50,-280.0,1,94.276,
01/01/2000,00:54:20.49,22.45,-56.12,-992.23,43.75,-691.25,-306.25,1,94.281,
01/01/2000,00:54:20.50,22.33,-56.00,-992.10,-26.25,-700.0,-280.0,1,94.209,
01/01/2000,00:54:20.51,22.45,-56.00,-992.10,61.25,-805.0,-393.75,1,94.214,
01/01/2000,00:54:20.53,22.45,-56.00,-992.10,210.0,-761.25,-350.0,1,94.218,
01/01/2000,00:54:20.54,22.45,-56.00,-992.10,227.50,-743.75,-332.50,1,94.223,
01/01/2000,00:54:20.55,22.45,-56.00,-992.10,166.25,-700.0,-341.25,1,94.228,
01/01/2000,00:54:20.56,22.33,-56.12,-992.23,192.50,-647.50,-315.0,1,94.232,
01/01/2000,00:54:20.57,22.45,-56.12,-992.35,52.50,-796.25,-437.50,1,94.237,
01/01/2000,00:54:20.58,22.45,-56.12,-992.23,131.25,-708.75,-341.25,1,94.242,
01/01/2000,00:54:20.59,22.57,-56.12,-992.23,183.75,-735.0,-323.75,1,94.246,
01/01/2000,00:54:20.60,22.45,-56.12,-992.23,113.75,-612.50,-306.25,1,94.251,
01/01/2000,00:54:20.61,22.45,-56.12,-992.35,218.75,-682.50,-315.0,1,94.256,
01/01/2000,00:54:20.62,22.57,-55.88,-992.35,52.50,-673.75,-341.25,1,94.260,
01/01/2000,00:54:20.63,22.69,-56.00,-992.23,157.50,-708.75,-280.0,1,94.265,
01/01/2000,00:54:20.64,22.69,-56.00,-992.35,140.0,-682.50,-446.25,1,94.270,
01/01/2000,00:54:20.65,22.57,-55.88,-992.35,105.0,-700.0,-253.75,1,94.274,
01/01/2000,00:54:20.66,22.45,-55.88,-992.35,280.0,-691.25,-297.50,1,94.279,
01/01/2000,00:54:20.67,22.45,-56.00,-992.23,210.0,-752.50,-350.0,1,94.283,
01/01/2000,00:54:20.68,22.33,-55.88,-992.23,262.50,-805.0,-245.0,1,94.288,
01/01/2000,00:54:20.69,22.45,-55.88,-992.35,192.50,-612.50,-385.0,1,94.293,
01/01/2000,00:54:20.70,22.45,-55.75,-992.47,52.50,-717.50,-227.50,1,94.297,
01/01/2000,00:54:20.71,22.45,-55.88,-992.47,201.25,-778.75,-297.50,1,94.302,
01/01/2000,00:54:20.72,22.45,-56.00,-992.35,140.0,-717.50,-428.75,1,94.306,
01/01/2000,00:54:20.73,22.57,-55.75,-992.23,35.0,-805.0,-358.75,1,94.235,
01/01/2000,00:54:20.74,22.57,-55.63,-992.35,175.0,-796.25,-332.50,1,94.240,
01/01/2000,00:54:20.75,22.57,-55.75,-992.35,140.0,-647.50,-288.75,1,94.245,
01/01/2000,00:54:20.76,22.69,-55.75,-992.23,148.75,-752.50,-428.75,1,94.249,
01/01/2000,00:54:20.77,22.57,-55.88,-992.10,218.75,-700.0,-227.50,1,94.254,
01/01/2000,00:54:20.78,22.69,-55.88,-992.10,43.75,-717.50,-437.50,1,94.258,
01/01/2000,00:54:20.80,22.69,-55.75,-992.10,78.75,-603.75,-350.0,1,94.263,
01/01/2000,00:54:20.81,22.69,-56.00,-992.35,218.75,-656.25,-288.75,1,94.268,
01/01/2000,00:54:20.82,22.57,-55.88,-992.35,201.25,-682.50,-271.25,1,94.272,
01/01/2000,00:54:20.83,22.69,-55.88,-992.35,192.50,-770.0,-245.0,1,94.277,
01/01/2000,00:54:20.84,22.69,-55.75,-991.98,105.0,-673.75,-253.75,1,94.281,
01/01/2000,00:54:20.85,22.57,-55.75,-991.98,43.75,-752.50,-332.50,1,94.286,
01/01/2000,00:54:20.86,22.57,-55.88,-991.86,105.0,-708.75,-288.75,1,94.290,
01/01/2000,00:54:20.87,22.57,-55.75,-992.10,175.0,-717.50,-428.75,1,94.295,
01/01/2000,00:54:20.88,22.69,-55.88,-992.10,218.75,-691.25,-201.25,1,94.299,
01/01/2000,00:54:20.89,22.69,-56.00,-991.98,166.25,-638.75,-332.50,1,94.304,
01/01/2000,00:54:20.90,22.69,-56.24,-992.10,201.25,-560.0,-271.25,1,94.308,
01/01/2000,00:54:20.91,22.69,-56.12,-992.10,0.0,-708.75,-350.0,1,94.313,
01/01/2000,00:54:20.92,22.69,-56.12,-991.98,87.50,-656.25,-385.0,1,94.317,
01/01/2000,00:54:20.93,22.69,-56.00,-991.86,245.0,-717.50,-367.50,1,94.322,
01/01/2000,00:54:20.95,22.57,-55.88,-991.74,140.0,-735.0,-288.75,1,94.252,
01/01/2000,00:54:20.96,22.57,-55.88,-991.86,227.50,-700.0,-183.75,1,94.256,
01/01/2000,00:54:20.97,22.69,-56.12,-991.86,183.75,-717.50,-411.25,1,94.261,
01/01/2000,00:54:20.98,22.69,-55.88,-991.98,61.25,-805.0,-306.25,1,94.266,
01/01/2000,00:54:20.99,22.69,-56.12,-991.86,192.50,-752.50,-332.50,1,94.270,
01/01/2000,00:54:21.00,22.57,-56.00,-991.86,52.50,-717.50,-367.50,1,94.275,
01/01/2000,00:54:21.01,22.69,-56.00,-991.86,201.25,-647.50,-323.75,1,94.205,
01/01/2000,00:54:21.02,22.69,-55.75,-991.86,210.0,-665.0,-332.50,1,94.210,
01/01/2000,00:54:21.03,22.69,-55.88,-991.86,218.75,-761.25,-323.75,1,94.214,
01/01/2000,00:54:21.04,22.57,-56.00,-991.74,262.50,-673.75,-428.75,1,94.219,
01/01/2000,00:54:21.05,22.69,-55.88,-991.62,175.0,-708.75,-332.50,1,94.223,
01/01/2000,00:54:21.06,22.81,-56.00,-991.74,245.0,-612.50,-376.25,1,94.228,
01/01/2000,00:54:21.08,22.81,-55.88,-991.98,157.50,-682.50,-315.0,1,94.232,
01/01/2000,00:54:21.09,22.69,-55.88,-991.86,166.25,-612.50,-297.50,1,94.237,
01/01/2000,00:54:21.10,22.69,-55.88,-991.74,157.50,-726.25,-393.75,1,94.241,
01/01/2000,00:54:21.11,22.69,-55.88,-991.74,148.75,-656.25,-297.50,1,94.246,
01/01/2000,00:54:21.12,22.57,-55.88,-991.86,201.25,-770.0,-271.25,1,94.250,
01/01/2000,00:54:21.13,22.57,-55.88,-991.98,201.25,-752.50,-306.25,1,94.255,
01/01/2000,00:54:21.14,22.69,-55.88,-991.98,175.0,-743.75,-323.75,1,94.259,
01/01/2000,00:54:21.15,22.69,-56.00,-991.86,245.0,-647.50,-315.0,1,94.264,
01/01/2000,00:54:21.16,22.57,-55.75,-991.86,175.0,-761.25,-411.25,1,94.268,
01/01/2000,00:54:21.17,22.57,-55.88,-991.74,218.75,-638.75,-376.25,1,94.272,
01/01/2000,00:54:21.18,22.57,-55.88,-991.86,183.75,-700.0,-288.75,1,94.277,
01/01/2000,00:54:21.19,22.57,-55.88,-991.98,183.75,-682.50,-428.75,1,94.281,
01/01/2000,00:54:21.20,22.45,-55.75,-992.10,148.75,-595.0,-245.0,1,94.286,
01/01/2000,00:54:21.21,22.57,-55.88,-992.10,61.25,-673.75,-437.50,1,94.290,
01/01/2000,00:54:21.22,22.57,-55.88,-992.23,105.0,-621.25,-306.25,1,94.222,
01/01/2000,00:54:21.23,22.69,-55.88,-992.23,201.25,-673.75,-411.25,1,94.226,
01/01/2000,00:54:21.24,22.69,-55.88,-992.10,227.50,-647.50,-306.25,1,94.231,
01/01/2000,00:54:21.25,22.69,-55.88,-992.10,175.0,-691.25,-332.50,1,94.235,
01/01/2000,00:54:21.26,22.81,-55.63,-992.23,227.50,-743.75,-341.25,1,94.240,
01/01/2000,00:54:21.27,22.94,-55.88,-992.10,113.75,-761.25,-245.0,1,94.244,
01/01/2000,00:54:21.28,22.94,-55.88,-991.98,96.25,-743.75,-262.50,1,94.248,
01/01/2000,00:54:21.30,22.69,-56.00,-991.98,192.50,-656.25,-315.0,1,94.253,
01/01/2000,00:54:21.31,22.57,-55.88,-992.23,87.50,-621.25,-428.75,1,94.257,
01/01/2000,00:54:21.32,22.69,-55.63,-992.23,113.75,-708.75,-455.0,1,94.262,
01/01/2000,00:54:21.33,22.57,-55.63,-992.10,288.75,-682.50,-315.0,1,94.266,
01/01/2000,00:54:21.34,22.57,-55.63,-991.86,43.75,-612.50,-280.0,1,94.270,
01/01/2000,00:54:21.35,22.57,-55.63,-991.98,148.75,-770.0,-315.0,1,94.275,
01/01/2000,00:54:21.36,22.69,-55.88,-992.10,87.50,-735.0,-358.75,1,94.279,
01/01/2000,00:54:21.37,22.69,-56.12,-992.23,122.50,-813.75,-385.0,1,94.212,
01/01/2000,00:54:21.38,22.57,-56.00,-992.10,227.50,-735.0,-341.25,1,94.216,
01/01/2000,00:54:21.39,22.57,-55.88,-991.98,157.50,-778.75,-315.0,1,94.221,
01/01/2000,00:54:21.40,22.45,-56.00,-991.74,157.50,-656.25,-253.75,1,94.225,
01/01/2000,00:54:21.41,22.45,-56.00,-991.86,253.75,-735.0,-428.75,1,94.229,
01/01/2000,00:54:21.42,22.57,-55.88,-991.98,131.25,-717.50,-367.50,1,94.234,
01/01/2000,00:54:21.44,22.57,-56.00,-991.86,105.0,-586.25,-393.75,1,94.238,
01/01/2000,00:54:21.45,22.45,-56.24,-991.74,70.0,-691.25,-358.75,1,94.242,
01/01/2000,00:54:21.46,22.45,-55.88,-991.74,175.0,-682.50,-218.75,1,94.247,
01/01/2000,00:54:21.47,22.45,-55.63,-991.62,183.75,-708.75,-376.25,1,94.251,
01/01/2000,00:54:21.48,22.45,-55.75,-991.62,113.75,-647.50,-280.0,1,94.255,
01/01/2000,00:54:21.49,22.45,-55.88,-991.62,253.75,-752.50,-227.50,1,94.260,
01/01/2000,00:54:21.50,22.45,-56.12,-991.62,105.0,-691.25,-402.50,1,94.264,
01/01/2000,00:54:21.51,22.69,-56.12,-991.62,323.75,-621.25,-385.0,1,94.268,
01/01/2000,00:54:21.53,22.57,-55.75,-991.62,105.0,-638.75,-288.75,1,94.202,
01/01/2000,00:54:21.54,22.57,-55.63,-991.74,140.0,-691.25,-358.75,1,94.206,
01/01/2000,00:54:21.55,22.57,-55.88,-991.86,183.75,-813.75,-323.75,1,94.211,
01/01/2000,00:54:21.56,22.57,-55.88,-991.98,175.0,-700.0,-280.0,1,94.215,
01/01/2000,00:54:21.57,22.69,-55.88,-991.86,201.25,-770.0,-358.75,1,94.219,
01/01/2000,00:54:21.58,22.57,-55.88,-991.62,113.75,-665.0,-280.0,1,94.224,
01/01/2000,00:54:21.59,22.69,-55.88,-991.74,131.25,-656.25,-332.50,1,94.228,
01/01/2000,00:54:21.60,22.69,-55.88,-991.86,166.25,-603.75,-437.50,1,94.232,
01/01/2000,00:54:21.61,22.81,-55.88,-992.10,192.50,-638.75,-192.50,1,94.237,
01/01/2000,00:54:21.62,22.57,-55.88,-991.86,262.50,-691.25,-385.0,1,94.241,
01/01/2000,00:54:21.63,22.57,-55.88,-991.86,148.75,-805.0,-332.50,1,94.245,
01/01/2000,00:54:21.64,22.45,-55.88,-991.86,183.75,-813.75,-376.25,1,94.249,
01/01/2000,00:54:21.65,22.45,-55.63,-991.86,105.0,-621.25,-297.50,1,94.254,
01/01/2000,00:54:21.66,22.57,-55.75,-992.10,218.75,-708.75,-507.50,1,94.258,
01/01/2000,00:54:21.67,22.45,-55.51,-992.35,52.50,-700.0,-297.50,1,94.262,
01/01/2000,00:54:21.68,22.45,-55.63,-992.10,52.50,-621.25,-428.75,1,94.267,
01/01/2000,00:54:21.69,22.33,-55.63,-991.86,52.50,-665.0,-376.25,1,94.271,
01/01/2000,00:54:21.70,22.45,-55.63,-991.86,280.0,-603.75,-385.0,1,94.275,
01/01/2000,00:54:21.71,22.45,-55.63,-991.86,210.0,-638.75,-306.25,1,94.279,
01/01/2000,00:54:21.72,22.33,-55.88,-992.23,140.0,-735.0,-428.75,1,94.214,
01/01/2000,00:54:21.73,22.45,-55.75,-992.35,262.50,-743.75,-157.50,1,94.218,
01/01/2000,00:54:21.74,22.45,-55.88,-991.98,192.50,-673.75,-463.75,1,94.222,
01/01/2000,00:54:21.75,22.33,-55.63,-991.86,78.75,-621.25,-183.75,1,94.227,
01/01/2000,00:54:21.76,22.45,-55.63,-991.74,166.25,-638.75,-341.25,1,94.231,
01/01/2000,00:54:21.77,22.45,-55.88,-991.86,148.75,-656.25,-332.50,1,94.235,
01/01/2000,00:54:21.79,22.57,-55.88,-992.10,306.25,-778.75,-367.50,1,94.239,
01/01/2000,00:54:21.80,22.57,-55.88,-991.86,227.50,-717.50,-393.75,1,94.244,
01/01/2000,00:54:21.81,22.45,-55.39,-991.86,35.0,-682.50,-385.0,1,94.248,
01/01/2000,00:54:21.82,22.33,-55.51,-991.86,131.25,-568.75,-297.50,1,94.252,
01/01/2000,00:54:21.83,22.57,-55.63,-991.86,166.25,-691.25,-463.75,1,94.256,
01/01/2000,00:54:21.84,22.57,-55.51,-992.10,157.50,-673.75,-376.25,1,94.260,
01/01/2000,00:54:21.85,22.69,-55.88,-991.98,183.75,-787.50,-350.0,1,94.265,
01/01/2000,00:54:21.86,22.57,-55.88,-991.98,148.75,-770.0,-306.25,1,94.200,
01/01/2000,00:54:21.87,22.69,-55.88,-992.10,341.25,-700.0,-402.50,1,94.204,
01/01/2000,00:54:21.88,22.81,-55.63,-992.10,148.75,-612.50,-271.25,1,94.208,
01/01/2000,00:54:21.89,22.94,-55.63,-992.35,113.75,-665.0,-411.25,1,94.212,
01/01/2000,00:54:21.90,22.81,-55.75,-992.35,148.75,-700.0,-288.75,1,94.217,
01/01/2000,00:54:21.91,22.81,-56.12,-992.35,157.50,-735.0,-350.0,1,94.221,
01/01/2000,00:54:21.92,22.69,-56.00,-992.23,245.0,-656.25,-288.75,1,94.225,
01/01/2000,00:54:21.94,22.45,-55.88,-991.98,105.0,-787.50,-376.25,1,94.229,
01/01/2000,00:54:21.95,22.57,-55.75,-991.86,201.25,-717.50,-420.0,1,94.234,
01/01/2000,00:54:21.96,22.57,-55.63,-991.86,245.0,-647.50,-280.0,1,94.238,
01/01/2000,00:54:21.97,22.57,-55.88,-992.10,315.0,-708.75,-332.50,1,94.242,
01/01/2000,00:54:21.98,22.57,-56.12,-991.98,262.50,-656.25,-306.25,1,94.246,
01/01/2000,00:54:21.99,22.57,-55.88,-991.86,-17.50,-621.25,-402.50,1,94.250,
01/01/2000,00:54:22.00,22.57,-55.88,-991.49,166.25,-717.50,-341.25,1,94.255,
01/01/2000,00:54:22.01,22.69,-55.75,-991.49,192.50,-673.75,-376.25,1,94.259,
01/01/2000,00:54:22.02,22.45,-55.75,-991.86,227.50,-726.25,-385.0,1,94.263,
01/01/2000,00:54:22.04,22.57,-55.75,-991.98,140.0,-630.0,-332.50,1,94.199,
01/01/2000,00:54:22.05,22.45,-55.63,-991.86,87.50,-726.25,-288.75,1,94.203,
01/01/2000,00:54:22.06,22.45,-55.88,-991.86,122.50,-638.75,-402.50,1,94.207,
01/01/2000,00:54:22.07,22.45,-55.88,-991.86,227.50,-647.50,-498.75,1,94.211,
01/01/2000,00:54:22.08,22.33,-55.75,-991.98,157.50,-805.0,-411.25,1,94.215,
01/01/2000,00:54:22.09,22.45,-55.75,-992.10,61.25,-638.75,-315.0,1,94.220,
01/01/2000,00:54:22.10,22.33,-55.75,-992.10,61.25,-691.25,-376.25,1,94.224,
01/01/2000,00:54:22.11,22.20,-55.51,-991.86,148.75,-595.0,-227.50,1,94.228,
01/01/2000,00:54:22.12,22.20,-55.88,-991.74,218.75,-726.25,-315.0,1,94.232,
01/01/2000,00:54:22.13,22.20,-55.88,-991.86,96.25,-726.25,-516.25,1,94.236,
01/01/2000,00:54:22.14,22.33,-56.12,-991.98,166.25,-638.75,-323.75,1,94.240,
01/01/2000,00:54:22.15,22.45,-55.88,-991.98,183.75,-726.25,-306.25,1,94.177,
01/01/2000,00:54:22.16,22.45,-55.88,-991.86,122.50,-717.50,-236.25,1,94.181,
01/01/2000,00:54:22.17,22.45,-56.12,-991.74,35.0,-735.0,-385.0,1,94.185,
01/01/2000,00:54:22.18,22.45,-56.12,-991.74,210.0,-787.50,-271.25,1,94.189,
01/01/2000,00:54:22.19,22.45,-56.24,-991.86,210.0,-822.50,-341.25,1,94.194,
01/01/2000,00:54:22.20,22.57,-56.12,-991.86,262.50,-805.0,-332.50,1,94.198,
01/01/2000,00:54:22.22,22.69,-56.12,-991.98,-52.50,-717.50,-358.75,1,94.202,
01/01/2000,00:54:22.23,22.57,-56.12,-991.98,262.50,-630.0,-332.50,1,94.206,
01/01/2000,00:54:22.24,22.45,-55.88,-991.98,113.75,-717.50,-236.25,1,94.210,
01/01/2000,00:54:22.25,22.33,-56.00,-991.86,218.75,-700.0,-393.75,1,94.214,
01/01/2000,00:54:22.26,22.45,-55.88,-991.86,61.25,-805.0,-280.0,1,94.218,
01/01/2000,00:54:22.27,22.69,-55.88,-991.98,245.0,-700.0,-385.0,1,94.223,
01/01/2000,00:54:22.28,22.57,-56.00,-992.10,52.50,-638.75,-306.25,1,94.227,
01/01/2000,00:54:22.29,22.45,-55.88,-991.98,87.50,-656.25,-306.25,1,94.231,
01/01/2000,00:54:22.30,22.45,-55.88,-991.86,236.25,-787.50,-341.25,1,94.235,
01/01/2000,00:54:22.31,22.45,-55.63,-992.10,183.75,-673.75,-227.50,1,94.239,
01/01/2000,00:54:22.32,22.69,-55.75,-992.10,61.25,-630.0,-358.75,1,94.243,
01/01/2000,00:54:22.33,22.69,-55.88,-992.10,140.0,-761.25,-297.50,1,94.247,
01/01/2000,00:54:22.34,22.45,-55.75,-992.10,-8.75,-813.75,-437.50,1,94.251,
01/01/2000,00:54:22.35,22.45,-55.88,-991.98,227.50,-752.50,-297.50,1,94.255,
01/01/2000,00:54:22.36,22.57,-55.63,-992.35,201.25,-726.25,-306.25,1,94.193,
01/01/2000,00:54:22.37,22.69,-55.63,-992.23,35.0,-665.0,-332.50,1,94.197,
01/01/2000,00:54:22.38,22.57,-55.88,-991.98,280.0,-682.50,-350.0,1,94.201,
01/01/2000,00:54:22.39,22.57,-55.88,-991.86,35.0,-700.0,-358.75,1,94.205,
01/01/2000,00:54:22.40,22.57,-55.88,-992.10,96.25,-770.0,-358.75,1,94.209,
01/01/2000,00:54:22.42,22.69,-55.88,-992.23,297.50,-673.75,-262.50,1,94.213,
01/01/2000,00:54:22.43,22.69,-55.75,-992.10,140.0,-700.0,-358.75,1,94.217,
01/01/2000,00:54:22.44,22.69,-55.63,-991.98,148.75,-726.25,-236.25,1,94.221,
01/01/2000,00:54:22.45,22.69,-56.00,-992.10,131.25,-770.0,-280.0,1,94.225,
01/01/2000,00:54:22.46,22.69,-56.12,-992.35,113.75,-735.0,-323.75,1,94.229,
01/01/2000,00:54:22.47,22.69,-56.12,-992.35,227.50,-630.0,-393.75,1,94.233,
01/01/2000,00:54:22.48,22.69,-56.12,-992.23,113.75,-717.50,-402.50,1,94.238,
01/01/2000,00:54:22.49,22.69,-55.88,-992.10,166.25,-726.25,-428.75,1,94.242,
01/01/2000,00:54:22.50,22.45,-55.88,-991.98,113.75,-691.25,-288.75,1,94.180,
01/01/2000,00:54:22.51,22.57,-56.12,-992.10,122.50,-735.0,-446.25,1,94.184,
01/01/2000,00:54:22.52,22.57,-56.12,-992.35,87.50,-778.75,-446.25,1,94.188,
01/01/2000,00:54:22.53,22.69,-56.24,-992.47,131.25,-621.25,-262.50,1,94.192,
01/01/2000,00:54:22.55,22.57,-56.00,-992.35,218.75,-761.25,-437.50,1,94.196,
01/01/2000,00:54:22.56,22.45,-55.88,-992.10,96.25,-700.0,-131.25,1,94.200,
01/01/2000,00:54:22.57,22.33,-55.88,-992.10,157.50,-665.0,-341.25,1,94.204,
01/01/2000,00:54:22.58,22.45,-56.12,-992.35,253.75,-665.0,-297.50,1,94.208,
01/01/2000,00:54:22.59,22.45,-56.12,-992.47,192.50,-612.50,-323.75,1,94.212,
01/01/2000,00:54:22.60,22.45,-56.24,-992.35,148.75,-735.0,-341.25,1,94.216,
01/01/2000,00:54:22.61,22.45,-56.24,-991.86,218.75,-665.0,-455.0,1,94.220,
01/01/2000,00:54:22.62,22.20,-56.12,-991.86,166.25,-700.0,-385.0,1,94.224,
01/01/2000,00:54:22.63,22.33,-56.12,-992.23,245.0,-656.25,-402.50,1,94.228,
01/01/2000,00:54:22.64,22.45,-56.00,-992.59,131.25,-787.50,-288.75,1,94.232,
01/01/2000,00:54:22.65,22.45,-56.12,-992.59,245.0,-647.50,-323.75,1,94.236,
01/01/2000,00:54:22.66,22.45,-56.12,-992.47,140.0,-638.75,-280.0,1,94.240,
01/01/2000,00:54:22.67,22.57,-56.36,-992.10,210.0,-656.25,-376.25,1,94.244,
01/01/2000,00:54:22.68,22.57,-56.36,-991.98,122.50,-682.50,-271.25,1,94.183,
01/01/2000,00:54:22.69,22.57,-56.24,-992.10,192.50,-752.50,-358.75,1,94.252,
01/01/2000,00:54:22.70,22.45,-56.24,-992.23,183.75,-673.75,-341.25,1,94.191,
01/01/2000,00:54:22.72,22.20,-56.12,-992.35,166.25,-665.0,-262.50,1,94.195,
01/01/2000,00:54:22.73,22.33,-56.12,-992.23,210.0,-673.75,-472.50,1,94.199,
01/01/2000,00:54:22.74,22.33,-56.12,-992.10,253.75,-673.75,-402.50,1,94.203,
01/01/2000,00:54:22.75,22.20,-56.00,-991.98,210.0,-691.25,-306.25,1,94.207,
01/01/2000,00:54:22.76,22.33,-56.00,-992.23,78.75,-612.50,-393.75,1,94.211,
01/01/2000,00:54:22.77,22.20,-55.88,-992.35,105.0,-700.0,-315.0,1,94.215,
01/01/2000,00:54:22.78,22.33,-55.88,-992.35,96.25,-656.25,-306.25,1,94.219,
01/01/2000,00:54:22.79,22.20,-56.00,-992.23,402.50,-822.50,-376.25,1,94.223,
01/01/2000,00:54:22.80,22.33,-55.88,-992.23,175.0,-787.50,-236.25,1,94.227,
01/01/2000,00:54:22.81,22.33,-56.12,-992.10,210.0,-735.0,-385.0,1,94.231,
01/01/2000,00:54:22.82,22.45,-56.24,-992.10,113.75,-770.0,-481.25,1,94.235,
01/01/2000,00:54:22.83,22.45,-56.36,-992.35,78.75,-682.50,-367.50,1,94.239,
01/01/2000,00:54:22.84,22.45,-56.12,-992.23,192.50,-638.75,-315.0,1,94.243,
01/01/2000,00:54:22.85,22.45,-56.12,-992.10,297.50,-691.25,-332.50,1,94.182,
01/01/2000,00:54:22.86,22.45,-56.12,-992.23,192.50,-673.75,-332.50,1,94.186,
01/01/2000,00:54:22.87,22.45,-56.12,-992.35,148.75,-778.75,-376.25,1,94.190,
01/01/2000,00:54:22.88,22.45,-56.36,-992.35,131.25,-665.0,-262.50,1,94.194,
01/01/2000,00:54:22.89,22.45,-56.24,-992.59,192.50,-770.0,-341.25,1,94.198,
01/01/2000,00:54:22.90,22.57,-56.24,-992.47,0.0,-647.50,-332.50,1,94.202,
01/01/2000,00:54:22.91,22.69,-56.00,-992.47,70.0,-621.25,-376.25,1,94.206,
01/01/2000,00:54:22.93,22.69,-56.00,-992.23,210.0,-656.25,-385.0,1,94.210,
01/01/2000,00:54:22.94,22.69,-56.12,-992.23,245.0,-630.0,-297.50,1,94.214,
01/01/2000,00:54:22.95,22.57,-56.12,-992.35,236.25,-735.0,-323.75,1,94.218,
01/01/2000,00:54:22.96,22.45,-56.24,-992.35,52.50,-673.75,-288.75,1,94.222,
01/01/2000,00:54:22.97,22.57,-56.00,-992.35,61.25,-743.75,-306.25,1,94.226,
01/01/2000,00:54:22.98,22.45,-56.00,-992.35,148.75,-726.25,-350.0,1,94.229,
01/01/2000,00:54:22.99,22.45,-56.12,-992.23,157.50,-691.25,-341.25,1,94.233,
01/01/2000,00:54:23.00,22.57,-56.36,-992.35,87.50,-708.75,-463.75,1,94.237,
01/01/2000,00:54:23.01,22.57,-56.24,-992.59,122.50,-743.75,-332.50,1,94.241,
01/01/2000,00:54:23.02,22.69,-56.24,-992.71,43.75,-726.25,-297.50,1,94.245,
01/01/2000,00:54:23.03,22.69,-56.12,-992.71,87.50,-752.50,-332.50,1,94.185,
01/01/2000,00:54:23.04,22.45,-55.88,-992.47,140.0,-717.50,-280.0,1,94.253,
01/01/2000,00:54:23.06,22.57,-56.00,-992.59,113.75,-595.0,-332.50,1,94.193,
01/01/2000,00:54:23.07,22.94,-56.12,-992.84,157.50,-735.0,-323.75,1,94.197,
01/01/2000,00:54:23.08,22.94,-56.12,-992.84,245.0,-682.50,-350.0,1,94.201,
01/01/2000,00:54:23.09,22.94,-56.12,-992.59,166.25,-647.50,-376.25,1,94.205,
01/01/2000,00:54:23.10,22.94,-56.24,-992.47,210.0,-743.75,-323.75,1,94.209,
01/01/2000,00:54:23.11,22.69,-56.12,-992.35,-8.75,-656.25,-332.50,1,94.213,
01/01/2000,00:54:23.12,22.94,-56.00,-992.35,78.75,-630.0,-323.75,1,94.217,
01/01/2000,00:54:23.13,22.81,-56.00,-992.23,105.0,-743.75,-227.50,1,94.220,
01/01/2000,00:54:23.14,22.81,-56.12,-992.23,52.50,-735.0,-341.25,1,94.161,
01/01/2000,00:54:23.15,22.81,-56.24,-992.35,96.25,-673.75,-385.0,1,94.165,
01/01/2000,00:54:23.16,22.69,-56.12,-992.35,122.50,-682.50,-306.25,1,94.169,
01/01/2000,00:54:23.17,22.69,-56.00,-992.23,78.75,-682.50,-332.50,1,94.173,
01/01/2000,00:54:23.18,22.69,-55.88,-992.10,105.0,-682.50,-385.0,1,94.177,
01/01/2000,00:54:23.19,22.57,-55.75,-991.86,253.75,-717.50,-262.50,1,94.181,
01/01/2000,00:54:23.21,22.69,-55.88,-992.10,122.50,-708.75,-315.0,1,94.184,
01/01/2000,00:54:23.22,22.69,-56.24,-992.35,201.25,-568.75,-350.0,1,94.188,
01/01/2000,00:54:23.23,22.69,-56.12,-992.35,61.25,-708.75,-367.50,1,94.192,
01/01/2000,00:54:23.24,22.57,-56.12,-992.35,192.50,-735.0,-376.25,1,94.196,
01/01/2000,00:54:23.25,22.57,-56.00,-992.35,140.0,-743.75,-358.75,1,94.200,
01/01/2000,00:54:23.26,22.57,-55.88,-992.23,306.25,-717.50,-358.75,1,94.204,
01/01/2000,00:54:23.27,22.69,-56.12,-992.47,262.50,-770.0,-341.25,1,94.208,
01/01/2000,00:54:23.28,22.69,-56.00,-992.35,122.50,-691.25,-341.25,1,94.212,
01/01/2000,00:54:23.29,22.45,-56.12,-992.23,271.25,-717.50,-402.50,1,94.215,
01/01/2000,00:54:23.30,22.57,-55.88,-992.23,87.50,-708.75,-341.25,1,94.219,
01/01/2000,00:54:23.31,22.69,-55.63,-992.35,43.75,-770.0,-437.50,1,94.223,
01/01/2000,00:54:23.32,22.57,-55.63,-992.47,192.50,-682.50,-411.25,1,94.227,
01/01/2000,00:54:23.33,22.45,-55.75,-992.59,210.0,-673.75,-323.75,1,94.231,
01/01/2000,00:54:23.34,22.33,-56.12,-992.35,175.0,-700.0,-402.50,1,94.235,
01/01/2000,00:54:23.35,22.33,-56.00,-992.35,70.0,-726.25,-358.75,1,94.176,
01/01/2000,00:54:23.37,22.45,-56.00,-992.23,210.0,-673.75,-367.50,1,94.180,
01/01/2000,00:54:23.37,22.45,-55.88,-992.35,210.0,-682.50,-297.50,1,94.184,
01/01/2000,00:54:23.39,22.45,-56.00,-992.47,122.50,-630.0,-332.50,1,94.188,
01/01/2000,00:54:23.40,22.45,-56.12,-992.59,201.25,-708.75,-463.75,1,94.191,
01/01/2000,00:54:23.41,22.45,-56.00,-992.59,157.50,-822.50,-271.25,1,94.195,
01/01/2000,00:54:23.42,22.45,-56.00,-992.35,122.50,-542.50,-350.0,1,94.199,
01/01/2000,00:54:23.43,22.33,-55.63,-992.35,236.25,-682.50,-341.25,1,94.203,
01/01/2000,00:54:23.44,22.33,-55.88,-992.59,183.75,-647.50,-271.25,1,94.207,
01/01/2000,00:54:23.45,22.33,-55.88,-992.59,210.0,-691.25,-376.25,1,94.211,
01/01/2000,00:54:23.46,22.45,-55.75,-992.59,218.75,-700.0,-245.0,1,94.214,
01/01/2000,00:54:23.47,22.45,-55.63,-992.35,253.75,-691.25,-420.0,1,94.218,
01/01/2000,00:54:23.48,22.57,-55.63,-992.10,87.50,-656.25,-297.50,1,94.222,
01/01/2000,00:54:23.49,22.57,-55.63,-991.98,236.25,-673.75,-253.75,1,94.164,
01/01/2000,00:54:23.50,22.45,-55.63,-992.10,8.75,-770.0,-288.75,1,94.168,
01/01/2000,00:54:23.51,22.45,-55.75,-992.23,227.50,-743.75,-315.0,1,94.172,
01/01/2000,00:54:23.52,22.57,-55.88,-992.35,113.75,-673.75,-376.25,1,94.175,
01/01/2000,00:54:23.53,22.57,-55.75,-992.47,105.0,-691.25,-271.25,1,94.179,
01/01/2000,00:54:23.54,22.45,-55.88,-992.23,122.50,-735.0,-288.75,1,94.183,
01/01/2000,00:54:23.55,22.20,-55.88,-991.98,192.50,-787.50,-376.25,1,94.187,
01/01/2000,00:54:23.57,22.20,-55.75,-991.98,70.0,-682.50,-175.0,1,94.191,
01/01/2000,00:54:23.58,22.20,-55.63,-992.10,175.0,-691.25,-420.0,1,94.133,
01/01/2000,00:54:23.59,22.20,-55.63,-992.23,43.75,-647.50,-288.75,1,94.137,
01/01/2000,00:54:23.60,22.33,-55.63,-992.35,192.50,-726.25,-428.75,1,94.141,
01/01/2000,00:54:23.61,22.45,-55.75,-992.35,96.25,-603.75,-350.0,1,94.144,
01/01/2000,00:54:23.62,22.45,-55.75,-992.23,218.75,-682.50,-393.75,1,94.148,
01/01/2000,00:54:23.63,22.57,-55.51,-992.23,43.75,-665.0,-218.75,1,94.152,
01/01/2000,00:54:23.64,22.57,-55.51,-992.10,52.50,-752.50,-393.75,1,94.156,
01/01/2000,00:54:23.65,22.45,-55.63,-992.10,245.0,-586.25,-201.25,1,94.160,
01/01/2000,00:54:23.66,22.57,-55.75,-992.35,96.25,-630.0,-367.50,1,94.163,
01/01/2000,00:54:23.67,22.69,-55.75,-992.47,157.50,-743.75,-350.0,1,94.167,
01/01/2000,00:54:23.68,22.69,-55.88,-992.23,70.0,-638.75,-463.75,1,94.171,
01/01/2000,00:54:23.69,22.57,-55.88,-991.86,8.75,-630.0,-271.25,1,94.175,
01/01/2000,00:54:23.71,22.57,-55.63,-991.86,245.0,-761.25,-306.25,1,94.179,
01/01/2000,00:54:23.72,22.57,-55.88,-991.98,166.25,-638.75,-297.50,1,94.182,
01/01/2000,00:54:23.73,22.57,-55.88,-992.35,218.75,-743.75,-455.0,1,94.186,
01/01/2000,00:54:23.74,22.45,-55.88,-992.35,-17.50,-761.25,-315.0,1,94.190,
01/01/2000,00:54:23.75,22.33,-55.88,-992.10,236.25,-638.75,-376.25,1,94.194,
01/01/2000,00:54:23.76,22.45,-55.88,-991.98,245.0,-682.50,-376.25,1,94.197,
01/01/2000,00:54:23.77,22.45,-55.75,-991.98,157.50,-778.75,-218.75,1,94.201,
01/01/2000,00:54:23.78,22.45,-55.88,-992.23,262.50,-787.50,-411.25,1,94.205,
01/01/2000,00:54:23.79,22.45,-56.00,-992.35,227.50,-691.25,-367.50,1,94.208,
01/01/2000,00:54:23.80,22.45,-56.00,-992.10,70.0,-726.25,-367.50,1,94.212,
01/01/2000,00:54:23.81,22.57,-56.00,-991.86,210.0,-638.75,-227.50,1,94.216,
01/01/2000,00:54:23.82,22.57,-55.88,-991.98,236.25,-752.50,-350.0,1,94.220,
01/01/2000,00:54:23.83,22.45,-56.12,-992.35,210.0,-700.0,-306.25,1,94.223,
01/01/2000,00:54:23.84,22.45,-56.12,-992.35,166.25,-612.50,-393.75,1,94.167,
01/01/2000,00:54:23.85,22.45,-56.12,-992.10,166.25,-682.50,-385.0,1,94.170,
01/01/2000,00:54:23.86,22.45,-55.75,-991.86,210.0,-717.50,-271.25,1,94.174,
01/01/2000,00:54:23.87,22.45,-55.63,-991.74,166.25,-691.25,-280.0,1,94.178,
01/01/2000,00:54:23.88,22.57,-55.88,-992.10,262.50,-700.0,-323.75,1,94.182,
01/01/2000,00:54:23.89,22.57,-56.00,-992.23,131.25,-682.50,-323.75,1,94.185,
01/01/2000,00:54:23.90,22.57,-56.12,-992.35,236.25,-638.75,-498.75,1,94.189,
01/01/2000,00:54:23.92,22.69,-55.75,-991.86,61.25,-621.25,-315.0,1,94.193,
01/01/2000,00:54:23.93,22.69,-55.51,-991.62,87.50,-665.0,-306.25,1,94.196,
01/01/2000,00:54:23.94,22.57,-55.63,-991.62,175.0,-673.75,-288.75,1,94.200,
01/01/2000,00:54:23.95,22.45,-56.00,-991.86,157.50,-743.75,-245.0,1,94.204,
01/01/2000,00:54:23.96,22.69,-56.12,-992.10,61.25,-638.75,-393.75,1,94.208,
01/01/2000,00:54:23.97,22.69,-56.12,-992.10,192.50,-717.50,-271.25,1,94.211,
01/01/2000,00:54:23.98,22.69,-55.88,-991.86,61.25,-752.50,-376.25,1,94.155,
01/01/2000,00:54:23.99,22.69,-55.88,-991.86,192.50,-673.75,-385.0,1,94.159,
01/01/2000,00:54:24.00,22.57,-55.63,-992.10,131.25,-682.50,-288.75,1,94.162,
01/01/2000,00:54:24.01,22.57,-56.00,-992.23,236.25,-700.0,-358.75,1,94.166,
01/01/2000,00:54:24.02,22.57,-56.12,-992.23,236.25,-691.25,-288.75,1,94.170,
01/01/2000,00:54:24.03,22.45,-56.12,-992.23,105.0,-752.50,-428.75,1,94.174,
01/01/2000,00:54:24.04,22.45,-56.12,-991.98,8.75,-586.25,-297.50,1,94.177,
01/01/2000,00:54:24.06,22.20,-56.12,-992.10,87.50,-656.25,-262.50,1,94.181,
01/01/2000,00:54:24.07,22.33,-56.00,-992.35,218.75,-647.50,-437.50,1,94.185,
01/01/2000,00:54:24.08,22.45,-55.88,-992.35,245.0,-743.75,-358.75,1,94.188,
01/01/2000,00:54:24.09,22.20,-56.00,-992.10,175.0,-787.50,-402.50,1,94.192,
01/01/2000,00:54:24.10,22.20,-55.88,-991.86,210.0,-682.50,-332.50,1,94.196,
01/01/2000,00:54:24.11,22.33,-55.88,-991.98,201.25,-665.0,-376.25,1,94.199,
01/01/2000,00:54:24.12,22.45,-56.00,-992.10,105.0,-700.0,-245.0,1,94.203,
01/01/2000,00:54:24.13,22.45,-55.88,-992.10,166.25,-665.0,-262.50,1,94.147,
01/01/2000,00:54:24.14,22.33,-55.88,-991.98,271.25,-717.50,-332.50,1,94.151,
01/01/2000,00:54:24.15,22.45,-55.88,-991.86,297.50,-682.50,-385.0,1,94.155,
01/01/2000,00:54:24.16,22.45,-55.88,-991.86,183.75,-638.75,-227.50,1,94.158,
01/01/2000,00:54:24.17,22.45,-56.00,-991.98,148.75,-691.25,-306.25,1,94.162,
01/01/2000,00:54:24.18,22.45,-56.12,-991.98,210.0,-638.75,-315.0,1,94.166,
01/01/2000,00:54:24.19,22.45,-56.00,-992.10,175.0,-586.25,-358.75,1,94.169,
01/01/2000,00:54:24.20,22.33,-55.75,-991.98,192.50,-647.50,-402.50,1,94.173,
01/01/2000,00:54:24.21,22.45,-55.88,-991.86,131.25,-638.75,-210.0,1,94.177,
01/01/2000,00:54:24.22,22.33,-55.75,-991.86,218.75,-708.75,-271.25,1,94.180,
01/01/2000,00:54:24.23,22.45,-55.88,-992.10,262.50,-726.25,-288.75,1,94.184,
01/01/2000,00:54:24.25,22.45,-55.88,-992.10,236.25,-638.75,-367.50,1,94.188,
01/01/2000,00:54:24.25,22.45,-55.88,-992.10,105.0,-708.75,-437.50,1,94.191,
01/01/2000,00:54:24.27,22.45,-55.63,-992.10,140.0,-682.50,-271.25,1,94.195,
01/01/2000,00:54:24.28,22.45,-55.75,-991.86,236.25,-743.75,-463.75,1,94.198,
01/01/2000,00:54:24.29,22.45,-55.88,-991.98,157.50,-691.25,-280.0,1,94.202,
01/01/2000,00:54:24.30,22.45,-56.12,-992.10,96.25,-822.50,-341.25,1,94.206,
01/01/2000,00:54:24.31,22.45,-56.24,-991.86,192.50,-735.0,-367.50,1,94.209,
01/01/2000,00:54:24.32,22.33,-55.88,-991.86,122.50,-770.0,-288.75,1,94.213,
01/01/2000,00:54:24.33,22.33,-55.88,-991.74,78.75,-691.25,-332.50,1,94.216,
01/01/2000,00:54:24.34,22.33,-55.88,-991.98,43.75,-673.75,-271.25,1,94.220,
01/01/2000,00:54:24.35,22.45,-56.00,-991.98,245.0,-700.0,-411.25,1,94.224,
01/01/2000,00:54:24.36,22.33,-56.12,-992.10,131.25,-726.25,-385.0,1,94.227,
01/01/2000,00:54:24.37,22.45,-56.00,-991.86,52.50,-735.0,-350.0,1,94.231,
01/01/2000,00:54:24.38,22.57,-55.88,-991.86,61.25,-603.75,-350.0,1,94.234,
01/01/2000,00:54:24.39,22.57,-55.88,-991.86,297.50,-656.25,-306.25,1,94.238,
01/01/2000,00:54:24.40,22.57,-55.88,-991.74,96.25,-761.25,-253.75,1,94.183,
01/01/2000,00:54:24.41,22.45,-55.75,-991.74,122.50,-603.75,-437.50,1,94.187,
01/01/2000,00:54:24.42,22.45,-55.63,-991.86,210.0,-630.0,-350.0,1,94.190,
01/01/2000,00:54:24.43,22.57,-55.88,-991.86,113.75,-700.0,-306.25,1,94.194,
01/01/2000,00:54:24.44,22.57,-55.75,-991.74,148.75,-735.0,-341.25,1,94.198,
01/01/2000,00:54:24.45,22.45,-56.00,-991.86,271.25,-735.0,-350.0,1,94.201,
01/01/2000,00:54:24.46,22.45,-56.00,-991.86,157.50,-726.25,-332.50,1,94.205,
01/01/2000,00:54:24.48,22.45,-55.88,-992.10,140.0,-700.0,-315.0,1,94.208,
01/01/2000,00:54:24.49,22.57,-55.88,-992.10,175.0,-673.75,-367.50,1,94.212,
01/01/2000,00:54:24.50,22.45,-55.75,-991.86,236.25,-665.0,-218.75,1,94.215,
01/01/2000,00:54:24.51,22.45,-55.88,-991.62,105.0,-840.0,-236.25,1,94.219,
01/01/2000,00:54:24.52,22.45,-55.88,-991.62,70.0,-682.50,-420.0,1,94.222,
01/01/2000,00:54:24.53,22.69,-56.12,-991.86,253.75,-673.75,-455.0,1,94.226,
01/01/2000,00:54:24.54,22.57,-55.88,-991.98,61.25,-717.50,-315.0,1,94.230,
01/01/2000,00:54:24.55,22.33,-56.00,-992.10,113.75,-822.50,-402.50,1,94.175,
01/01/2000,00:54:24.56,22.33,-55.88,-992.10,70.0,-735.0,-288.75,1,94.179,
01/01/2000,00:54:24.57,22.45,-55.75,-991.86,210.0,-717.50,-323.75,1,94.182,
01/01/2000,00:54:24.58,22.45,-55.88,-991.98,227.50,-673.75,-341.25,1,94.186,
01/01/2000,00:54:24.60,22.57,-56.12,-991.86,105.0,-612.50,-227.50,1,94.190,
01/01/2000,00:54:24.61,22.57,-56.00,-991.98,-35.0,-778.75,-376.25,1,94.193,
01/01/2000,00:54:24.62,22.57,-56.12,-991.98,227.50,-743.75,-437.50,1,94.197,
01/01/2000,00:54:24.63,22.57,-56.12,-992.10,253.75,-586.25,-271.25,1,94.200,
01/01/2000,00:54:24.64,22.45,-56.12,-992.10,271.25,-752.50,-393.75,1,94.204,
01/01/2000,00:54:24.65,22.45,-56.12,-992.10,245.0,-656.25,-253.75,1,94.207,
01/01/2000,00:54:24.66,22.45,-56.12,-992.35,175.0,-796.25,-358.75,1,94.211,
01/01/2000,00:54:24.67,22.45,-56.00,-992.10,131.25,-638.75,-288.75,1,94.214,
01/01/2000,00:54:24.68,22.45,-56.12,-991.98,253.75,-761.25,-446.25,1,94.218,
01/01/2000,00:54:24.69,22.45,-56.00,-991.98,253.75,-700.0,-157.50,1,94.221,
01/01/2000,00:54:24.70,22.45,-55.75,-991.98,183.75,-787.50,-358.75,1,94.225,
01/01/2000,00:54:24.71,22.45,-55.88,-991.86,280.0,-525.0,-376.25,1,94.228,
01/01/2000,00:54:24.72,22.33,-55.88,-991.86,192.50,-735.0,-341.25,1,94.232,
01/01/2000,00:54:24.73,22.45,-55.88,-991.86,78.75,-717.50,-341.25,1,94.235,
01/01/2000,00:54:24.74,22.45,-55.88,-991.86,306.25,-700.0,-358.75,1,94.182,
01/01/2000,00:54:24.75,22.45,-55.88,-991.86,105.0,-691.25,-358.75,1,94.242,
01/01/2000,00:54:24.77,22.33,-55.88,-991.98,157.50,-586.25,-323.75,1,94.189,
01/01/2000,00:54:24.78,22.33,-55.88,-991.86,157.50,-665.0,-262.50,1,94.192,
01/01/2000,00:54:24.79,22.33,-55.75,-991.86,131.25,-656.25,-253.75,1,94.196,
01/01/2000,00:54:24.80,22.20,-55.75,-991.86,131.25,-708.75,-271.25,1,94.199,
01/01/2000,00:54:24.81,22.20,-55.63,-991.74,157.50,-708.75,-306.25,1,94.203,
01/01/2000,00:54:24.82,22.33,-55.63,-991.74,113.75,-621.25,-358.75,1,94.206,
01/01/2000,00:54:24.83,22.20,-55.63,-992.10,113.75,-647.50,-393.75,1,94.210,
01/01/2000,00:54:24.84,22.45,-55.75,-991.98,236.25,-621.25,-315.0,1,94.213,
01/01/2000,00:54:24.85,22.45,-55.63,-991.98,122.50,-656.25,-315.0,1,94.217,
01/01/2000,00:54:24.86,22.45,-55.75,-991.74,35.0,-673.75,-446.25,1,94.220,
01/01/2000,00:54:24.87,22.45,-55.75,-991.86,157.50,-708.75,-350.0,1,94.224,
01/01/2000,00:54:24.88,22.45,-55.88,-991.86,236.25,-752.50,-341.25,1,94.227,
01/01/2000,00:54:24.89,22.45,-55.88,-991.86,192.50,-630.0,-402.50,1,94.231,
01/01/2000,00:54:24.90,22.69,-55.88,-991.86,192.50,-691.25,-306.25,1,94.178,
01/01/2000,00:54:24.91,22.69,-55.88,-991.74,113.75,-621.25,-288.75,1,94.181,
01/01/2000,00:54:24.92,22.57,-55.88,-991.74,61.25,-630.0,-253.75,1,94.185,
01/01/2000,00:54:24.93,22.69,-56.12,-991.74,175.0,-638.75,-358.75,1,94.188,
01/01/2000,00:54:24.94,22.69,-56.00,-991.86,-26.25,-726.25,-288.75,1,94.192,
01/01/2000,00:54:24.95,22.69,-56.00,-991.86,96.25,-700.0,-385.0,1,94.195,
01/01/2000,00:54:24.97,22.69,-55.75,-991.74,183.75,-735.0,-297.50,1,94.199,
01/01/2000,00:54:24.98,22.81,-55.75,-991.74,175.0,-822.50,-358.75,1,94.202,
