rtcDate,rtcTime,aX,aY,aZ,gX,gY,gZ,dataRdy,output_Hz,
01/01/2000,01:40:04.27,13.05,-62.95,-863.03,315.0,-682.50,-280.0,1,0.0,
01/01/2000,01:40:04.29,13.42,-65.27,-892.55,113.75,-647.50,-385.0,1,100.0,
01/01/2000,01:40:04.30,13.66,-66.37,-904.51,122.50,-656.25,-341.25,1,100.0,
01/01/2000,01:40:04.31,13.79,-67.10,-915.0,78.75,-761.25,-297.50,1,100.0,
01/01/2000,01:40:04.32,13.91,-67.83,-928.66,236.25,-708.75,-288.75,1,100.0,
01/01/2000,01:40:04.33,14.03,-68.69,-936.72,131.25,-665.0,-271.25,1,100.0,
01/01/2000,01:40:04.34,14.03,-69.30,-943.43,61.25,-647.50,-253.75,1,100.0,
01/01/2000,01:40:04.35,14.03,-69.66,-949.28,140.0,-603.75,-332.50,1,100.0,
01/01/2000,01:40:04.36,14.27,-70.27,-956.85,61.25,-577.50,-367.50,1,100.0,
01/01/2000,01:40:04.37,14.40,-70.52,-961.12,43.75,-761.25,-271.25,1,100.0,
01/01/2000,01:40:04.38,14.64,-70.88,-965.02,122.50,-708.75,-420.0,1,100.0,
01/01/2000,01:40:04.39,14.40,-71.25,-968.44,122.50,-708.75,-341.25,1,100.0,
01/01/2000,01:40:04.40,14.40,-71.49,-972.83,148.75,-726.25,-358.75,1,100.0,
01/01/2000,01:40:04.41,14.52,-71.49,-975.39,87.50,-638.75,-315.0,1,100.0,
01/01/2000,01:40:04.42,14.64,-71.61,-977.46,140.0,-638.75,-367.50,1,100.0,
01/01/2000,01:40:04.43,14.64,-71.86,-979.17,157.50,-752.50,-253.75,1,100.0,
01/01/2000,01:40:04.44,14.64,-72.22,-981.61,148.75,-743.75,-297.50,1,100.0,
01/01/2000,01:40:04.45,14.88,-72.35,-983.08,201.25,-735.0,-455.0,1,100.0,
01/01/2000,01:40:04.46,14.88,-72.35,-984.30,245.0,-691.25,-218.75,1,100.0,
01/01/2000,01:40:04.47,14.88,-72.35,-985.52,271.25,-743.75,-245.0,1,100.0,
01/01/2000,01:40:04.48,14.64,-72.47,-986.74,175.0,-708.75,-420.0,1,95.455,
01/01/2000,01:40:04.49,14.52,-72.59,-987.35,96.25,-752.50,-315.0,1,95.652,
01/01/2000,01:40:04.50,14.64,-72.59,-987.96,70.0,-822.50,-341.25,1,95.833,
01/01/2000,01:40:04.51,14.76,-72.47,-988.69,61.25,-656.25,-306.25,1,96.0,
01/01/2000,01:40:04.52,14.88,-72.71,-989.42,210.0,-735.0,-376.25,1,96.154,
01/01/2000,01:40:04.53,14.64,-72.71,-989.91,96.25,-630.0,-428.75,1,96.296,
01/01/2000,01:40:04.54,14.88,-72.59,-990.15,148.75,-700.0,-315.0,1,96.429,
01/01/2000,01:40:04.56,14.88,-72.47,-990.64,253.75,-665.0,-358.75,1,96.552,
01/01/2000,01:40:04.57,15.01,-72.71,-991.01,122.50,-743.75,-332.50,1,96.667,
01/01/2000,01:40:04.58,15.01,-72.71,-991.13,192.50,-647.50,-315.0,1,96.774,
01/01/2000,01:40:04.59,14.88,-72.83,-991.25,192.50,-665.0,-218.75,1,96.875,
01/01/2000,01:40:04.60,14.76,-72.96,-991.37,43.75,-621.25,-367.50,1,96.970,
01/01/2000,01:40:04.61,14.76,-72.83,-991.62,148.75,-621.25,-271.25,1,97.059,
01/01/2000,01:40:04.62,14.88,-72.71,-991.86,96.25,-735.0,-341.25,1,97.143,
01/01/2000,01:40:04.63,15.01,-72.83,-992.10,122.50,-638.75,-306.25,1,97.222,
01/01/2000,01:40:04.64,15.01,-72.96,-992.35,0.0,-577.50,-411.25,1,97.297,
01/01/2000,01:40:04.65,15.01,-73.08,-992.23,140.0,-682.50,-376.25,1,97.368,
01/01/2000,01:40:04.66,14.88,-72.96,-992.23,183.75,-673.75,-411.25,1,97.436,
01/01/2000,01:40:04.67,14.76,-72.83,-992.35,148.75,-682.50,-306.25,1,97.500,
01/01/2000,01:40:04.68,14.64,-72.71,-992.35,227.50,-647.50,-411.25,1,97.561,
01/01/2000,01:40:04.69,14.52,-72.71,-992.23,140.0,-822.50,-323.75,1,95.349,
01/01/2000,01:40:04.71,14.64,-72.96,-992.23,218.75,-717.50,-393.75,1,95.455,
01/01/2000,01:40:04.71,14.76,-72.83,-992.35,183.75,-717.50,-323.75,1,95.556,
01/01/2000,01:40:04.73,14.88,-72.83,-992.35,35.0,-743.75,-315.0,1,95.652,
01/01/2000,01:40:04.74,14.88,-72.71,-992.35,148.75,-726.25,-306.25,1,95.745,
01/01/2000,01:40:04.75,14.76,-72.71,-992.35,192.50,-673.75,-358.75,1,95.833,
01/01/2000,01:40:04.76,14.88,-72.59,-992.35,201.25,-682.50,-446.25,1,95.918,
01/01/2000,01:40:04.77,14.88,-72.59,-992.59,192.50,-822.50,-358.75,1,96.0,
01/01/2000,01:40:04.78,14.88,-72.71,-992.59,105.0,-621.25,-341.25,1,96.078,
01/01/2000,01:40:04.79,14.76,-72.96,-992.47,262.50,-691.25,-271.25,1,94.340,
01/01/2000,01:40:04.80,14.88,-72.83,-992.35,87.50,-717.50,-323.75,1,94.444,
01/01/2000,01:40:04.81,14.88,-72.71,-992.35,87.50,-761.25,-280.0,1,94.545,
01/01/2000,01:40:04.82,14.64,-72.83,-992.35,271.25,-647.50,-315.0,1,94.643,
01/01/2000,01:40:04.84,14.64,-72.83,-992.23,96.25,-813.75,-315.0,1,94.737,
01/01/2000,01:40:04.85,14.76,-72.96,-992.35,227.50,-717.50,-428.75,1,94.828,
01/01/2000,01:40:04.86,14.88,-72.83,-992.35,166.25,-612.50,-297.50,1,94.915,
01/01/2000,01:40:04.87,14.88,-72.96,-992.35,157.50,-708.75,-280.0,1,95.0,
01/01/2000,01:40:04.88,14.64,-72.83,-992.23,157.50,-700.0,-280.0,1,95.082,
01/01/2000,01:40:04.89,14.76,-72.96,-992.23,201.25,-612.50,-385.0,1,95.161,
01/01/2000,01:40:04.90,14.76,-72.96,-992.23,96.25,-761.25,-332.50,1,95.238,
01/01/2000,01:40:04.91,14.64,-72.96,-992.35,87.50,-752.50,-341.25,1,95.313,
01/01/2000,01:40:04.92,14.64,-73.08,-992.23,245.0,-665.0,-332.50,1,95.385,
01/01/2000,01:40:04.93,14.52,-73.20,-992.10,78.75,-752.50,-297.50,1,95.455,
01/01/2000,01:40:04.94,14.64,-73.20,-991.98,183.75,-630.0,-297.50,1,95.522,
01/01/2000,01:40:04.95,14.76,-73.20,-992.10,166.25,-630.0,-341.25,1,95.588,
01/01/2000,01:40:04.96,14.76,-72.96,-992.35,96.25,-621.25,-341.25,1,95.652,
01/01/2000,01:40:04.97,14.88,-72.96,-992.35,96.25,-673.75,-367.50,1,95.714,
01/01/2000,01:40:04.98,14.88,-73.08,-992.10,210.0,-647.50,-210.0,1,95.775,
01/01/2000,01:40:04.99,14.88,-73.08,-992.10,201.25,-673.75,-455.0,1,95.833,
01/01/2000,01:40:05.00,14.88,-72.96,-992.10,201.25,-673.75,-402.50,1,95.890,
01/01/2000,01:40:05.01,14.88,-72.71,-992.35,148.75,-673.75,-341.25,1,95.946,
01/01/2000,01:40:05.02,14.88,-72.71,-992.23,105.0,-752.50,-376.25,1,96.0,
01/01/2000,01:40:05.03,14.88,-72.83,-992.23,157.50,-656.25,-245.0,1,96.053,
01/01/2000,01:40:05.05,14.88,-73.20,-992.35,245.0,-726.25,-385.0,1,94.872,
01/01/2000,01:40:05.06,14.88,-72.96,-992.59,78.75,-595.0,-385.0,1,94.937,
01/01/2000,01:40:05.07,14.88,-72.96,-992.59,157.50,-673.75,-332.50,1,95.0,
01/01/2000,01:40:05.08,14.76,-72.83,-992.47,192.50,-656.25,-306.25,1,95.062,
01/01/2000,01:40:05.09,14.88,-72.96,-992.59,87.50,-542.50,-306.25,1,95.122,
01/01/2000,01:40:05.10,14.88,-72.96,-992.59,192.50,-647.50,-411.25,1,95.181,
01/01/2000,01:40:05.11,15.01,-72.96,-992.59,175.0,-717.50,-358.75,1,95.238,
01/01/2000,01:40:05.12,15.13,-72.71,-992.71,96.25,-682.50,-350.0,1,95.294,
01/01/2000,01:40:05.13,15.01,-72.96,-992.59,253.75,-805.0,-350.0,1,95.349,
01/01/2000,01:40:05.14,14.88,-72.83,-992.59,70.0,-735.0,-315.0,1,95.402,
01/01/2000,01:40:05.15,14.76,-72.96,-992.59,175.0,-708.75,-393.75,1,95.455,
01/01/2000,01:40:05.16,14.76,-72.96,-992.47,131.25,-647.50,-385.0,1,95.506,
01/01/2000,01:40:05.17,14.88,-72.96,-992.59,175.0,-656.25,-385.0,1,95.556,
01/01/2000,01:40:05.18,14.88,-72.83,-992.59,35.0,-752.50,-332.50,1,95.604,
01/01/2000,01:40:05.19,14.76,-73.08,-992.10,341.25,-647.50,-288.75,1,94.624,
01/01/2000,01:40:05.20,14.76,-73.20,-992.23,122.50,-726.25,-306.25,1,94.681,
01/01/2000,01:40:05.21,14.76,-73.08,-992.35,183.75,-708.75,-367.50,1,94.737,
01/01/2000,01:40:05.22,15.01,-72.96,-992.47,-35.0,-682.50,-341.25,1,94.792,
01/01/2000,01:40:05.23,14.88,-72.96,-992.47,140.0,-673.75,-358.75,1,94.845,
01/01/2000,01:40:05.24,14.88,-72.96,-992.23,166.25,-656.25,-315.0,1,94.898,
01/01/2000,01:40:05.26,14.64,-73.08,-992.35,166.25,-743.75,-393.75,1,94.949,
01/01/2000,01:40:05.27,14.64,-72.83,-992.47,113.75,-770.0,-297.50,1,95.0,
01/01/2000,01:40:05.28,14.76,-72.71,-992.35,157.50,-752.50,-323.75,1,95.050,
01/01/2000,01:40:05.29,14.64,-72.83,-992.23,192.50,-665.0,-315.0,1,95.098,
01/01/2000,01:40:05.30,14.76,-72.83,-992.23,166.25,-761.25,-341.25,1,95.146,
01/01/2000,01:40:05.31,14.88,-72.59,-992.35,262.50,-717.50,-297.50,1,94.286,
01/01/2000,01:40:05.32,14.88,-72.59,-992.59,131.25,-717.50,-306.25,1,94.340,
01/01/2000,01:40:05.33,14.88,-72.71,-992.71,262.50,-726.25,-288.75,1,94.393,
01/01/2000,01:40:05.34,14.88,-72.71,-992.59,131.25,-743.75,-350.0,1,94.444,
01/01/2000,01:40:05.35,15.13,-72.83,-992.59,175.0,-630.0,-411.25,1,94.495,
01/01/2000,01:40:05.36,15.25,-72.83,-992.84,175.0,-708.75,-210.0,1,94.545,
01/01/2000,01:40:05.37,15.25,-72.96,-992.84,166.25,-761.25,-350.0,1,94.595,
01/01/2000,01:40:05.38,15.13,-73.08,-992.47,166.25,-735.0,-262.50,1,94.643,
01/01/2000,01:40:05.39,15.25,-73.08,-992.47,183.75,-665.0,-437.50,1,94.690,
01/01/2000,01:40:05.41,15.13,-72.96,-992.47,131.25,-761.25,-315.0,1,94.737,
01/01/2000,01:40:05.42,15.37,-73.20,-992.47,166.25,-761.25,-280.0,1,94.783,
01/01/2000,01:40:05.43,15.37,-73.08,-992.47,-35.0,-656.25,-350.0,1,94.828,
01/01/2000,01:40:05.44,15.25,-73.20,-992.35,157.50,-647.50,-175.0,1,94.872,
01/01/2000,01:40:05.45,15.13,-72.96,-992.35,70.0,-638.75,-306.25,1,94.915,
01/01/2000,01:40:05.46,15.01,-72.96,-992.35,175.0,-656.25,-350.0,1,94.958,
01/01/2000,01:40:05.47,15.01,-72.96,-992.47,192.50,-708.75,-393.75,1,95.0,
01/01/2000,01:40:05.48,15.01,-72.96,-992.47,105.0,-647.50,-437.50,1,95.041,
01/01/2000,01:40:05.49,15.01,-72.96,-992.35,192.50,-743.75,-315.0,1,95.082,
01/01/2000,01:40:05.50,15.01,-73.20,-992.35,96.25,-595.0,-358.75,1,95.122,
01/01/2000,01:40:05.51,15.01,-72.96,-992.59,78.75,-682.50,-280.0,1,95.161,
01/01/2000,01:40:05.52,15.13,-72.96,-992.84,218.75,-743.75,-367.50,1,95.200,
01/01/2000,01:40:05.53,14.88,-73.08,-992.84,87.50,-770.0,-227.50,1,95.238,
01/01/2000,01:40:05.54,14.64,-73.20,-992.71,201.25,-682.50,-315.0,1,94.531,
01/01/2000,01:40:05.55,14.88,-72.96,-992.71,192.50,-708.75,-402.50,1,94.574,
01/01/2000,01:40:05.56,14.88,-72.83,-992.59,148.75,-665.0,-341.25,1,94.615,
01/01/2000,01:40:05.57,14.88,-72.96,-992.71,192.50,-586.25,-175.0,1,94.656,
01/01/2000,01:40:05.58,14.64,-73.20,-992.47,140.0,-770.0,-288.75,1,94.697,
01/01/2000,01:40:05.59,14.52,-73.20,-992.35,262.50,-612.50,-350.0,1,94.737,
01/01/2000,01:40:05.60,14.64,-73.08,-992.47,96.25,-787.50,-376.25,1,94.776,
01/01/2000,01:40:05.62,14.64,-72.96,-992.71,78.75,-603.75,-306.25,1,94.815,
01/01/2000,01:40:05.63,14.64,-72.96,-992.59,122.50,-726.25,-288.75,1,94.853,
01/01/2000,01:40:05.64,14.64,-73.08,-992.59,175.0,-805.0,-385.0,1,94.891,
01/01/2000,01:40:05.65,14.52,-72.96,-992.47,61.25,-630.0,-323.75,1,94.928,
01/01/2000,01:40:05.66,14.64,-73.08,-992.47,105.0,-743.75,-455.0,1,94.964,
01/01/2000,01:40:05.67,14.64,-72.71,-992.35,175.0,-708.75,-288.75,1,95.0,
01/01/2000,01:40:05.68,14.88,-72.71,-992.23,175.0,-752.50,-280.0,1,95.035,
01/01/2000,01:40:05.69,14.64,-72.83,-992.10,218.75,-691.25,-227.50,1,95.070,
01/01/2000,01:40:05.70,14.64,-73.08,-992.10,166.25,-735.0,-376.25,1,95.105,
01/01/2000,01:40:05.71,14.88,-72.96,-992.10,96.25,-717.50,-280.0,1,95.139,
01/01/2000,01:40:05.72,14.88,-72.83,-992.23,140.0,-726.25,-332.50,1,95.172,
01/01/2000,01:40:05.73,15.01,-72.96,-992.10,201.25,-700.0,-332.50,1,95.205,
01/01/2000,01:40:05.74,14.88,-73.08,-992.10,157.50,-700.0,-367.50,1,95.238,
01/01/2000,01:40:05.76,14.76,-73.20,-992.35,96.25,-656.25,-332.50,1,94.631,
01/01/2000,01:40:05.77,14.88,-73.20,-992.59,52.50,-691.25,-183.75,1,94.667,
01/01/2000,01:40:05.78,15.01,-73.20,-992.47,113.75,-700.0,-262.50,1,94.702,
01/01/2000,01:40:05.79,14.88,-73.08,-992.35,236.25,-691.25,-315.0,1,94.737,
01/01/2000,01:40:05.80,14.76,-73.20,-992.35,122.50,-568.75,-332.50,1,94.771,
01/01/2000,01:40:05.81,14.88,-73.32,-992.47,227.50,-691.25,-306.25,1,94.805,
01/01/2000,01:40:05.82,14.88,-73.20,-992.59,175.0,-735.0,-192.50,1,94.839,
01/01/2000,01:40:05.83,14.88,-73.20,-992.47,70.0,-752.50,-332.50,1,94.872,
01/01/2000,01:40:05.84,14.88,-73.20,-992.10,245.0,-691.25,-297.50,1,94.304,
01/01/2000,01:40:05.85,14.88,-72.96,-992.23,96.25,-630.0,-455.0,1,94.340,
01/01/2000,01:40:05.86,14.88,-72.96,-992.23,183.75,-708.75,-350.0,1,94.375,
01/01/2000,01:40:05.87,14.88,-72.96,-992.35,96.25,-743.75,-350.0,1,94.410,
01/01/2000,01:40:05.88,14.76,-72.83,-992.23,131.25,-708.75,-358.75,1,94.444,
01/01/2000,01:40:05.89,14.76,-72.83,-992.10,8.75,-673.75,-367.50,1,94.479,
01/01/2000,01:40:05.90,14.64,-72.71,-992.10,148.75,-630.0,-297.50,1,94.512,
01/01/2000,01:40:05.91,14.88,-72.59,-992.10,96.25,-717.50,-280.0,1,94.545,
01/01/2000,01:40:05.92,14.88,-72.83,-992.35,253.75,-630.0,-341.25,1,94.578,
01/01/2000,01:40:05.93,14.88,-72.83,-992.23,61.25,-700.0,-376.25,1,94.611,
01/01/2000,01:40:05.94,14.88,-72.83,-992.23,227.50,-717.50,-245.0,1,94.643,
01/01/2000,01:40:05.95,14.88,-72.71,-992.35,218.75,-708.75,-332.50,1,94.675,
01/01/2000,01:40:05.97,14.88,-72.83,-992.35,131.25,-691.25,-402.50,1,94.706,
01/01/2000,01:40:05.98,14.76,-72.96,-992.35,218.75,-665.0,-420.0,1,94.737,
01/01/2000,01:40:05.99,14.64,-72.96,-992.47,140.0,-682.50,-323.75,1,94.767,
01/01/2000,01:40:06.00,14.76,-73.08,-992.35,218.75,-673.75,-253.75,1,94.798,
01/01/2000,01:40:06.01,14.76,-73.08,-992.35,113.75,-700.0,-341.25,1,94.828,
01/01/2000,01:40:06.02,14.76,-72.96,-992.35,175.0,-726.25,-332.50,1,94.857,
01/01/2000,01:40:06.03,14.76,-72.96,-992.47,157.50,-656.25,-393.75,1,94.886,
01/01/2000,01:40:06.04,14.88,-72.96,-992.35,122.50,-638.75,-297.50,1,94.915,
01/01/2000,01:40:06.05,14.88,-73.08,-992.35,280.0,-656.25,-332.50,1,94.944,
01/01/2000,01:40:06.06,14.88,-72.96,-992.35,70.0,-700.0,-341.25,1,94.972,
01/01/2000,01:40:06.07,14.88,-72.96,-992.35,140.0,-630.0,-350.0,1,95.0,
01/01/2000,01:40:06.08,14.88,-72.96,-992.35,140.0,-735.0,-323.75,1,95.028,
01/01/2000,01:40:06.09,14.76,-73.20,-992.23,122.50,-673.75,-385.0,1,95.055,
01/01/2000,01:40:06.10,14.64,-73.08,-992.35,175.0,-735.0,-280.0,1,94.565,
01/01/2000,01:40:06.11,14.76,-72.96,-992.23,175.0,-630.0,-341.25,1,94.595,
01/01/2000,01:40:06.12,14.64,-72.96,-992.35,183.75,-586.25,-315.0,1,94.624,
01/01/2000,01:40:06.13,14.64,-72.96,-992.23,166.25,-673.75,-376.25,1,94.652,
01/01/2000,01:40:06.14,14.64,-73.08,-992.35,96.25,-595.0,-288.75,1,94.681,
01/01/2000,01:40:06.15,14.64,-72.96,-992.35,52.50,-805.0,-315.0,1,94.709,
01/01/2000,01:40:06.16,14.52,-72.96,-992.35,227.50,-700.0,-297.50,1,94.737,
01/01/2000,01:40:06.18,14.64,-72.71,-992.47,210.0,-656.25,-315.0,1,94.764,
01/01/2000,01:40:06.19,14.76,-72.83,-992.47,210.0,-673.75,-358.75,1,94.792,
01/01/2000,01:40:06.20,14.64,-72.96,-992.59,78.75,-673.75,-297.50,1,94.819,
01/01/2000,01:40:06.21,14.76,-72.96,-992.59,245.0,-682.50,-411.25,1,94.845,
01/01/2000,01:40:06.22,14.88,-72.96,-992.47,245.0,-630.0,-350.0,1,94.872,
01/01/2000,01:40:06.23,14.76,-72.71,-992.35,201.25,-708.75,-253.75,1,94.898,
01/01/2000,01:40:06.24,14.88,-72.83,-992.35,78.75,-708.75,-280.0,1,94.924,
01/01/2000,01:40:06.25,14.76,-72.96,-992.35,210.0,-717.50,-280.0,1,94.949,
01/01/2000,01:40:06.26,14.88,-72.83,-992.35,131.25,-656.25,-367.50,1,94.975,
01/01/2000,01:40:06.27,14.88,-72.96,-992.23,288.75,-770.0,-271.25,1,95.0,
01/01/2000,01:40:06.28,14.88,-72.96,-992.10,87.50,-647.50,-175.0,1,95.025,
01/01/2000,01:40:06.29,14.76,-72.96,-991.98,166.25,-691.25,-385.0,1,95.050,
01/01/2000,01:40:06.30,14.76,-72.96,-992.10,210.0,-673.75,-297.50,1,95.074,
01/01/2000,01:40:06.32,14.88,-72.96,-991.98,227.50,-717.50,-306.25,1,94.634,
01/01/2000,01:40:06.33,14.88,-72.83,-991.86,122.50,-866.25,-280.0,1,94.660,
01/01/2000,01:40:06.34,14.88,-73.08,-991.74,245.0,-551.25,-367.50,1,94.686,
01/01/2000,01:40:06.35,15.13,-72.96,-991.74,175.0,-822.50,-411.25,1,94.712,
01/01/2000,01:40:06.36,15.13,-72.83,-991.86,131.25,-656.25,-472.50,1,94.737,
01/01/2000,01:40:06.37,15.01,-72.71,-991.98,122.50,-673.75,-227.50,1,94.762,
01/01/2000,01:40:06.38,14.88,-72.47,-991.98,183.75,-796.25,-332.50,1,94.787,
01/01/2000,01:40:06.39,14.88,-72.59,-991.86,192.50,-743.75,-315.0,1,94.366,
01/01/2000,01:40:06.40,14.88,-72.59,-991.86,43.75,-682.50,-306.25,1,94.393,
01/01/2000,01:40:06.41,14.88,-72.71,-992.10,306.25,-726.25,-385.0,1,94.419,
01/01/2000,01:40:06.42,14.88,-72.71,-991.86,245.0,-691.25,-393.75,1,94.444,
01/01/2000,01:40:06.43,14.76,-72.71,-991.86,218.75,-700.0,-236.25,1,94.470,
01/01/2000,01:40:06.44,14.76,-72.71,-991.86,183.75,-682.50,-411.25,1,94.495,
01/01/2000,01:40:06.45,14.76,-72.71,-991.86,175.0,-717.50,-332.50,1,94.521,
01/01/2000,01:40:06.46,14.88,-72.71,-991.86,218.75,-822.50,-385.0,1,94.545,
01/01/2000,01:40:06.47,14.88,-72.71,-991.86,113.75,-673.75,-341.25,1,94.570,
01/01/2000,01:40:06.48,14.76,-72.71,-991.98,201.25,-770.0,-306.25,1,94.595,
01/01/2000,01:40:06.49,14.88,-72.59,-991.98,280.0,-490.0,-227.50,1,94.619,
01/01/2000,01:40:06.50,14.88,-72.71,-991.98,192.50,-647.50,-210.0,1,94.643,
01/01/2000,01:40:06.51,14.88,-72.71,-991.86,78.75,-717.50,-341.25,1,94.667,
01/01/2000,01:40:06.53,14.88,-72.83,-991.86,218.75,-717.50,-376.25,1,94.690,
01/01/2000,01:40:06.54,14.88,-72.83,-991.86,78.75,-770.0,-323.75,1,94.714,
01/01/2000,01:40:06.55,14.88,-72.96,-991.62,140.0,-665.0,-271.25,1,94.737,
01/01/2000,01:40:06.56,14.88,-72.96,-991.74,192.50,-717.50,-297.50,1,94.760,
01/01/2000,01:40:06.57,14.88,-72.96,-991.98,210.0,-752.50,-376.25,1,94.783,
01/01/2000,01:40:06.58,14.76,-73.08,-992.10,201.25,-665.0,-332.50,1,94.805,
01/01/2000,01:40:06.59,14.76,-73.08,-992.10,70.0,-717.50,-367.50,1,94.828,
01/01/2000,01:40:06.60,14.52,-73.08,-992.23,201.25,-682.50,-385.0,1,94.444,
01/01/2000,01:40:06.61,14.40,-73.32,-992.23,218.75,-665.0,-393.75,1,94.468,
01/01/2000,01:40:06.62,14.76,-72.83,-992.35,-78.75,-761.25,-192.50,1,94.492,
01/01/2000,01:40:06.63,14.64,-72.96,-992.23,288.75,-656.25,-306.25,1,94.515,
01/01/2000,01:40:06.64,14.15,-73.20,-992.35,43.75,-743.75,-192.50,1,94.538,
01/01/2000,01:40:06.65,14.03,-73.20,-992.35,175.0,-682.50,-428.75,1,94.561,
01/01/2000,01:40:06.66,14.27,-73.20,-992.47,358.75,-665.0,-297.50,1,94.583,
01/01/2000,01:40:06.68,14.52,-72.59,-992.59,105.0,-700.0,-157.50,1,94.606,
01/01/2000,01:40:06.69,14.40,-72.96,-992.23,183.75,-682.50,-428.75,1,94.628,
01/01/2000,01:40:06.70,14.27,-73.20,-992.10,140.0,-743.75,-245.0,1,94.650,
01/01/2000,01:40:06.71,14.27,-73.20,-992.23,183.75,-735.0,-481.25,1,94.672,
01/01/2000,01:40:06.72,14.27,-73.20,-992.59,210.0,-665.0,-271.25,1,94.694,
01/01/2000,01:40:06.73,14.15,-72.96,-992.35,26.25,-665.0,-420.0,1,94.715,
01/01/2000,01:40:06.74,14.40,-72.96,-992.10,262.50,-612.50,-411.25,1,94.737,
01/01/2000,01:40:06.75,14.27,-73.08,-991.98,192.50,-638.75,-341.25,1,94.758,
01/01/2000,01:40:06.76,14.52,-73.20,-992.10,236.25,-717.50,-498.75,1,94.779,
01/01/2000,01:40:06.77,14.64,-73.20,-992.23,122.50,-717.50,-306.25,1,94.800,
01/01/2000,01:40:06.78,14.64,-73.08,-992.35,61.25,-735.0,-385.0,1,94.821,
01/01/2000,01:40:06.79,14.64,-73.20,-991.98,262.50,-612.50,-271.25,1,94.841,
01/01/2000,01:40:06.80,14.64,-72.96,-991.86,175.0,-665.0,-315.0,1,94.862,
01/01/2000,01:40:06.81,14.76,-73.08,-992.10,78.75,-603.75,-376.25,1,94.510,
01/01/2000,01:40:06.82,14.64,-73.20,-992.10,210.0,-647.50,-393.75,1,94.531,
01/01/2000,01:40:06.84,14.64,-72.96,-992.10,157.50,-787.50,-271.25,1,94.553,
01/01/2000,01:40:06.85,14.64,-72.96,-991.86,245.0,-778.75,-297.50,1,94.574,
01/01/2000,01:40:06.86,14.64,-72.96,-991.98,236.25,-621.25,-341.25,1,94.595,
01/01/2000,01:40:06.87,14.76,-72.96,-992.10,131.25,-612.50,-315.0,1,94.615,
01/01/2000,01:40:06.88,14.88,-72.96,-992.23,183.75,-621.25,-306.25,1,94.636,
01/01/2000,01:40:06.89,14.88,-73.20,-992.10,157.50,-735.0,-323.75,1,94.656,
01/01/2000,01:40:06.90,14.88,-73.20,-992.10,113.75,-656.25,-288.75,1,94.677,
01/01/2000,01:40:06.91,14.88,-73.08,-992.10,227.50,-770.0,-341.25,1,94.697,
01/01/2000,01:40:06.92,15.01,-72.96,-992.35,105.0,-673.75,-323.75,1,94.717,
01/01/2000,01:40:06.93,14.88,-73.08,-992.47,140.0,-568.75,-341.25,1,94.737,
01/01/2000,01:40:06.94,14.88,-73.20,-992.59,157.50,-533.75,-271.25,1,94.757,
01/01/2000,01:40:06.95,14.88,-73.20,-992.35,245.0,-708.75,-446.25,1,94.424,
01/01/2000,01:40:06.96,14.88,-72.96,-992.10,148.75,-778.75,-315.0,1,94.444,
01/01/2000,01:40:06.97,14.88,-72.96,-992.23,227.50,-708.75,-385.0,1,94.465,
01/01/2000,01:40:06.98,14.76,-72.83,-992.59,70.0,-787.50,-297.50,1,94.485,
01/01/2000,01:40:06.99,14.76,-72.96,-992.59,245.0,-542.50,-227.50,1,94.505,
01/01/2000,01:40:07.00,14.64,-72.96,-992.35,113.75,-761.25,-306.25,1,94.526,
01/01/2000,01:40:07.01,14.64,-72.96,-992.10,-35.0,-708.75,-306.25,1,94.545,
01/01/2000,01:40:07.02,14.64,-72.83,-992.10,148.75,-743.75,-428.75,1,94.565,
01/01/2000,01:40:07.03,14.64,-72.71,-992.23,183.75,-822.50,-253.75,1,94.585,
01/01/2000,01:40:07.04,14.52,-72.83,-992.23,61.25,-700.0,-262.50,1,94.604,
01/01/2000,01:40:07.05,14.52,-72.96,-992.23,166.25,-743.75,-358.75,1,94.624,
01/01/2000,01:40:07.06,14.64,-72.83,-992.23,78.75,-682.50,-341.25,1,94.643,
01/01/2000,01:40:07.07,14.64,-72.71,-992.35,70.0,-700.0,-271.25,1,94.662,
01/01/2000,01:40:07.09,14.64,-72.83,-992.10,131.25,-726.25,-376.25,1,94.681,
01/01/2000,01:40:07.10,14.64,-72.96,-991.98,210.0,-682.50,-315.0,1,94.700,
01/01/2000,01:40:07.11,14.64,-72.71,-992.10,157.50,-726.25,-358.75,1,94.718,
01/01/2000,01:40:07.12,14.64,-72.71,-992.35,70.0,-717.50,-315.0,1,94.737,
01/01/2000,01:40:07.13,14.76,-72.71,-992.23,105.0,-700.0,-472.50,1,94.755,
01/01/2000,01:40:07.14,14.76,-72.59,-991.98,122.50,-726.25,-332.50,1,94.774,
01/01/2000,01:40:07.15,14.64,-72.71,-991.86,148.75,-665.0,-428.75,1,94.792,
01/01/2000,01:40:07.16,14.76,-72.96,-992.10,183.75,-577.50,-297.50,1,94.483,
01/01/2000,01:40:07.17,14.76,-72.71,-992.35,131.25,-717.50,-262.50,1,94.828,
01/01/2000,01:40:07.18,14.76,-72.83,-992.10,-17.50,-743.75,-367.50,1,94.521,
01/01/2000,01:40:07.19,14.64,-72.71,-992.10,166.25,-761.25,-271.25,1,94.539,
01/01/2000,01:40:07.20,14.64,-72.83,-992.10,113.75,-796.25,-280.0,1,94.558,
01/01/2000,01:40:07.21,14.88,-73.08,-992.10,271.25,-717.50,-376.25,1,94.576,
01/01/2000,01:40:07.22,14.88,-72.96,-992.10,148.75,-621.25,-271.25,1,94.595,
01/01/2000,01:40:07.24,14.88,-72.83,-992.10,175.0,-682.50,-245.0,1,94.613,
01/01/2000,01:40:07.25,14.76,-72.96,-991.98,271.25,-691.25,-332.50,1,94.631,
01/01/2000,01:40:07.26,14.64,-72.71,-992.10,96.25,-665.0,-306.25,1,94.649,
01/01/2000,01:40:07.27,14.76,-72.96,-992.10,201.25,-595.0,-288.75,1,94.667,
01/01/2000,01:40:07.28,14.76,-72.83,-991.86,218.75,-700.0,-341.25,1,94.684,
01/01/2000,01:40:07.29,14.64,-73.08,-991.98,166.25,-708.75,-411.25,1,94.702,
01/01/2000,01:40:07.30,14.64,-72.96,-991.86,140.0,-717.50,-358.75,1,94.719,
01/01/2000,01:40:07.31,14.64,-72.96,-991.86,87.50,-796.25,-323.75,1,94.737,
01/01/2000,01:40:07.32,14.64,-72.96,-991.98,183.75,-717.50,-437.50,1,94.754,
01/01/2000,01:40:07.33,14.52,-73.08,-992.10,96.25,-743.75,-236.25,1,94.771,
01/01/2000,01:40:07.34,14.64,-73.08,-991.86,175.0,-665.0,-245.0,1,94.481,
01/01/2000,01:40:07.35,14.64,-73.20,-991.98,341.25,-673.75,-350.0,1,94.498,
01/01/2000,01:40:07.37,14.76,-72.96,-992.10,280.0,-691.25,-332.50,1,94.516,
01/01/2000,01:40:07.38,14.88,-72.71,-992.10,70.0,-770.0,-253.75,1,94.534,
01/01/2000,01:40:07.39,14.76,-73.08,-991.98,105.0,-656.25,-245.0,1,94.551,
01/01/2000,01:40:07.40,14.88,-73.08,-991.86,122.50,-726.25,-463.75,1,94.569,
01/01/2000,01:40:07.41,14.88,-73.08,-991.86,175.0,-656.25,-297.50,1,94.586,
01/01/2000,01:40:07.42,14.88,-72.71,-991.86,96.25,-735.0,-227.50,1,94.603,
01/01/2000,01:40:07.43,14.88,-72.71,-991.86,78.75,-682.50,-367.50,1,94.620,
01/01/2000,01:40:07.44,14.88,-72.71,-991.86,-17.50,-761.25,-262.50,1,94.637,
01/01/2000,01:40:07.45,14.64,-72.96,-991.86,105.0,-665.0,-341.25,1,94.654,
01/01/2000,01:40:07.46,14.76,-72.83,-991.86,131.25,-796.25,-315.0,1,94.671,
01/01/2000,01:40:07.47,14.88,-73.08,-991.86,201.25,-708.75,-350.0,1,94.688,
01/01/2000,01:40:07.48,14.88,-72.83,-991.98,61.25,-708.75,-201.25,1,94.704,
01/01/2000,01:40:07.49,14.88,-73.08,-991.98,280.0,-796.25,-332.50,1,94.720,
01/01/2000,01:40:07.50,14.76,-73.20,-991.86,218.75,-717.50,-385.0,1,94.737,
01/01/2000,01:40:07.51,14.88,-73.08,-991.86,113.75,-752.50,-323.75,1,94.462,
01/01/2000,01:40:07.52,14.88,-73.08,-991.86,306.25,-630.0,-455.0,1,94.479,
01/01/2000,01:40:07.53,14.88,-73.08,-991.86,87.50,-813.75,-323.75,1,94.495,
01/01/2000,01:40:07.54,14.88,-73.08,-991.74,210.0,-770.0,-385.0,1,94.512,
01/01/2000,01:40:07.55,14.88,-72.96,-991.98,70.0,-656.25,-288.75,1,94.529,
01/01/2000,01:40:07.56,15.01,-72.96,-992.10,262.50,-708.75,-323.75,1,94.545,
01/01/2000,01:40:07.57,15.01,-72.83,-991.98,192.50,-735.0,-385.0,1,94.562,
01/01/2000,01:40:07.59,14.88,-72.96,-992.10,96.25,-595.0,-306.25,1,94.578,
01/01/2000,01:40:07.60,14.88,-72.96,-992.10,87.50,-665.0,-358.75,1,94.595,
01/01/2000,01:40:07.61,14.88,-72.83,-992.10,113.75,-612.50,-358.75,1,94.611,
01/01/2000,01:40:07.62,14.88,-72.71,-992.10,175.0,-778.75,-323.75,1,94.627,
01/01/2000,01:40:07.63,14.88,-72.59,-991.98,148.75,-656.25,-245.0,1,94.643,
01/01/2000,01:40:07.64,14.88,-72.71,-991.98,96.25,-673.75,-393.75,1,94.659,
01/01/2000,01:40:07.65,14.88,-72.83,-991.98,315.0,-787.50,-411.25,1,94.675,
01/01/2000,01:40:07.66,14.88,-72.71,-991.86,148.75,-682.50,-306.25,1,94.690,
01/01/2000,01:40:07.67,14.88,-72.83,-991.98,210.0,-735.0,-280.0,1,94.706,
01/01/2000,01:40:07.68,14.88,-72.83,-992.10,218.75,-656.25,-358.75,1,94.721,
01/01/2000,01:40:07.69,15.01,-72.83,-992.10,218.75,-761.25,-280.0,1,94.737,
01/01/2000,01:40:07.70,15.01,-72.83,-991.98,122.50,-787.50,-280.0,1,94.752,
01/01/2000,01:40:07.71,15.01,-72.71,-991.86,140.0,-621.25,-350.0,1,94.767,
01/01/2000,01:40:07.72,14.88,-72.59,-991.98,201.25,-595.0,-253.75,1,94.509,
01/01/2000,01:40:07.73,14.88,-72.71,-991.86,210.0,-673.75,-341.25,1,94.524,
01/01/2000,01:40:07.74,14.88,-72.71,-991.86,175.0,-682.50,-306.25,1,94.540,
01/01/2000,01:40:07.75,14.88,-72.71,-991.98,183.75,-656.25,-288.75,1,94.556,
01/01/2000,01:40:07.76,15.01,-72.83,-991.98,-52.50,-638.75,-262.50,1,94.571,
01/01/2000,01:40:07.77,14.88,-72.71,-991.74,201.25,-673.75,-455.0,1,94.587,
01/01/2000,01:40:07.78,14.88,-72.71,-991.62,61.25,-752.50,-358.75,1,94.602,
01/01/2000,01:40:07.80,14.88,-72.71,-991.74,105.0,-743.75,-315.0,1,94.618,
01/01/2000,01:40:07.81,14.88,-72.83,-991.74,262.50,-778.75,-376.25,1,94.633,
01/01/2000,01:40:07.82,15.01,-72.71,-991.86,105.0,-673.75,-332.50,1,94.648,
01/01/2000,01:40:07.83,15.13,-72.71,-991.74,148.75,-700.0,-323.75,1,94.663,
01/01/2000,01:40:07.84,15.01,-72.71,-991.62,183.75,-743.75,-341.25,1,94.678,
01/01/2000,01:40:07.85,14.88,-72.59,-991.74,210.0,-717.50,-288.75,1,94.429,
01/01/2000,01:40:07.86,14.88,-72.47,-991.86,105.0,-612.50,-253.75,1,94.444,
01/01/2000,01:40:07.87,15.01,-72.71,-991.86,105.0,-691.25,-358.75,1,94.460,
01/01/2000,01:40:07.89,14.88,-72.71,-991.98,201.25,-691.25,-253.75,1,94.475,
01/01/2000,01:40:07.90,15.01,-72.83,-991.86,201.25,-743.75,-341.25,1,94.490,
01/01/2000,01:40:07.91,15.01,-72.83,-991.74,297.50,-700.0,-393.75,1,94.505,
01/01/2000,01:40:07.92,15.01,-72.71,-991.86,140.0,-726.25,-367.50,1,94.521,
01/01/2000,01:40:07.93,15.01,-72.71,-991.86,183.75,-691.25,-210.0,1,94.536,
01/01/2000,01:40:07.94,14.88,-72.83,-991.86,306.25,-691.25,-288.75,1,94.550,
01/01/2000,01:40:07.95,14.88,-72.83,-991.62,183.75,-612.50,-358.75,1,94.565,
01/01/2000,01:40:07.96,14.64,-72.96,-991.62,175.0,-612.50,-341.25,1,94.580,
01/01/2000,01:40:07.97,14.64,-72.83,-991.86,192.50,-638.75,-227.50,1,94.595,
01/01/2000,01:40:07.98,14.76,-72.83,-991.86,122.50,-682.50,-245.0,1,94.609,
01/01/2000,01:40:07.99,14.64,-72.83,-991.74,61.25,-577.50,-218.75,1,94.624,
01/01/2000,01:40:08.00,14.64,-72.96,-991.49,280.0,-665.0,-393.75,1,94.638,
01/01/2000,01:40:08.01,14.64,-73.08,-991.37,113.75,-743.75,-332.50,1,94.652,
01/01/2000,01:40:08.02,14.76,-72.96,-991.62,166.25,-630.0,-280.0,1,94.667,
01/01/2000,01:40:08.03,14.76,-73.08,-991.49,210.0,-612.50,-323.75,1,94.681,
01/01/2000,01:40:08.04,14.64,-73.08,-991.37,157.50,-743.75,-315.0,1,94.695,
01/01/2000,01:40:08.05,14.76,-73.20,-991.25,236.25,-647.50,-323.75,1,94.709,
01/01/2000,01:40:08.06,14.64,-72.96,-991.37,113.75,-638.75,-411.25,1,94.723,
01/01/2000,01:40:08.07,14.64,-72.71,-991.49,61.25,-673.75,-306.25,1,94.737,
01/01/2000,01:40:08.08,14.64,-72.59,-991.49,192.50,-691.25,-262.50,1,94.751,
01/01/2000,01:40:08.09,14.76,-72.71,-991.37,122.50,-726.25,-393.75,1,94.517,
01/01/2000,01:40:08.10,14.88,-72.59,-991.37,210.0,-682.50,-367.50,1,94.531,
01/01/2000,01:40:08.11,14.88,-72.59,-991.49,175.0,-691.25,-341.25,1,94.545,
01/01/2000,01:40:08.12,14.88,-72.47,-991.49,8.75,-638.75,-393.75,1,94.560,
01/01/2000,01:40:08.13,14.88,-72.59,-991.37,140.0,-568.75,-262.50,1,94.574,
01/01/2000,01:40:08.15,14.88,-72.59,-991.25,140.0,-656.25,-288.75,1,94.588,
01/01/2000,01:40:08.16,15.13,-72.71,-991.37,175.0,-621.25,-315.0,1,94.602,
01/01/2000,01:40:08.17,15.13,-72.71,-991.37,-35.0,-700.0,-297.50,1,94.615,
01/01/2000,01:40:08.18,15.25,-72.71,-991.37,183.75,-726.25,-332.50,1,94.629,
01/01/2000,01:40:08.19,15.13,-72.83,-991.25,157.50,-673.75,-315.0,1,94.643,
01/01/2000,01:40:08.20,15.13,-72.96,-991.25,-17.50,-770.0,-393.75,1,94.656,
01/01/2000,01:40:08.21,15.01,-72.83,-991.37,218.75,-638.75,-332.50,1,94.670,
01/01/2000,01:40:08.22,15.01,-72.71,-991.62,17.50,-708.75,-385.0,1,94.684,
01/01/2000,01:40:08.23,14.88,-72.71,-991.37,192.50,-700.0,-350.0,1,94.697,
01/01/2000,01:40:08.24,14.88,-72.71,-991.37,140.0,-717.50,-376.25,1,94.710,
01/01/2000,01:40:08.25,14.88,-72.71,-991.49,157.50,-673.75,-332.50,1,94.724,
01/01/2000,01:40:08.26,14.88,-72.59,-991.62,140.0,-673.75,-297.50,1,94.737,
01/01/2000,01:40:08.27,14.76,-72.71,-991.62,192.50,-787.50,-280.0,1,94.750,
01/01/2000,01:40:08.28,14.76,-72.71,-991.37,183.75,-673.75,-385.0,1,94.527,
01/01/2000,01:40:08.29,14.76,-72.71,-991.37,288.75,-673.75,-271.25,1,94.541,
01/01/2000,01:40:08.30,14.88,-72.59,-991.25,227.50,-647.50,-271.25,1,94.554,
01/01/2000,01:40:08.31,14.88,-72.59,-991.37,192.50,-665.0,-280.0,1,94.568,
01/01/2000,01:40:08.32,15.01,-72.47,-991.37,96.25,-638.75,-385.0,1,94.581,
01/01/2000,01:40:08.33,14.88,-72.59,-991.37,175.0,-717.50,-288.75,1,94.595,
01/01/2000,01:40:08.34,14.88,-72.59,-991.37,148.75,-673.75,-262.50,1,94.608,
01/01/2000,01:40:08.36,14.88,-72.47,-991.13,262.50,-621.25,-350.0,1,94.390,
01/01/2000,01:40:08.37,14.76,-72.59,-991.37,210.0,-533.75,-446.25,1,94.404,
01/01/2000,01:40:08.38,14.88,-72.59,-991.49,166.25,-630.0,-297.50,1,94.417,
01/01/2000,01:40:08.39,14.88,-72.47,-991.62,122.50,-665.0,-341.25,1,94.431,
01/01/2000,01:40:08.40,15.01,-72.59,-991.37,201.25,-603.75,-376.25,1,94.444,
01/01/2000,01:40:08.41,14.88,-72.59,-991.37,131.25,-665.0,-350.0,1,94.458,
01/01/2000,01:40:08.42,15.01,-72.71,-991.37,210.0,-770.0,-341.25,1,94.471,
01/01/2000,01:40:08.44,15.01,-72.71,-991.37,105.0,-691.25,-420.0,1,94.484,
01/01/2000,01:40:08.45,15.13,-72.71,-991.37,157.50,-656.25,-358.75,1,94.498,
01/01/2000,01:40:08.46,14.88,-72.59,-991.37,166.25,-665.0,-350.0,1,94.511,
01/01/2000,01:40:08.47,14.88,-72.59,-991.25,218.75,-735.0,-420.0,1,94.524,
01/01/2000,01:40:08.48,14.88,-72.59,-991.25,157.50,-647.50,-358.75,1,94.537,
01/01/2000,01:40:08.49,14.88,-72.71,-991.37,175.0,-691.25,-227.50,1,94.550,
01/01/2000,01:40:08.50,14.88,-72.71,-991.37,245.0,-682.50,-402.50,1,94.563,
01/01/2000,01:40:08.51,14.88,-72.71,-991.37,175.0,-726.25,-323.75,1,94.575,
01/01/2000,01:40:08.52,14.76,-72.47,-991.37,201.25,-673.75,-297.50,1,94.588,
01/01/2000,01:40:08.53,14.76,-72.59,-991.25,140.0,-665.0,-315.0,1,94.601,
01/01/2000,01:40:08.54,14.64,-72.47,-991.13,113.75,-778.75,-350.0,1,94.614,
01/01/2000,01:40:08.55,14.88,-72.59,-991.01,131.25,-665.0,-402.50,1,94.626,
01/01/2000,01:40:08.56,14.88,-72.47,-991.13,271.25,-752.50,-306.25,1,94.639,
01/01/2000,01:40:08.57,14.88,-72.35,-991.01,52.50,-638.75,-315.0,1,94.651,
01/01/2000,01:40:08.58,14.76,-72.35,-991.01,218.75,-770.0,-341.25,1,94.664,
01/01/2000,01:40:08.59,14.88,-72.35,-991.01,113.75,-656.25,-367.50,1,94.676,
01/01/2000,01:40:08.60,15.01,-72.47,-991.13,175.0,-787.50,-323.75,1,94.688,
01/01/2000,01:40:08.61,14.88,-72.47,-991.25,96.25,-743.75,-306.25,1,94.700,
01/01/2000,01:40:08.62,14.88,-72.71,-991.25,227.50,-621.25,-393.75,1,94.713,
01/01/2000,01:40:08.63,14.88,-72.59,-991.13,192.50,-770.0,-455.0,1,94.725,
01/01/2000,01:40:08.64,14.88,-72.59,-991.01,122.50,-638.75,-367.50,1,94.521,
01/01/2000,01:40:08.65,14.88,-72.47,-991.13,166.25,-700.0,-367.50,1,94.533,
01/01/2000,01:40:08.66,14.88,-72.59,-991.13,166.25,-796.25,-323.75,1,94.545,
01/01/2000,01:40:08.67,15.01,-72.47,-991.37,201.25,-612.50,-306.25,1,94.558,
01/01/2000,01:40:08.68,15.13,-72.59,-991.37,131.25,-700.0,-420.0,1,94.570,
01/01/2000,01:40:08.69,15.01,-72.47,-991.37,210.0,-647.50,-358.75,1,94.582,
01/01/2000,01:40:08.71,15.01,-72.47,-991.37,166.25,-770.0,-280.0,1,94.595,
01/01/2000,01:40:08.72,14.88,-72.47,-991.25,175.0,-673.75,-253.75,1,94.607,
01/01/2000,01:40:08.73,14.76,-72.59,-991.13,157.50,-638.75,-350.0,1,94.619,
01/01/2000,01:40:08.74,14.88,-72.71,-991.13,236.25,-673.75,-358.75,1,94.631,
01/01/2000,01:40:08.75,14.88,-72.59,-991.13,306.25,-778.75,-288.75,1,94.643,
01/01/2000,01:40:08.76,15.01,-72.59,-991.01,148.75,-726.25,-280.0,1,94.655,
01/01/2000,01:40:08.77,14.88,-72.71,-991.01,166.25,-612.50,-245.0,1,94.667,
01/01/2000,01:40:08.78,14.88,-72.71,-991.13,96.25,-735.0,-420.0,1,94.678,
01/01/2000,01:40:08.79,14.88,-72.47,-991.01,105.0,-717.50,-288.75,1,94.690,
01/01/2000,01:40:08.80,14.88,-72.59,-991.01,183.75,-752.50,-288.75,1,94.702,
01/01/2000,01:40:08.81,14.88,-72.71,-991.13,113.75,-682.50,-367.50,1,94.714,
01/01/2000,01:40:08.82,14.88,-72.71,-991.25,227.50,-726.25,-393.75,1,94.725,
01/01/2000,01:40:08.83,14.88,-72.83,-991.25,70.0,-770.0,-332.50,1,94.737,
01/01/2000,01:40:08.84,14.88,-72.71,-991.37,105.0,-726.25,-315.0,1,94.748,
01/01/2000,01:40:08.85,14.88,-72.59,-991.13,192.50,-761.25,-376.25,1,94.553,
01/01/2000,01:40:08.86,14.76,-72.83,-991.13,131.25,-682.50,-288.75,1,94.565,
01/01/2000,01:40:08.88,14.88,-73.08,-991.37,140.0,-621.25,-367.50,1,94.577,
01/01/2000,01:40:08.89,15.13,-72.96,-991.49,253.75,-778.75,-367.50,1,94.384,
01/01/2000,01:40:08.90,15.01,-73.08,-991.37,218.75,-743.75,-358.75,1,94.397,
01/01/2000,01:40:08.91,15.01,-72.96,-991.37,131.25,-665.0,-323.75,1,94.409,
01/01/2000,01:40:08.92,15.01,-72.96,-991.37,210.0,-630.0,-227.50,1,94.421,
01/01/2000,01:40:08.93,15.01,-73.08,-991.49,210.0,-770.0,-323.75,1,94.433,
01/01/2000,01:40:08.94,14.76,-72.96,-991.62,201.25,-638.75,-323.75,1,94.444,
01/01/2000,01:40:08.95,14.88,-72.83,-991.62,148.75,-656.25,-341.25,1,94.456,
01/01/2000,01:40:08.96,15.13,-72.96,-991.62,218.75,-743.75,-437.50,1,94.468,
01/01/2000,01:40:08.97,15.01,-72.96,-991.49,175.0,-735.0,-253.75,1,94.480,
01/01/2000,01:40:08.98,14.88,-72.96,-991.49,166.25,-743.75,-297.50,1,94.492,
01/01/2000,01:40:09.00,15.13,-72.96,-991.37,201.25,-647.50,-428.75,1,94.503,
01/01/2000,01:40:09.01,15.13,-72.83,-991.37,113.75,-691.25,-288.75,1,94.515,
01/01/2000,01:40:09.02,15.13,-72.83,-991.25,218.75,-735.0,-367.50,1,94.526,
01/01/2000,01:40:09.03,15.13,-72.96,-991.13,166.25,-691.25,-358.75,1,94.538,
01/01/2000,01:40:09.04,15.13,-72.96,-991.13,148.75,-560.0,-315.0,1,94.549,
01/01/2000,01:40:09.05,15.13,-72.83,-991.37,148.75,-621.25,-411.25,1,94.561,
01/01/2000,01:40:09.06,15.13,-72.71,-991.49,131.25,-647.50,-358.75,1,94.572,
01/01/2000,01:40:09.07,14.88,-72.71,-991.25,96.25,-673.75,-280.0,1,94.583,
01/01/2000,01:40:09.08,14.88,-72.71,-991.25,201.25,-708.75,-350.0,1,94.595,
01/01/2000,01:40:09.09,14.88,-72.83,-991.13,192.50,-638.75,-385.0,1,94.606,
01/01/2000,01:40:09.10,14.88,-72.83,-991.25,131.25,-586.25,-341.25,1,94.617,
01/01/2000,01:40:09.11,15.01,-72.83,-991.25,236.25,-656.25,-385.0,1,94.628,
01/01/2000,01:40:09.12,14.40,-73.08,-991.37,96.25,-612.50,-210.0,1,94.639,
01/01/2000,01:40:09.13,14.88,-72.35,-991.13,-148.75,-708.75,-542.50,1,94.456,
01/01/2000,01:40:09.14,15.13,-72.71,-991.13,148.75,-656.25,-332.50,1,94.467,
01/01/2000,01:40:09.15,14.64,-73.20,-991.13,315.0,-770.0,-35.0,1,94.479,
01/01/2000,01:40:09.16,14.52,-72.96,-991.25,-17.50,-735.0,-411.25,1,94.490,
01/01/2000,01:40:09.17,14.64,-72.96,-991.49,253.75,-656.25,-498.75,1,94.501,
01/01/2000,01:40:09.18,14.88,-72.35,-991.62,-96.25,-612.50,-175.0,1,94.512,
01/01/2000,01:40:09.19,14.76,-72.59,-991.37,210.0,-665.0,-280.0,1,94.523,
01/01/2000,01:40:09.21,14.76,-72.71,-991.37,323.75,-717.50,-175.0,1,94.534,
01/01/2000,01:40:09.22,14.88,-73.08,-991.62,-8.75,-656.25,-481.25,1,94.545,
01/01/2000,01:40:09.23,14.88,-72.96,-991.74,201.25,-708.75,-323.75,1,94.556,
01/01/2000,01:40:09.24,14.88,-72.59,-991.74,175.0,-621.25,-481.25,1,94.567,
01/01/2000,01:40:09.25,14.88,-72.47,-991.49,131.25,-761.25,-341.25,1,94.578,
01/01/2000,01:40:09.26,14.64,-72.59,-991.25,131.25,-770.0,-385.0,1,94.589,
01/01/2000,01:40:09.27,14.88,-72.83,-991.25,113.75,-621.25,-507.50,1,94.600,
01/01/2000,01:40:09.28,15.01,-72.96,-991.49,253.75,-498.75,-262.50,1,94.611,
01/01/2000,01:40:09.29,14.88,-72.71,-991.62,210.0,-717.50,-393.75,1,94.622,
01/01/2000,01:40:09.30,14.64,-72.71,-991.37,122.50,-743.75,-315.0,1,94.632,
01/01/2000,01:40:09.31,14.64,-72.59,-991.13,175.0,-630.0,-332.50,1,94.643,
01/01/2000,01:40:09.32,14.64,-72.71,-991.37,122.50,-752.50,-341.25,1,94.653,
01/01/2000,01:40:09.33,14.76,-72.83,-991.62,280.0,-726.25,-393.75,1,94.664,
01/01/2000,01:40:09.35,14.88,-72.96,-991.62,70.0,-700.0,-367.50,1,94.488,
01/01/2000,01:40:09.36,14.76,-72.96,-991.37,341.25,-717.50,-420.0,1,94.499,
01/01/2000,01:40:09.37,14.64,-72.71,-991.37,140.0,-743.75,-420.0,1,94.510,
01/01/2000,01:40:09.38,14.64,-72.59,-991.49,210.0,-726.25,-376.25,1,94.521,
01/01/2000,01:40:09.39,14.64,-72.71,-991.62,297.50,-577.50,-288.75,1,94.531,
01/01/2000,01:40:09.40,14.64,-72.96,-991.49,175.0,-787.50,-376.25,1,94.542,
01/01/2000,01:40:09.41,14.52,-72.96,-991.37,157.50,-673.75,-297.50,1,94.553,
01/01/2000,01:40:09.42,14.52,-72.83,-991.13,210.0,-761.25,-358.75,1,94.380,
01/01/2000,01:40:09.43,14.40,-72.83,-991.25,122.50,-761.25,-332.50,1,94.391,
01/01/2000,01:40:09.44,14.64,-72.96,-991.37,201.25,-621.25,-271.25,1,94.402,
01/01/2000,01:40:09.45,14.64,-73.08,-991.49,166.25,-647.50,-341.25,1,94.412,
01/01/2000,01:40:09.46,14.64,-73.08,-991.13,183.75,-682.50,-376.25,1,94.423,
01/01/2000,01:40:09.47,14.64,-73.08,-991.01,201.25,-682.50,-350.0,1,94.434,
01/01/2000,01:40:09.48,14.64,-73.08,-991.13,323.75,-542.50,-358.75,1,94.444,
01/01/2000,01:40:09.49,14.64,-72.96,-991.37,210.0,-673.75,-367.50,1,94.455,
01/01/2000,01:40:09.50,14.52,-72.96,-991.62,201.25,-717.50,-376.25,1,94.466,
01/01/2000,01:40:09.51,14.64,-73.08,-991.37,52.50,-603.75,-341.25,1,94.476,
01/01/2000,01:40:09.52,14.64,-73.08,-991.37,131.25,-647.50,-323.75,1,94.487,
01/01/2000,01:40:09.53,14.64,-72.96,-991.37,192.50,-612.50,-323.75,1,94.497,
01/01/2000,01:40:09.54,14.64,-73.08,-991.49,166.25,-770.0,-297.50,1,94.508,
01/01/2000,01:40:09.56,14.76,-73.08,-991.49,-17.50,-778.75,-358.75,1,94.518,
01/01/2000,01:40:09.57,14.88,-73.20,-991.37,122.50,-700.0,-420.0,1,94.528,
01/01/2000,01:40:09.58,14.88,-73.08,-991.37,140.0,-647.50,-341.25,1,94.539,
01/01/2000,01:40:09.59,14.88,-72.71,-991.37,166.25,-700.0,-306.25,1,94.549,
01/01/2000,01:40:09.60,14.88,-72.71,-991.37,157.50,-621.25,-323.75,1,94.559,
01/01/2000,01:40:09.61,14.88,-72.71,-991.49,253.75,-603.75,-271.25,1,94.569,
01/01/2000,01:40:09.62,14.88,-72.96,-991.49,96.25,-700.0,-332.50,1,94.579,
01/01/2000,01:40:09.63,14.76,-72.71,-991.49,140.0,-726.25,-358.75,1,94.590,
01/01/2000,01:40:09.64,14.88,-72.71,-991.49,175.0,-665.0,-411.25,1,94.600,
01/01/2000,01:40:09.65,14.88,-72.59,-991.37,245.0,-647.50,-271.25,1,94.610,
01/01/2000,01:40:09.66,14.88,-72.59,-991.49,96.25,-743.75,-306.25,1,94.620,
01/01/2000,01:40:09.67,14.88,-72.83,-991.62,192.50,-787.50,-411.25,1,94.630,
01/01/2000,01:40:09.68,15.01,-72.96,-991.62,166.25,-630.0,-411.25,1,94.640,
01/01/2000,01:40:09.69,15.01,-72.71,-991.74,236.25,-612.50,-323.75,1,94.475,
01/01/2000,01:40:09.70,14.88,-72.71,-991.74,227.50,-621.25,-280.0,1,94.485,
01/01/2000,01:40:09.71,14.88,-72.71,-991.86,122.50,-708.75,-341.25,1,94.495,
01/01/2000,01:40:09.72,14.88,-72.83,-991.86,166.25,-612.50,-385.0,1,94.505,
01/01/2000,01:40:09.73,14.88,-72.83,-991.86,175.0,-656.25,-402.50,1,94.516,
01/01/2000,01:40:09.74,15.01,-72.71,-991.74,210.0,-708.75,-385.0,1,94.526,
01/01/2000,01:40:09.75,14.76,-72.71,-991.62,96.25,-595.0,-402.50,1,94.536,
01/01/2000,01:40:09.77,14.64,-72.71,-991.37,192.50,-822.50,-288.75,1,94.545,
01/01/2000,01:40:09.78,14.64,-72.59,-991.49,131.25,-673.75,-411.25,1,94.555,
01/01/2000,01:40:09.79,14.52,-72.59,-991.62,210.0,-752.50,-428.75,1,94.565,
01/01/2000,01:40:09.80,14.76,-72.71,-991.62,35.0,-682.50,-420.0,1,94.575,
01/01/2000,01:40:09.81,14.64,-72.83,-991.62,183.75,-778.75,-341.25,1,94.585,
01/01/2000,01:40:09.82,14.76,-72.96,-991.74,131.25,-673.75,-507.50,1,94.595,
01/01/2000,01:40:09.83,14.64,-72.83,-991.74,70.0,-603.75,-323.75,1,94.604,
01/01/2000,01:40:09.84,14.76,-72.83,-991.86,306.25,-621.25,-367.50,1,94.614,
01/01/2000,01:40:09.85,14.64,-72.83,-991.86,122.50,-717.50,-271.25,1,94.624,
01/01/2000,01:40:09.86,14.64,-72.96,-991.62,227.50,-595.0,-297.50,1,94.633,
01/01/2000,01:40:09.87,14.64,-72.96,-991.62,210.0,-673.75,-341.25,1,94.643,
01/01/2000,01:40:09.88,14.52,-72.96,-991.62,140.0,-726.25,-376.25,1,94.652,
01/01/2000,01:40:09.89,14.64,-72.83,-991.62,175.0,-621.25,-288.75,1,94.494,
01/01/2000,01:40:09.91,14.52,-72.83,-991.62,148.75,-700.0,-288.75,1,94.504,
01/01/2000,01:40:09.92,14.64,-72.83,-991.62,122.50,-595.0,-367.50,1,94.513,
01/01/2000,01:40:09.93,14.64,-72.83,-991.62,280.0,-603.75,-323.75,1,94.523,
01/01/2000,01:40:09.94,14.76,-72.83,-991.62,26.25,-682.50,-367.50,1,94.533,
01/01/2000,01:40:09.95,14.76,-72.71,-991.62,122.50,-708.75,-323.75,1,94.542,
01/01/2000,01:40:09.96,14.76,-72.71,-991.62,140.0,-717.50,-358.75,1,94.552,
01/01/2000,01:40:09.97,14.64,-72.71,-991.74,236.25,-805.0,-332.50,1,94.561,
01/01/2000,01:40:09.98,14.64,-72.96,-991.74,122.50,-717.50,-323.75,1,94.406,
01/01/2000,01:40:09.99,14.76,-72.83,-991.74,166.25,-682.50,-236.25,1,94.415,
01/01/2000,01:40:10.00,14.88,-72.96,-991.62,262.50,-682.50,-332.50,1,94.425,
01/01/2000,01:40:10.01,14.88,-72.96,-991.62,61.25,-708.75,-288.75,1,94.435,
01/01/2000,01:40:10.02,14.88,-73.08,-991.49,236.25,-708.75,-341.25,1,94.444,
01/01/2000,01:40:10.03,14.88,-72.96,-991.49,227.50,-691.25,-341.25,1,94.454,
01/01/2000,01:40:10.04,15.01,-72.83,-991.62,0.0,-743.75,-350.0,1,94.464,
01/01/2000,01:40:10.05,14.88,-72.71,-991.62,218.75,-770.0,-350.0,1,94.473,
01/01/2000,01:40:10.06,14.88,-72.96,-991.37,280.0,-726.25,-393.75,1,94.483,
01/01/2000,01:40:10.07,14.88,-72.71,-991.13,26.25,-787.50,-341.25,1,94.492,
01/01/2000,01:40:10.08,14.88,-72.83,-991.13,166.25,-700.0,-385.0,1,94.502,
01/01/2000,01:40:10.09,14.88,-72.83,-991.37,183.75,-665.0,-253.75,1,94.511,
01/01/2000,01:40:10.10,14.88,-73.08,-991.37,236.25,-595.0,-358.75,1,94.521,
01/01/2000,01:40:10.12,14.76,-72.96,-991.25,113.75,-612.50,-315.0,1,94.530,
01/01/2000,01:40:10.13,14.64,-73.08,-991.25,113.75,-647.50,-367.50,1,94.539,
01/01/2000,01:40:10.14,14.64,-72.96,-991.37,201.25,-787.50,-350.0,1,94.549,
01/01/2000,01:40:10.15,14.52,-72.96,-991.37,148.75,-743.75,-420.0,1,94.558,
01/01/2000,01:40:10.16,14.52,-72.71,-991.37,183.75,-708.75,-393.75,1,94.567,
01/01/2000,01:40:10.17,14.52,-72.83,-991.37,201.25,-603.75,-323.75,1,94.576,
01/01/2000,01:40:10.18,14.64,-72.83,-991.37,70.0,-691.25,-358.75,1,94.585,
01/01/2000,01:40:10.19,14.52,-72.83,-991.37,148.75,-735.0,-393.75,1,94.595,
01/01/2000,01:40:10.20,14.64,-72.71,-991.49,78.75,-665.0,-306.25,1,94.604,
01/01/2000,01:40:10.21,14.76,-72.83,-991.49,183.75,-595.0,-376.25,1,94.613,
01/01/2000,01:40:10.22,14.64,-72.83,-991.49,105.0,-717.50,-288.75,1,94.622,
01/01/2000,01:40:10.23,14.64,-72.83,-991.37,306.25,-761.25,-350.0,1,94.631,
01/01/2000,01:40:10.24,14.64,-72.71,-991.62,157.50,-691.25,-323.75,1,94.640,
01/01/2000,01:40:10.25,14.64,-72.47,-991.74,183.75,-735.0,-402.50,1,94.491,
01/01/2000,01:40:10.26,14.64,-72.47,-991.74,218.75,-717.50,-393.75,1,94.500,
01/01/2000,01:40:10.27,14.52,-72.47,-991.49,70.0,-726.25,-455.0,1,94.509,
01/01/2000,01:40:10.28,14.64,-72.47,-991.49,315.0,-787.50,-341.25,1,94.518,
01/01/2000,01:40:10.29,14.64,-72.47,-991.62,78.75,-717.50,-183.75,1,94.527,
01/01/2000,01:40:10.30,14.76,-72.47,-991.62,113.75,-665.0,-358.75,1,94.536,
01/01/2000,01:40:10.31,14.88,-72.47,-991.49,148.75,-735.0,-376.25,1,94.545,
01/01/2000,01:40:10.33,14.88,-72.47,-991.37,245.0,-656.25,-332.50,1,94.554,
01/01/2000,01:40:10.34,14.88,-72.35,-991.37,218.75,-656.25,-428.75,1,94.563,
01/01/2000,01:40:10.35,14.88,-72.47,-991.37,175.0,-752.50,-306.25,1,94.572,
01/01/2000,01:40:10.36,15.01,-72.47,-991.37,131.25,-656.25,-446.25,1,94.581,
01/01/2000,01:40:10.37,15.01,-72.59,-991.49,201.25,-735.0,-262.50,1,94.590,
01/01/2000,01:40:10.38,15.01,-72.71,-991.25,122.50,-568.75,-306.25,1,94.599,
01/01/2000,01:40:10.39,14.88,-72.71,-991.25,183.75,-743.75,-332.50,1,94.608,
01/01/2000,01:40:10.40,15.01,-72.59,-991.25,131.25,-691.25,-332.50,1,94.617,
01/01/2000,01:40:10.41,14.88,-72.71,-991.25,-8.75,-682.50,-315.0,1,94.472,
01/01/2000,01:40:10.43,14.76,-72.96,-991.13,201.25,-735.0,-297.50,1,94.481,
01/01/2000,01:40:10.44,14.76,-73.08,-991.25,227.50,-656.25,-411.25,1,94.489,
01/01/2000,01:40:10.45,14.88,-73.08,-991.37,218.75,-656.25,-376.25,1,94.498,
01/01/2000,01:40:10.46,14.76,-72.83,-991.49,105.0,-691.25,-341.25,1,94.507,
01/01/2000,01:40:10.47,14.76,-72.96,-991.49,70.0,-752.50,-376.25,1,94.516,
01/01/2000,01:40:10.48,14.76,-72.83,-991.49,131.25,-726.25,-306.25,1,94.525,
01/01/2000,01:40:10.49,14.76,-72.96,-991.37,262.50,-603.75,-350.0,1,94.534,
01/01/2000,01:40:10.50,14.88,-72.83,-991.49,157.50,-708.75,-288.75,1,94.543,
01/01/2000,01:40:10.51,14.88,-72.83,-991.49,122.50,-708.75,-332.50,1,94.551,
01/01/2000,01:40:10.52,14.88,-72.96,-991.62,192.50,-665.0,-358.75,1,94.560,
01/01/2000,01:40:10.53,14.76,-73.08,-991.62,236.25,-621.25,-367.50,1,94.569,
01/01/2000,01:40:10.54,14.76,-72.96,-991.37,96.25,-726.25,-341.25,1,94.577,
01/01/2000,01:40:10.55,14.88,-73.08,-991.37,245.0,-647.50,-367.50,1,94.586,
01/01/2000,01:40:10.56,14.88,-72.96,-991.37,113.75,-665.0,-306.25,1,94.595,
01/01/2000,01:40:10.57,14.88,-72.96,-991.49,367.50,-700.0,-332.50,1,94.603,
01/01/2000,01:40:10.58,14.88,-72.96,-991.49,201.25,-717.50,-280.0,1,94.612,
01/01/2000,01:40:10.59,14.76,-73.20,-991.62,218.75,-673.75,-315.0,1,94.620,
01/01/2000,01:40:10.60,14.64,-72.83,-991.62,78.75,-691.25,-437.50,1,94.479,
01/01/2000,01:40:10.61,15.01,-72.96,-991.62,297.50,-673.75,-411.25,1,94.488,
01/01/2000,01:40:10.62,14.88,-72.96,-991.49,157.50,-665.0,-245.0,1,94.497,
01/01/2000,01:40:10.63,14.76,-73.08,-991.37,140.0,-708.75,-350.0,1,94.505,
01/01/2000,01:40:10.64,14.88,-73.08,-991.49,166.25,-770.0,-341.25,1,94.514,
01/01/2000,01:40:10.65,14.76,-72.96,-991.62,122.50,-647.50,-280.0,1,94.523,
01/01/2000,01:40:10.67,14.76,-72.83,-991.62,253.75,-831.25,-350.0,1,94.531,
01/01/2000,01:40:10.68,14.64,-72.96,-991.37,297.50,-630.0,-367.50,1,94.540,
01/01/2000,01:40:10.69,14.64,-72.96,-991.62,52.50,-638.75,-253.75,1,94.548,
01/01/2000,01:40:10.70,14.64,-73.08,-991.74,306.25,-647.50,-210.0,1,94.557,
01/01/2000,01:40:10.71,14.64,-72.83,-991.86,122.50,-778.75,-323.75,1,94.565,
01/01/2000,01:40:10.72,14.64,-72.96,-991.86,122.50,-848.75,-341.25,1,94.574,
01/01/2000,01:40:10.73,14.64,-72.83,-991.74,87.50,-708.75,-323.75,1,94.582,
01/01/2000,01:40:10.74,14.76,-73.08,-991.62,288.75,-700.0,-332.50,1,94.590,
01/01/2000,01:40:10.75,13.18,-72.96,-978.07,-3613.75,1120.0,-822.50,1,94.453,
01/01/2000,01:40:10.76,2.56,-73.20,-947.94,2406.25,-1268.75,4830.0,1,94.462,
01/01/2000,01:40:10.77,5.25,-71.98,-960.14,1408.75,-1828.75,875.0,1,94.470,
01/01/2000,01:40:10.78,17.08,-77.10,-998.08,1960.0,-1111.25,-3220.0,1,94.479,
01/01/2000,01:40:10.79,26.35,-75.15,-1033.58,-787.50,131.25,-2450.0,1,94.487,
01/01/2000,01:40:10.80,26.96,-73.32,-1045.54,-1732.50,332.50,3220.0,1,94.495,
01/01/2000,01:40:10.82,20.74,-67.59,-1021.02,-1216.25,-481.25,463.75,1,94.504,
01/01/2000,01:40:10.83,15.01,-68.69,-982.47,481.25,-866.25,-280.0,1,94.512,
01/01/2000,01:40:10.84,10.86,-72.47,-969.53,638.75,-1303.75,315.0,1,94.521,
01/01/2000,01:40:10.85,12.93,-77.35,-973.68,1548.75,-1198.75,-516.25,1,94.529,
01/01/2000,01:40:10.86,16.47,-78.57,-988.93,306.25,-945.0,-1942.50,1,94.537,
01/01/2000,01:40:10.87,18.79,-76.86,-1003.33,-113.75,-358.75,-1216.25,1,94.545,
01/01/2000,01:40:10.88,16.23,-69.54,-1005.28,-542.50,-306.25,280.0,1,94.554,
01/01/2000,01:40:10.89,12.20,-66.49,-992.10,-245.0,-603.75,218.75,1,94.562,
01/01/2000,01:40:10.90,11.71,-69.54,-984.17,490.0,-638.75,26.25,1,94.570,
01/01/2000,01:40:10.91,13.30,-73.81,-981.49,516.25,-892.50,-148.75,1,94.578,
01/01/2000,01:40:10.92,15.86,-77.47,-985.27,525.0,-962.50,-1268.75,1,94.586,
01/01/2000,01:40:10.94,18.06,-77.23,-995.15,122.50,-743.75,-962.50,1,94.453,
01/01/2000,01:40:10.95,14.76,-71.25,-994.30,-192.50,-533.75,-463.75,1,94.461,
01/01/2000,01:40:10.96,12.32,-68.56,-989.42,210.0,-595.0,367.50,1,94.469,
01/01/2000,01:40:10.97,11.47,-69.30,-987.59,122.50,-665.0,560.0,1,94.478,
01/01/2000,01:40:10.98,13.42,-73.08,-988.44,201.25,-743.75,332.50,1,94.486,
01/01/2000,01:40:10.99,15.98,-76.13,-990.76,183.75,-761.25,-796.25,1,94.494,
01/01/2000,01:40:11.00,17.32,-77.35,-992.35,70.0,-770.0,-1496.25,1,94.502,
01/01/2000,01:40:11.01,16.10,-74.30,-991.25,43.75,-735.0,-1146.25,1,94.510,
01/01/2000,01:40:11.02,14.15,-71.49,-989.91,323.75,-743.75,-183.75,1,94.519,
01/01/2000,01:40:11.03,12.69,-69.78,-989.42,0.0,-682.50,350.0,1,94.527,
01/01/2000,01:40:11.04,12.81,-71.25,-991.13,96.25,-638.75,122.50,1,94.535,
01/01/2000,01:40:11.05,14.64,-73.57,-992.23,-17.50,-560.0,-446.25,1,94.543,
01/01/2000,01:40:11.06,15.74,-75.52,-992.35,140.0,-682.50,-743.75,1,94.551,
01/01/2000,01:40:11.07,16.10,-75.40,-991.13,61.25,-761.25,-962.50,1,94.559,
01/01/2000,01:40:11.08,15.62,-73.93,-989.91,262.50,-743.75,-376.25,1,94.567,
01/01/2000,01:40:11.09,14.15,-71.49,-990.03,262.50,-761.25,-52.50,1,94.575,
01/01/2000,01:40:11.10,13.42,-71.37,-992.23,166.25,-560.0,8.75,1,94.444,
01/01/2000,01:40:11.11,13.79,-72.22,-993.08,52.50,-612.50,-472.50,1,94.453,
01/01/2000,01:40:11.12,14.40,-73.20,-992.35,-26.25,-437.50,-717.50,1,94.461,
01/01/2000,01:40:11.13,15.13,-74.05,-990.88,122.50,-735.0,-682.50,1,94.469,
01/01/2000,01:40:11.14,15.49,-73.69,-989.66,253.75,-770.0,-376.25,1,94.477,
01/01/2000,01:40:11.15,15.13,-72.96,-990.40,183.75,-822.50,-192.50,1,94.485,
01/01/2000,01:40:11.17,14.27,-72.47,-992.35,192.50,-673.75,-131.25,1,94.493,
01/01/2000,01:40:11.18,13.91,-72.35,-992.84,61.25,-516.25,-455.0,1,94.501,
01/01/2000,01:40:11.19,13.91,-72.47,-992.10,157.50,-551.25,-350.0,1,94.509,
01/01/2000,01:40:11.20,14.40,-72.71,-990.88,218.75,-630.0,-288.75,1,94.517,
01/01/2000,01:40:11.21,15.37,-73.32,-990.27,262.50,-813.75,-341.25,1,94.524,
01/01/2000,01:40:11.22,15.62,-73.69,-990.88,245.0,-770.0,-315.0,1,94.532,
01/01/2000,01:40:11.23,15.25,-73.69,-991.86,140.0,-638.75,-490.0,1,94.540,
01/01/2000,01:40:11.24,14.27,-72.71,-992.10,105.0,-630.0,-437.50,1,94.548,
01/01/2000,01:40:11.25,13.91,-72.10,-991.62,61.25,-717.50,-210.0,1,94.556,
01/01/2000,01:40:11.26,14.03,-72.10,-990.88,262.50,-700.0,-227.50,1,94.429,
01/01/2000,01:40:11.27,15.01,-72.96,-990.88,157.50,-743.75,-297.50,1,94.571,
01/01/2000,01:40:11.28,15.37,-73.69,-991.25,131.25,-717.50,-280.0,1,94.444,
01/01/2000,01:40:11.29,15.37,-74.18,-991.74,192.50,-647.50,-472.50,1,94.452,
01/01/2000,01:40:11.30,14.88,-73.93,-991.86,306.25,-752.50,-411.25,1,94.460,
01/01/2000,01:40:11.32,14.15,-72.47,-991.49,105.0,-638.75,-227.50,1,94.468,
01/01/2000,01:40:11.33,14.15,-72.10,-991.62,192.50,-743.75,-183.75,1,94.476,
01/01/2000,01:40:11.34,14.52,-72.59,-991.86,183.75,-700.0,-210.0,1,94.484,
01/01/2000,01:40:11.35,15.01,-73.57,-991.86,166.25,-708.75,-411.25,1,94.492,
01/01/2000,01:40:11.36,15.25,-73.81,-991.74,87.50,-691.25,-621.25,1,94.499,
01/01/2000,01:40:11.37,15.13,-73.32,-991.13,245.0,-761.25,-315.0,1,94.507,
01/01/2000,01:40:11.38,14.64,-72.83,-991.13,227.50,-883.75,-175.0,1,94.515,
01/01/2000,01:40:11.39,14.40,-72.22,-991.62,227.50,-603.75,-210.0,1,94.522,
01/01/2000,01:40:11.40,14.64,-72.59,-991.98,113.75,-743.75,-166.25,1,94.530,
01/01/2000,01:40:11.41,14.64,-72.96,-991.86,122.50,-586.25,-236.25,1,94.538,
01/01/2000,01:40:11.42,14.76,-73.32,-991.62,183.75,-700.0,-358.75,1,94.545,
01/01/2000,01:40:11.43,14.88,-73.20,-991.25,183.75,-481.25,-323.75,1,94.553,
01/01/2000,01:40:11.45,14.76,-72.71,-991.62,166.25,-656.25,-262.50,1,94.429,
01/01/2000,01:40:11.46,14.40,-72.71,-992.23,183.75,-735.0,-341.25,1,94.437,
01/01/2000,01:40:11.47,14.27,-72.71,-992.35,140.0,-612.50,-402.50,1,94.444,
01/01/2000,01:40:11.48,14.40,-73.08,-991.74,253.75,-770.0,-437.50,1,94.452,
01/01/2000,01:40:11.49,14.64,-72.96,-991.49,175.0,-717.50,-367.50,1,94.460,
01/01/2000,01:40:11.50,14.88,-73.08,-991.37,122.50,-656.25,-455.0,1,94.467,
01/01/2000,01:40:11.51,14.76,-72.96,-991.62,61.25,-665.0,-201.25,1,94.475,
01/01/2000,01:40:11.52,14.40,-72.47,-991.86,52.50,-717.50,-341.25,1,94.483,
01/01/2000,01:40:11.53,14.15,-72.47,-991.74,218.75,-542.50,-297.50,1,94.490,
01/01/2000,01:40:11.54,14.27,-72.59,-991.62,218.75,-542.50,-385.0,1,94.498,
01/01/2000,01:40:11.55,14.52,-72.71,-991.62,78.75,-682.50,-411.25,1,94.505,
01/01/2000,01:40:11.56,14.88,-72.96,-991.74,70.0,-726.25,-253.75,1,94.513,
01/01/2000,01:40:11.57,15.01,-73.20,-991.86,236.25,-673.75,-472.50,1,94.521,
01/01/2000,01:40:11.58,14.76,-73.08,-991.86,-78.75,-770.0,-393.75,1,94.528,
01/01/2000,01:40:11.60,14.40,-72.47,-991.86,-17.50,-691.25,-306.25,1,94.407,
01/01/2000,01:40:11.60,14.64,-72.71,-991.86,253.75,-560.0,-323.75,1,94.414,
01/01/2000,01:40:11.62,14.64,-72.71,-991.86,192.50,-656.25,-350.0,1,94.422,
01/01/2000,01:40:11.63,15.25,-73.32,-991.86,157.50,-787.50,-341.25,1,94.429,
01/01/2000,01:40:11.64,15.13,-73.44,-991.74,140.0,-691.25,-341.25,1,94.437,
01/01/2000,01:40:11.65,14.88,-73.44,-991.86,131.25,-717.50,-577.50,1,94.444,
01/01/2000,01:40:11.66,14.76,-72.96,-991.86,157.50,-656.25,-245.0,1,94.452,
01/01/2000,01:40:11.67,14.64,-72.59,-991.86,218.75,-717.50,-175.0,1,94.459,
01/01/2000,01:40:11.68,14.88,-72.96,-991.86,288.75,-656.25,-455.0,1,94.467,
01/01/2000,01:40:11.69,15.01,-73.20,-991.86,-17.50,-673.75,-376.25,1,94.474,
01/01/2000,01:40:11.70,15.13,-73.20,-991.62,210.0,-717.50,-481.25,1,94.482,
01/01/2000,01:40:11.71,15.25,-73.20,-991.62,236.25,-665.0,-350.0,1,94.489,
01/01/2000,01:40:11.72,15.01,-72.96,-991.74,113.75,-717.50,-393.75,1,94.497,
01/01/2000,01:40:11.73,14.88,-72.83,-991.86,288.75,-673.75,-332.50,1,94.504,
01/01/2000,01:40:11.74,14.76,-72.71,-991.98,96.25,-743.75,-420.0,1,94.385,
01/01/2000,01:40:11.75,14.88,-72.71,-991.62,297.50,-735.0,-437.50,1,94.393,
01/01/2000,01:40:11.76,15.01,-72.96,-991.49,140.0,-682.50,-358.75,1,94.400,
01/01/2000,01:40:11.77,15.01,-72.96,-991.37,210.0,-700.0,-402.50,1,94.407,
01/01/2000,01:40:11.78,15.13,-72.96,-991.49,210.0,-630.0,-306.25,1,94.415,
01/01/2000,01:40:11.79,14.88,-72.71,-991.62,183.75,-638.75,-411.25,1,94.422,
01/01/2000,01:40:11.81,14.64,-72.71,-991.62,227.50,-726.25,-341.25,1,94.430,
01/01/2000,01:40:11.82,14.64,-72.71,-991.49,105.0,-700.0,-393.75,1,94.437,
01/01/2000,01:40:11.83,14.64,-72.71,-991.49,96.25,-717.50,-262.50,1,94.444,
01/01/2000,01:40:11.84,14.88,-72.96,-991.37,78.75,-787.50,-271.25,1,94.452,
01/01/2000,01:40:11.85,14.88,-72.96,-991.37,201.25,-761.25,-332.50,1,94.459,
01/01/2000,01:40:11.86,14.64,-72.96,-991.62,140.0,-717.50,-341.25,1,94.466,
01/01/2000,01:40:11.87,14.76,-72.83,-991.62,166.25,-647.50,-376.25,1,94.474,
01/01/2000,01:40:11.88,14.64,-72.59,-991.86,78.75,-770.0,-262.50,1,94.481,
01/01/2000,01:40:11.89,14.64,-72.71,-991.74,218.75,-726.25,-280.0,1,94.488,
01/01/2000,01:40:11.90,14.64,-72.96,-991.74,192.50,-665.0,-393.75,1,94.495,
01/01/2000,01:40:11.91,14.88,-73.20,-991.74,183.75,-717.50,-323.75,1,94.503,
01/01/2000,01:40:11.92,14.88,-72.83,-991.62,148.75,-586.25,-271.25,1,94.510,
01/01/2000,01:40:11.93,14.88,-72.96,-991.62,166.25,-682.50,-420.0,1,94.394,
01/01/2000,01:40:11.95,14.76,-72.96,-991.62,201.25,-673.75,-236.25,1,94.401,
01/01/2000,01:40:11.96,14.88,-72.83,-991.62,78.75,-700.0,-297.50,1,94.408,
01/01/2000,01:40:11.97,14.88,-72.96,-991.62,227.50,-691.25,-498.75,1,94.416,
01/01/2000,01:40:11.98,14.88,-73.08,-991.74,35.0,-673.75,-288.75,1,94.423,
01/01/2000,01:40:11.99,15.01,-73.08,-991.62,236.25,-700.0,-253.75,1,94.430,
01/01/2000,01:40:12.00,14.88,-72.96,-991.74,175.0,-840.0,-341.25,1,94.437,
01/01/2000,01:40:12.01,14.76,-72.71,-991.74,157.50,-665.0,-420.0,1,94.444,
01/01/2000,01:40:12.02,14.76,-72.71,-991.62,183.75,-743.75,-280.0,1,94.330,
01/01/2000,01:40:12.03,14.76,-72.71,-991.62,192.50,-691.25,-315.0,1,94.337,
01/01/2000,01:40:12.04,14.88,-72.96,-991.49,61.25,-691.25,-166.25,1,94.344,
01/01/2000,01:40:12.05,15.01,-73.08,-991.49,175.0,-682.50,-306.25,1,94.352,
01/01/2000,01:40:12.06,15.01,-72.83,-991.49,26.25,-708.75,-446.25,1,94.359,
01/01/2000,01:40:12.07,15.01,-72.71,-991.62,288.75,-647.50,-280.0,1,94.366,
01/01/2000,01:40:12.08,15.01,-72.83,-991.62,148.75,-665.0,-288.75,1,94.373,
01/01/2000,01:40:12.09,14.88,-72.83,-991.62,245.0,-647.50,-376.25,1,94.381,
01/01/2000,01:40:12.10,15.01,-72.96,-991.62,166.25,-691.25,-437.50,1,94.388,
01/01/2000,01:40:12.11,15.13,-72.96,-991.62,210.0,-743.75,-393.75,1,94.395,
01/01/2000,01:40:12.12,15.13,-72.83,-991.37,175.0,-752.50,-288.75,1,94.402,
01/01/2000,01:40:12.13,15.01,-72.96,-991.37,175.0,-638.75,-218.75,1,94.409,
01/01/2000,01:40:12.14,14.88,-72.71,-991.37,148.75,-682.50,-385.0,1,94.416,
01/01/2000,01:40:12.16,14.88,-72.71,-991.62,227.50,-708.75,-350.0,1,94.423,
01/01/2000,01:40:12.17,14.76,-72.59,-991.74,148.75,-638.75,-428.75,1,94.430,
01/01/2000,01:40:12.18,14.76,-72.71,-991.74,96.25,-717.50,-367.50,1,94.437,
01/01/2000,01:40:12.19,14.76,-72.96,-991.74,166.25,-787.50,-411.25,1,94.444,
01/01/2000,01:40:12.20,14.76,-72.71,-991.74,201.25,-656.25,-472.50,1,94.451,
01/01/2000,01:40:12.21,14.88,-72.96,-991.74,131.25,-595.0,-236.25,1,94.458,
01/01/2000,01:40:12.22,14.88,-72.71,-991.74,105.0,-708.75,-358.75,1,94.465,
01/01/2000,01:40:12.23,14.64,-72.83,-991.74,105.0,-700.0,-297.50,1,94.354,
01/01/2000,01:40:12.24,14.88,-72.71,-991.62,271.25,-551.25,-358.75,1,94.361,
01/01/2000,01:40:12.25,14.88,-72.59,-991.62,61.25,-665.0,-306.25,1,94.368,
01/01/2000,01:40:12.26,14.88,-72.71,-991.62,201.25,-682.50,-323.75,1,94.375,
01/01/2000,01:40:12.27,14.76,-72.71,-991.62,131.25,-621.25,-350.0,1,94.382,
01/01/2000,01:40:12.28,14.64,-72.59,-991.49,271.25,-691.25,-411.25,1,94.389,
01/01/2000,01:40:12.29,14.64,-72.71,-991.62,43.75,-752.50,-306.25,1,94.396,
01/01/2000,01:40:12.31,14.64,-72.71,-991.49,183.75,-577.50,-350.0,1,94.403,
01/01/2000,01:40:12.32,14.76,-72.96,-991.62,227.50,-673.75,-350.0,1,94.410,
01/01/2000,01:40:12.33,14.88,-72.96,-991.62,61.25,-735.0,-306.25,1,94.417,
01/01/2000,01:40:12.34,14.76,-72.96,-991.62,218.75,-708.75,-411.25,1,94.424,
01/01/2000,01:40:12.35,14.76,-72.96,-991.86,201.25,-665.0,-385.0,1,94.431,
01/01/2000,01:40:12.36,14.88,-72.83,-991.74,157.50,-647.50,-306.25,1,94.438,
01/01/2000,01:40:12.37,14.88,-72.71,-991.62,96.25,-735.0,-271.25,1,94.444,
01/01/2000,01:40:12.38,14.76,-72.96,-991.62,280.0,-603.75,-411.25,1,94.451,
01/01/2000,01:40:12.39,14.88,-72.96,-991.62,236.25,-612.50,-218.75,1,94.458,
01/01/2000,01:40:12.40,14.64,-72.96,-991.49,183.75,-717.50,-402.50,1,94.465,
01/01/2000,01:40:12.41,14.76,-72.96,-991.62,105.0,-612.50,-376.25,1,94.472,
01/01/2000,01:40:12.42,14.64,-72.96,-991.49,122.50,-752.50,-280.0,1,94.479,
01/01/2000,01:40:12.43,14.88,-72.96,-991.62,113.75,-700.0,-315.0,1,94.485,
01/01/2000,01:40:12.44,15.01,-73.20,-991.37,271.25,-673.75,-350.0,1,94.377,
01/01/2000,01:40:12.45,15.01,-73.20,-991.49,61.25,-726.25,-315.0,1,94.383,
01/01/2000,01:40:12.47,14.88,-73.08,-991.62,17.50,-735.0,-428.75,1,94.390,
01/01/2000,01:40:12.48,14.76,-73.20,-991.62,227.50,-595.0,-227.50,1,94.397,
01/01/2000,01:40:12.49,14.64,-72.96,-991.49,-17.50,-726.25,-402.50,1,94.404,
01/01/2000,01:40:12.50,14.88,-73.20,-991.49,175.0,-577.50,-358.75,1,94.411,
01/01/2000,01:40:12.51,14.88,-72.96,-991.62,35.0,-682.50,-280.0,1,94.417,
01/01/2000,01:40:12.52,14.88,-73.08,-991.49,157.50,-717.50,-297.50,1,94.424,
01/01/2000,01:40:12.53,14.64,-72.96,-991.62,166.25,-638.75,-288.75,1,94.431,
01/01/2000,01:40:12.54,14.76,-72.96,-991.62,280.0,-708.75,-288.75,1,94.438,
01/01/2000,01:40:12.55,14.64,-72.96,-991.62,87.50,-691.25,-367.50,1,94.444,
01/01/2000,01:40:12.56,14.64,-72.71,-991.86,183.75,-691.25,-367.50,1,94.451,
01/01/2000,01:40:12.57,14.64,-72.96,-991.62,341.25,-621.25,-332.50,1,94.458,
01/01/2000,01:40:12.58,14.76,-72.83,-991.62,323.75,-717.50,-376.25,1,94.351,
01/01/2000,01:40:12.59,14.76,-72.83,-991.62,183.75,-630.0,-315.0,1,94.358,
01/01/2000,01:40:12.60,14.88,-72.96,-991.62,166.25,-717.50,-367.50,1,94.365,
01/01/2000,01:40:12.61,14.76,-72.71,-991.62,140.0,-700.0,-341.25,1,94.371,
01/01/2000,01:40:12.62,14.64,-72.96,-991.62,192.50,-726.25,-288.75,1,94.378,
01/01/2000,01:40:12.63,14.64,-72.83,-991.62,96.25,-638.75,-411.25,1,94.385,
01/01/2000,01:40:12.64,14.64,-72.96,-991.62,218.75,-647.50,-367.50,1,94.391,
01/01/2000,01:40:12.65,14.64,-72.96,-991.62,96.25,-717.50,-323.75,1,94.398,
01/01/2000,01:40:12.66,14.64,-72.83,-991.62,78.75,-682.50,-385.0,1,94.405,
01/01/2000,01:40:12.67,14.76,-72.96,-991.62,201.25,-673.75,-262.50,1,94.411,
01/01/2000,01:40:12.68,14.64,-72.83,-991.49,271.25,-682.50,-315.0,1,94.418,
01/01/2000,01:40:12.69,14.64,-72.96,-991.62,183.75,-673.75,-393.75,1,94.425,
01/01/2000,01:40:12.70,14.88,-72.83,-991.74,288.75,-595.0,-315.0,1,94.431,
01/01/2000,01:40:12.71,14.88,-72.71,-991.86,96.25,-726.25,-428.75,1,94.438,
01/01/2000,01:40:12.73,14.88,-72.71,-991.74,175.0,-691.25,-262.50,1,94.444,
01/01/2000,01:40:12.74,14.88,-72.83,-991.74,315.0,-656.25,-472.50,1,94.451,
01/01/2000,01:40:12.75,14.76,-72.71,-991.62,105.0,-708.75,-385.0,1,94.458,
01/01/2000,01:40:12.76,14.88,-72.71,-991.74,218.75,-577.50,-262.50,1,94.464,
01/01/2000,01:40:12.77,14.88,-72.71,-991.74,210.0,-726.25,-437.50,1,94.471,
01/01/2000,01:40:12.78,14.88,-72.71,-991.62,-78.75,-822.50,-288.75,1,94.477,
01/01/2000,01:40:12.79,14.88,-72.71,-991.62,78.75,-638.75,-323.75,1,94.373,
01/01/2000,01:40:12.80,14.88,-72.83,-991.49,183.75,-691.25,-271.25,1,94.379,
01/01/2000,01:40:12.81,15.01,-72.71,-991.37,166.25,-743.75,-358.75,1,94.386,
01/01/2000,01:40:12.82,14.88,-72.83,-991.74,192.50,-612.50,-306.25,1,94.393,
01/01/2000,01:40:12.83,15.01,-72.83,-991.86,166.25,-708.75,-446.25,1,94.399,
01/01/2000,01:40:12.84,15.01,-72.83,-991.86,218.75,-612.50,-350.0,1,94.406,
01/01/2000,01:40:12.85,14.76,-72.71,-991.86,148.75,-673.75,-271.25,1,94.412,
01/01/2000,01:40:12.87,14.76,-72.83,-991.49,218.75,-770.0,-393.75,1,94.419,
01/01/2000,01:40:12.88,14.76,-72.96,-991.62,227.50,-726.25,-376.25,1,94.425,
01/01/2000,01:40:12.89,14.88,-73.08,-991.49,140.0,-647.50,-271.25,1,94.432,
01/01/2000,01:40:12.90,15.01,-72.96,-991.37,87.50,-717.50,-350.0,1,94.438,
01/01/2000,01:40:12.91,14.88,-72.96,-991.37,166.25,-630.0,-455.0,1,94.444,
01/01/2000,01:40:12.92,14.88,-72.96,-991.37,52.50,-735.0,-376.25,1,94.451,
01/01/2000,01:40:12.93,14.88,-72.96,-991.37,87.50,-761.25,-393.75,1,94.457,
01/01/2000,01:40:12.94,14.88,-72.96,-991.37,113.75,-665.0,-245.0,1,94.464,
01/01/2000,01:40:12.95,14.76,-72.71,-991.37,26.25,-691.25,-385.0,1,94.470,
01/01/2000,01:40:12.96,14.64,-72.83,-991.37,183.75,-603.75,-437.50,1,94.476,
01/01/2000,01:40:12.97,14.76,-72.71,-991.25,201.25,-560.0,-271.25,1,94.374,
01/01/2000,01:40:12.99,14.76,-72.59,-991.37,96.25,-761.25,-350.0,1,94.381,
01/01/2000,01:40:13.00,14.88,-72.71,-991.62,218.75,-691.25,-446.25,1,94.387,
01/01/2000,01:40:13.01,14.88,-72.83,-991.74,192.50,-577.50,-385.0,1,94.394,
01/01/2000,01:40:13.02,15.01,-72.83,-991.62,113.75,-665.0,-332.50,1,94.400,
01/01/2000,01:40:13.03,14.76,-72.71,-991.49,245.0,-708.75,-350.0,1,94.406,
01/01/2000,01:40:13.04,14.88,-72.59,-991.37,148.75,-647.50,-253.75,1,94.413,
01/01/2000,01:40:13.05,14.88,-72.71,-991.37,227.50,-787.50,-332.50,1,94.419,
01/01/2000,01:40:13.06,15.13,-72.83,-991.25,253.75,-700.0,-350.0,1,94.425,
01/01/2000,01:40:13.07,15.01,-72.96,-991.25,96.25,-630.0,-446.25,1,94.432,
01/01/2000,01:40:13.08,14.88,-72.59,-991.37,140.0,-743.75,-341.25,1,94.438,
01/01/2000,01:40:13.09,14.88,-72.71,-991.13,210.0,-726.25,-428.75,1,94.444,
01/01/2000,01:40:13.10,14.64,-72.59,-991.13,35.0,-682.50,-192.50,1,94.451,
01/01/2000,01:40:13.11,14.64,-72.71,-991.13,157.50,-743.75,-393.75,1,94.457,
01/01/2000,01:40:13.12,14.64,-72.83,-991.13,262.50,-568.75,-323.75,1,94.463,
01/01/2000,01:40:13.13,14.64,-72.71,-991.25,122.50,-726.25,-350.0,1,94.470,
01/01/2000,01:40:13.14,14.76,-72.71,-991.37,140.0,-691.25,-288.75,1,94.369,
01/01/2000,01:40:13.15,14.76,-72.71,-991.37,35.0,-673.75,-323.75,1,94.376,
01/01/2000,01:40:13.16,14.64,-73.08,-991.13,192.50,-647.50,-402.50,1,94.382,
01/01/2000,01:40:13.17,14.52,-72.83,-991.13,96.25,-735.0,-367.50,1,94.388,
01/01/2000,01:40:13.18,14.64,-72.71,-991.01,236.25,-691.25,-402.50,1,94.395,
01/01/2000,01:40:13.19,14.64,-72.71,-991.25,297.50,-542.50,-446.25,1,94.401,
01/01/2000,01:40:13.20,14.64,-72.71,-991.37,78.75,-735.0,-157.50,1,94.407,
01/01/2000,01:40:13.22,14.64,-72.71,-991.13,52.50,-647.50,-428.75,1,94.413,
01/01/2000,01:40:13.23,14.64,-72.71,-991.13,113.75,-761.25,-245.0,1,94.420,
01/01/2000,01:40:13.24,14.64,-72.59,-991.13,192.50,-542.50,-332.50,1,94.426,
01/01/2000,01:40:13.25,14.64,-72.59,-991.25,43.75,-577.50,-367.50,1,94.432,
01/01/2000,01:40:13.26,14.76,-72.71,-991.25,148.75,-673.75,-288.75,1,94.438,
01/01/2000,01:40:13.27,14.64,-72.83,-991.37,201.25,-673.75,-393.75,1,94.444,
01/01/2000,01:40:13.28,14.64,-72.83,-991.37,157.50,-630.0,-376.25,1,94.451,
01/01/2000,01:40:13.29,14.64,-72.71,-991.25,70.0,-638.75,-358.75,1,94.457,
01/01/2000,01:40:13.30,14.64,-72.71,-991.13,192.50,-787.50,-341.25,1,94.463,
01/01/2000,01:40:13.31,14.40,-72.59,-991.13,131.25,-577.50,-201.25,1,94.469,
01/01/2000,01:40:13.32,14.52,-72.96,-991.37,227.50,-682.50,-437.50,1,94.475,
01/01/2000,01:40:13.33,14.64,-72.83,-991.37,166.25,-647.50,-332.50,1,94.481,
01/01/2000,01:40:13.34,14.64,-72.83,-991.37,245.0,-726.25,-332.50,1,94.487,
01/01/2000,01:40:13.35,14.64,-72.71,-991.25,175.0,-691.25,-332.50,1,94.389,
01/01/2000,01:40:13.36,14.76,-72.96,-991.25,113.75,-691.25,-446.25,1,94.396,
01/01/2000,01:40:13.37,14.64,-72.96,-991.37,175.0,-656.25,-297.50,1,94.402,
01/01/2000,01:40:13.39,14.76,-73.08,-991.62,157.50,-682.50,-402.50,1,94.408,
01/01/2000,01:40:13.40,14.64,-72.96,-991.49,175.0,-691.25,-341.25,1,94.414,
01/01/2000,01:40:13.41,14.76,-72.83,-991.37,140.0,-735.0,-385.0,1,94.420,
01/01/2000,01:40:13.42,14.64,-72.83,-991.25,-8.75,-726.25,-297.50,1,94.426,
01/01/2000,01:40:13.43,14.64,-72.96,-991.37,113.75,-726.25,-402.50,1,94.432,
01/01/2000,01:40:13.44,14.76,-73.20,-991.37,148.75,-603.75,-393.75,1,94.438,
01/01/2000,01:40:13.45,14.88,-72.96,-991.37,52.50,-700.0,-428.75,1,94.444,
01/01/2000,01:40:13.46,14.88,-72.71,-991.25,271.25,-665.0,-411.25,1,94.450,
01/01/2000,01:40:13.47,14.88,-72.59,-991.25,262.50,-787.50,-428.75,1,94.457,
01/01/2000,01:40:13.49,14.76,-72.71,-991.25,166.25,-656.25,-288.75,1,94.360,
01/01/2000,01:40:13.50,14.76,-72.59,-991.37,8.75,-665.0,-227.50,1,94.366,
01/01/2000,01:40:13.51,14.88,-73.20,-991.25,271.25,-638.75,-323.75,1,94.372,
01/01/2000,01:40:13.52,14.76,-72.59,-991.25,140.0,-752.50,-148.75,1,94.378,
01/01/2000,01:40:13.53,14.88,-72.71,-991.25,201.25,-682.50,437.50,1,94.384,
01/01/2000,01:40:13.54,14.88,-72.22,-991.37,183.75,-682.50,813.75,1,94.391,
01/01/2000,01:40:13.55,14.76,-72.10,-991.49,140.0,-708.75,1102.50,1,94.397,
01/01/2000,01:40:13.56,14.76,-72.35,-991.37,113.75,-533.75,1618.75,1,94.403,
01/01/2000,01:40:13.57,14.64,-71.98,-991.25,-87.50,-437.50,4497.50,1,94.409,
01/01/2000,01:40:13.58,14.76,-71.86,-991.25,113.75,-367.50,7157.50,1,94.415,
01/01/2000,01:40:13.59,14.76,-71.98,-991.25,175.0,-105.0,9791.25,1,94.421,
01/01/2000,01:40:13.60,14.64,-71.74,-991.25,52.50,-96.25,11777.50,1,94.427,
01/01/2000,01:40:13.61,14.40,-71.86,-991.25,157.50,-87.50,13195.0,1,94.433,
01/01/2000,01:40:13.62,14.40,-71.74,-991.37,8.75,-61.25,13842.50,1,94.438,
01/01/2000,01:40:13.63,14.40,-71.74,-991.37,70.0,96.25,14393.75,1,94.444,
01/01/2000,01:40:13.64,14.40,-71.49,-991.49,122.50,87.50,15601.25,1,94.350,
01/01/2000,01:40:13.65,14.27,-71.49,-991.37,140.0,87.50,16730.0,1,94.356,
01/01/2000,01:40:13.66,14.40,-71.49,-991.49,288.75,148.75,18130.0,1,94.362,
01/01/2000,01:40:13.67,14.40,-71.49,-991.62,113.75,157.50,19538.75,1,94.368,
01/01/2000,01:40:13.68,14.52,-71.74,-991.62,52.50,227.50,20413.75,1,94.374,
01/01/2000,01:40:13.69,14.76,-71.86,-991.49,148.75,262.50,20483.75,1,94.380,
01/01/2000,01:40:13.71,14.64,-72.10,-991.25,26.25,271.25,19836.25,1,94.386,
01/01/2000,01:40:13.72,14.88,-72.22,-991.37,96.25,157.50,19538.75,1,94.392,
01/01/2000,01:40:13.73,14.88,-72.35,-991.49,192.50,253.75,19197.50,1,94.397,
01/01/2000,01:40:13.74,14.88,-72.71,-991.62,87.50,227.50,19416.25,1,94.403,
01/01/2000,01:40:13.75,14.76,-72.22,-991.62,-35.0,297.50,20650.0,1,94.409,
01/01/2000,01:40:13.76,14.64,-71.98,-991.37,96.25,376.25,21726.25,1,94.415,
01/01/2000,01:40:13.77,14.52,-71.98,-991.13,8.75,358.75,23100.0,1,94.421,
01/01/2000,01:40:13.78,14.64,-72.10,-991.13,113.75,463.75,24753.75,1,94.427,
01/01/2000,01:40:13.79,14.64,-72.22,-991.37,-26.25,350.0,25208.75,1,94.433,
01/01/2000,01:40:13.80,14.76,-72.22,-991.25,122.50,393.75,25051.25,1,94.439,
01/01/2000,01:40:13.81,14.76,-72.47,-991.13,87.50,533.75,24255.0,1,94.444,
01/01/2000,01:40:13.82,14.64,-72.47,-991.01,201.25,358.75,23240.0,1,94.450,
01/01/2000,01:40:13.83,14.76,-72.47,-991.01,113.75,367.50,22496.25,1,94.456,
01/01/2000,01:40:13.84,14.64,-72.71,-991.13,-96.25,218.75,22050.0,1,94.462,
01/01/2000,01:40:13.85,14.52,-72.59,-991.13,148.75,288.75,22198.75,1,94.369,
01/01/2000,01:40:13.86,14.64,-72.71,-991.13,210.0,323.75,22855.0,1,94.375,
01/01/2000,01:40:13.87,14.64,-72.71,-991.37,105.0,385.0,23835.0,1,94.381,
01/01/2000,01:40:13.88,14.64,-72.71,-991.13,52.50,385.0,24062.50,1,94.387,
01/01/2000,01:40:13.89,14.64,-72.71,-991.13,245.0,481.25,23992.50,1,94.393,
01/01/2000,01:40:13.90,14.64,-72.47,-991.37,192.50,367.50,23721.25,1,94.398,
01/01/2000,01:40:13.92,14.64,-72.71,-991.49,113.75,498.75,23178.75,1,94.404,
01/01/2000,01:40:13.93,14.64,-73.08,-991.62,210.0,437.50,22933.75,1,94.410,
01/01/2000,01:40:13.94,14.64,-72.71,-991.37,26.25,332.50,23100.0,1,94.416,
01/01/2000,01:40:13.95,14.52,-72.83,-991.13,245.0,393.75,23213.75,1,94.421,
01/01/2000,01:40:13.96,14.40,-72.96,-991.13,140.0,516.25,23590.0,1,94.427,
01/01/2000,01:40:13.97,14.40,-72.96,-991.13,0.0,411.25,24088.75,1,94.433,
01/01/2000,01:40:13.98,14.64,-72.96,-991.25,166.25,385.0,24351.25,1,94.439,
01/01/2000,01:40:14.00,14.40,-72.71,-991.49,323.75,455.0,24316.25,1,94.347,
01/01/2000,01:40:14.01,14.40,-72.96,-991.37,113.75,411.25,24263.75,1,94.353,
01/01/2000,01:40:14.02,14.40,-72.96,-991.37,-61.25,280.0,23957.50,1,94.359,
01/01/2000,01:40:14.03,14.64,-73.20,-991.37,113.75,455.0,23257.50,1,94.365,
01/01/2000,01:40:14.04,14.64,-73.20,-991.37,122.50,358.75,22942.50,1,94.371,
01/01/2000,01:40:14.05,14.76,-72.83,-991.25,70.0,411.25,22925.0,1,94.376,
01/01/2000,01:40:14.06,14.64,-72.71,-991.25,175.0,472.50,22933.75,1,94.382,
01/01/2000,01:40:14.07,14.52,-72.59,-991.25,105.0,376.25,23143.75,1,94.388,
01/01/2000,01:40:14.08,14.40,-72.83,-991.13,17.50,393.75,23660.0,1,94.393,
01/01/2000,01:40:14.09,14.40,-72.83,-991.13,122.50,393.75,23931.25,1,94.399,
01/01/2000,01:40:14.10,14.40,-73.08,-991.13,122.50,463.75,24106.25,1,94.405,
01/01/2000,01:40:14.11,14.40,-73.20,-991.25,183.75,420.0,23642.50,1,94.411,
01/01/2000,01:40:14.12,14.52,-73.44,-991.25,87.50,341.25,23563.75,1,94.416,
01/01/2000,01:40:14.13,14.40,-73.69,-991.13,157.50,376.25,23502.50,1,94.422,
01/01/2000,01:40:14.14,14.52,-73.44,-991.01,70.0,472.50,23677.50,1,94.428,
01/01/2000,01:40:14.15,14.64,-73.32,-991.01,61.25,455.0,23808.75,1,94.433,
01/01/2000,01:40:14.16,14.64,-72.83,-991.13,122.50,411.25,24001.25,1,94.439,
01/01/2000,01:40:14.17,14.52,-73.08,-991.13,96.25,428.75,24097.50,1,94.444,
01/01/2000,01:40:14.18,14.40,-72.71,-991.13,-87.50,411.25,24045.0,1,94.450,
01/01/2000,01:40:14.19,14.64,-73.32,-991.13,105.0,420.0,24080.0,1,94.456,
01/01/2000,01:40:14.20,14.76,-73.44,-991.25,-17.50,498.75,24176.25,1,94.366,
01/01/2000,01:40:14.21,14.64,-73.44,-991.25,-17.50,367.50,24062.50,1,94.372,
01/01/2000,01:40:14.22,14.88,-73.44,-991.13,140.0,428.75,23843.75,1,94.378,
01/01/2000,01:40:14.23,14.64,-73.08,-991.25,78.75,315.0,23782.50,1,94.383,
01/01/2000,01:40:14.24,14.40,-72.96,-991.13,201.25,428.75,23677.50,1,94.389,
01/01/2000,01:40:14.25,14.27,-72.71,-991.25,17.50,481.25,24001.25,1,94.394,
01/01/2000,01:40:14.26,14.40,-72.96,-991.25,218.75,358.75,23948.75,1,94.400,
01/01/2000,01:40:14.28,14.52,-73.44,-991.37,175.0,472.50,23782.50,1,94.406,
01/01/2000,01:40:14.29,14.40,-73.44,-991.25,183.75,306.25,22863.75,1,94.411,
01/01/2000,01:40:14.30,14.40,-73.32,-991.25,122.50,297.50,22085.0,1,94.417,
01/01/2000,01:40:14.31,14.52,-73.57,-991.37,52.50,253.75,20772.50,1,94.422,
01/01/2000,01:40:14.32,14.64,-73.81,-991.62,227.50,192.50,19127.50,1,94.428,
01/01/2000,01:40:14.33,14.52,-73.69,-991.49,70.0,183.75,16703.75,1,94.433,
01/01/2000,01:40:14.34,14.40,-73.93,-991.13,96.25,105.0,15312.50,1,94.439,
01/01/2000,01:40:14.35,14.27,-73.69,-991.01,122.50,8.75,14131.25,1,94.444,
01/01/2000,01:40:14.36,14.40,-73.93,-991.13,245.0,-70.0,13938.75,1,94.450,
01/01/2000,01:40:14.37,14.64,-73.44,-991.37,140.0,-87.50,14376.25,1,94.455,
01/01/2000,01:40:14.38,14.52,-73.44,-991.37,35.0,52.50,14822.50,1,94.461,
01/01/2000,01:40:14.39,14.64,-73.44,-991.25,210.0,-26.25,14656.25,1,94.466,
01/01/2000,01:40:14.40,14.40,-73.69,-991.13,78.75,-43.75,13702.50,1,94.472,
01/01/2000,01:40:14.41,14.40,-73.93,-991.25,26.25,-140.0,10272.50,1,94.384,
01/01/2000,01:40:14.42,14.64,-74.42,-991.13,70.0,-376.25,6886.25,1,94.390,
01/01/2000,01:40:14.43,14.64,-74.79,-991.25,166.25,-481.25,4077.50,1,94.395,
01/01/2000,01:40:14.44,14.64,-74.54,-991.25,253.75,-481.25,2616.25,1,94.401,
01/01/2000,01:40:14.45,14.64,-74.66,-991.13,323.75,-560.0,2336.25,1,94.406,
01/01/2000,01:40:14.46,14.52,-73.93,-991.13,201.25,-455.0,3001.25,1,94.412,
01/01/2000,01:40:14.47,14.40,-73.69,-991.25,105.0,-446.25,3963.75,1,94.417,
01/01/2000,01:40:14.49,14.40,-73.69,-991.25,-17.50,-533.75,4777.50,1,94.423,
01/01/2000,01:40:14.50,14.15,-73.69,-991.37,35.0,-525.0,4803.75,1,94.336,
01/01/2000,01:40:14.51,14.27,-73.93,-991.25,245.0,-498.75,3666.25,1,94.341,
01/01/2000,01:40:14.52,14.15,-73.93,-991.13,105.0,-568.75,2450.0,1,94.347,
01/01/2000,01:40:14.53,14.27,-74.18,-991.13,192.50,-551.25,1058.75,1,94.352,
01/01/2000,01:40:14.54,14.40,-73.93,-991.25,306.25,-752.50,148.75,1,94.358,
01/01/2000,01:40:14.55,14.27,-73.57,-991.25,87.50,-700.0,-236.25,1,94.363,
01/01/2000,01:40:14.56,14.27,-73.44,-991.13,183.75,-743.75,-201.25,1,94.369,
01/01/2000,01:40:14.58,14.15,-73.32,-991.13,218.75,-665.0,-157.50,1,94.374,
01/01/2000,01:40:14.58,14.40,-73.44,-991.13,236.25,-682.50,-253.75,1,94.380,
01/01/2000,01:40:14.60,14.40,-73.57,-991.01,140.0,-665.0,-297.50,1,94.385,
01/01/2000,01:40:14.60,14.40,-73.44,-991.01,70.0,-708.75,-315.0,1,94.391,
01/01/2000,01:40:14.62,14.40,-73.44,-991.01,262.50,-568.75,-245.0,1,94.396,
01/01/2000,01:40:14.63,14.15,-73.32,-991.13,166.25,-638.75,-210.0,1,94.402,
01/01/2000,01:40:14.64,14.27,-73.20,-991.37,236.25,-568.75,-78.75,1,94.407,
01/01/2000,01:40:14.65,14.40,-73.20,-991.37,96.25,-638.75,-280.0,1,94.412,
01/01/2000,01:40:14.66,14.15,-73.32,-991.25,175.0,-717.50,-131.25,1,94.418,
01/01/2000,01:40:14.67,14.15,-73.20,-991.13,148.75,-595.0,-245.0,1,94.423,
01/01/2000,01:40:14.68,14.15,-73.44,-991.13,315.0,-647.50,-402.50,1,94.428,
01/01/2000,01:40:14.69,14.15,-73.20,-991.13,26.25,-743.75,-323.75,1,94.434,
01/01/2000,01:40:14.70,14.03,-73.20,-991.25,105.0,-612.50,-297.50,1,94.439,
01/01/2000,01:40:14.71,14.03,-73.08,-991.25,105.0,-708.75,-315.0,1,94.444,
01/01/2000,01:40:14.72,14.15,-73.08,-991.13,288.75,-717.50,-253.75,1,94.450,
01/01/2000,01:40:14.73,14.15,-73.20,-991.13,236.25,-726.25,-280.0,1,94.455,
01/01/2000,01:40:14.74,14.15,-72.96,-991.01,105.0,-673.75,-393.75,1,94.460,
01/01/2000,01:40:14.75,14.15,-72.96,-991.01,17.50,-568.75,-367.50,1,94.466,
01/01/2000,01:40:14.76,14.15,-72.96,-991.37,70.0,-691.25,-402.50,1,94.381,
01/01/2000,01:40:14.77,14.03,-72.96,-991.37,122.50,-708.75,-428.75,1,94.386,
01/01/2000,01:40:14.78,14.03,-72.83,-991.37,210.0,-761.25,-437.50,1,94.392,
01/01/2000,01:40:14.79,13.91,-72.83,-991.13,253.75,-726.25,-385.0,1,94.397,
01/01/2000,01:40:14.80,13.91,-72.96,-990.88,218.75,-805.0,-367.50,1,94.402,
01/01/2000,01:40:14.81,13.91,-73.20,-991.01,280.0,-638.75,-428.75,1,94.408,
01/01/2000,01:40:14.83,13.91,-73.20,-991.13,131.25,-603.75,-463.75,1,94.413,
01/01/2000,01:40:14.84,13.91,-72.96,-991.01,157.50,-630.0,-481.25,1,94.418,
01/01/2000,01:40:14.85,14.03,-72.83,-991.01,183.75,-743.75,-332.50,1,94.423,
01/01/2000,01:40:14.86,14.15,-72.96,-991.13,131.25,-752.50,-341.25,1,94.429,
01/01/2000,01:40:14.87,14.03,-72.83,-991.13,52.50,-735.0,-358.75,1,94.434,
01/01/2000,01:40:14.88,14.15,-73.32,-991.01,280.0,-603.75,-420.0,1,94.439,
01/01/2000,01:40:14.89,14.03,-73.20,-991.01,113.75,-656.25,-393.75,1,94.444,
01/01/2000,01:40:14.90,14.15,-73.44,-991.13,288.75,-647.50,-385.0,1,94.450,
01/01/2000,01:40:14.91,14.27,-72.96,-991.13,183.75,-647.50,-315.0,1,94.366,
01/01/2000,01:40:14.92,14.27,-73.08,-991.13,262.50,-673.75,-402.50,1,94.371,
01/01/2000,01:40:14.93,14.27,-73.08,-991.25,148.75,-691.25,-420.0,1,94.377,
01/01/2000,01:40:14.94,14.40,-73.20,-991.37,192.50,-691.25,-420.0,1,94.382,
01/01/2000,01:40:14.95,14.40,-73.20,-991.37,87.50,-700.0,-367.50,1,94.387,
01/01/2000,01:40:14.96,14.40,-73.20,-991.25,113.75,-708.75,-481.25,1,94.393,
01/01/2000,01:40:14.98,14.27,-73.20,-991.25,175.0,-647.50,-358.75,1,94.398,
01/01/2000,01:40:14.99,14.15,-72.96,-991.25,227.50,-875.0,-288.75,1,94.403,
01/01/2000,01:40:15.00,14.40,-73.20,-991.37,157.50,-630.0,-446.25,1,94.408,
01/01/2000,01:40:15.01,14.27,-73.08,-991.37,78.75,-691.25,-393.75,1,94.413,
01/01/2000,01:40:15.02,14.15,-73.08,-991.25,192.50,-708.75,-350.0,1,94.419,
01/01/2000,01:40:15.03,14.40,-73.08,-991.13,70.0,-796.25,-560.0,1,94.336,
01/01/2000,01:40:15.04,14.15,-72.96,-991.13,183.75,-647.50,-428.75,1,94.341,
01/01/2000,01:40:15.05,14.15,-72.96,-991.13,-122.50,-612.50,-315.0,1,94.347,
01/01/2000,01:40:15.06,14.15,-73.08,-991.13,245.0,-831.25,-402.50,1,94.352,
01/01/2000,01:40:15.07,14.27,-73.08,-991.13,166.25,-700.0,-350.0,1,94.357,
01/01/2000,01:40:15.08,14.27,-72.96,-990.88,245.0,-752.50,-446.25,1,94.362,
01/01/2000,01:40:15.09,14.27,-72.96,-990.88,201.25,-700.0,-420.0,1,94.368,
01/01/2000,01:40:15.10,14.40,-72.96,-990.76,140.0,-708.75,-280.0,1,94.373,
01/01/2000,01:40:15.11,14.27,-72.83,-990.88,61.25,-621.25,-332.50,1,94.378,
01/01/2000,01:40:15.13,14.27,-73.08,-991.13,157.50,-700.0,-315.0,1,94.383,
01/01/2000,01:40:15.14,14.40,-72.96,-991.01,148.75,-761.25,-402.50,1,94.388,
01/01/2000,01:40:15.15,14.27,-72.96,-990.88,236.25,-743.75,-315.0,1,94.393,
01/01/2000,01:40:15.16,14.27,-73.08,-990.76,105.0,-726.25,-280.0,1,94.399,
01/01/2000,01:40:15.17,14.15,-73.08,-990.88,122.50,-708.75,-288.75,1,94.404,
01/01/2000,01:40:15.18,14.15,-73.08,-991.01,122.50,-647.50,-437.50,1,94.409,
01/01/2000,01:40:15.19,14.15,-73.20,-991.25,218.75,-813.75,-350.0,1,94.414,
01/01/2000,01:40:15.20,14.15,-73.20,-991.13,227.50,-717.50,-201.25,1,94.419,
01/01/2000,01:40:15.21,14.15,-73.20,-991.01,210.0,-525.0,-402.50,1,94.424,
01/01/2000,01:40:15.22,14.15,-73.20,-991.01,192.50,-813.75,-280.0,1,94.429,
01/01/2000,01:40:15.23,14.15,-73.20,-990.76,192.50,-691.25,-323.75,1,94.434,
01/01/2000,01:40:15.24,14.03,-73.08,-990.88,175.0,-656.25,-376.25,1,94.439,
01/01/2000,01:40:15.25,14.15,-72.96,-991.13,113.75,-656.25,-350.0,1,94.444,
01/01/2000,01:40:15.26,14.15,-72.96,-991.13,183.75,-726.25,-341.25,1,94.364,
01/01/2000,01:40:15.27,14.15,-72.96,-990.88,43.75,-726.25,-350.0,1,94.369,
01/01/2000,01:40:15.28,14.15,-73.20,-990.88,96.25,-796.25,-262.50,1,94.374,
01/01/2000,01:40:15.29,14.15,-73.20,-990.88,183.75,-822.50,-288.75,1,94.379,
01/01/2000,01:40:15.30,14.27,-73.08,-991.13,218.75,-708.75,-420.0,1,94.384,
01/01/2000,01:40:15.31,14.27,-72.96,-990.88,166.25,-752.50,-341.25,1,94.389,
01/01/2000,01:40:15.32,14.27,-73.08,-990.76,8.75,-848.75,-315.0,1,94.394,
01/01/2000,01:40:15.34,14.15,-72.96,-990.88,52.50,-708.75,-341.25,1,94.399,
01/01/2000,01:40:15.35,14.15,-73.32,-990.88,218.75,-726.25,-367.50,1,94.404,
01/01/2000,01:40:15.36,14.27,-73.20,-990.64,113.75,-717.50,-341.25,1,94.409,
01/01/2000,01:40:15.37,14.15,-73.57,-990.64,306.25,-673.75,-455.0,1,94.414,
01/01/2000,01:40:15.38,14.15,-73.44,-990.64,140.0,-787.50,-280.0,1,94.419,
01/01/2000,01:40:15.39,14.15,-73.57,-990.64,131.25,-665.0,-306.25,1,94.424,
01/01/2000,01:40:15.40,14.27,-73.32,-990.76,288.75,-673.75,-358.75,1,94.429,
01/01/2000,01:40:15.41,14.27,-72.96,-990.88,35.0,-682.50,-210.0,1,94.434,
01/01/2000,01:40:15.42,14.15,-73.20,-990.76,297.50,-700.0,-446.25,1,94.439,
01/01/2000,01:40:15.43,14.40,-72.96,-990.76,218.75,-691.25,-420.0,1,94.444,
01/01/2000,01:40:15.44,14.40,-73.20,-990.76,227.50,-752.50,-288.75,1,94.449,
01/01/2000,01:40:15.45,14.27,-72.96,-990.88,323.75,-638.75,-385.0,1,94.454,
01/01/2000,01:40:15.46,14.40,-72.96,-990.76,96.25,-560.0,-288.75,1,94.459,
01/01/2000,01:40:15.48,14.15,-73.20,-990.76,131.25,-673.75,-323.75,1,94.380,
01/01/2000,01:40:15.49,14.15,-73.20,-990.76,245.0,-673.75,-446.25,1,94.385,
01/01/2000,01:40:15.50,14.15,-73.08,-990.76,210.0,-700.0,-341.25,1,94.390,
01/01/2000,01:40:15.51,14.03,-73.08,-990.64,183.75,-595.0,-245.0,1,94.395,
01/01/2000,01:40:15.52,14.03,-72.96,-990.64,70.0,-665.0,-315.0,1,94.400,
01/01/2000,01:40:15.53,13.91,-73.08,-990.52,61.25,-726.25,-192.50,1,94.405,
01/01/2000,01:40:15.54,13.91,-73.08,-990.52,201.25,-673.75,-367.50,1,94.410,
01/01/2000,01:40:15.55,13.91,-73.20,-990.64,236.25,-682.50,-332.50,1,94.415,
01/01/2000,01:40:15.56,14.03,-73.20,-990.76,-61.25,-743.75,-306.25,1,94.420,
01/01/2000,01:40:15.57,14.03,-73.20,-990.64,315.0,-656.25,-367.50,1,94.425,
01/01/2000,01:40:15.58,14.15,-72.96,-990.88,-35.0,-717.50,-306.25,1,94.430,
01/01/2000,01:40:15.59,14.15,-73.08,-990.88,210.0,-656.25,-315.0,1,94.351,
01/01/2000,01:40:15.60,14.27,-73.20,-991.01,61.25,-761.25,-315.0,1,94.440,
01/01/2000,01:40:15.61,14.27,-73.32,-990.88,105.0,-630.0,-306.25,1,94.361,
01/01/2000,01:40:15.62,14.27,-73.32,-990.88,78.75,-700.0,-306.25,1,94.366,
01/01/2000,01:40:15.63,14.40,-73.20,-990.88,105.0,-630.0,-341.25,1,94.371,
01/01/2000,01:40:15.64,14.40,-73.20,-990.88,96.25,-735.0,-306.25,1,94.376,
01/01/2000,01:40:15.65,14.40,-73.20,-991.01,166.25,-752.50,-341.25,1,94.381,
01/01/2000,01:40:15.66,14.40,-73.20,-991.13,131.25,-638.75,-402.50,1,94.386,
01/01/2000,01:40:15.67,14.27,-73.08,-991.01,17.50,-691.25,-271.25,1,94.391,
01/01/2000,01:40:15.69,14.40,-73.08,-990.88,166.25,-665.0,-411.25,1,94.396,
01/01/2000,01:40:15.69,14.40,-73.20,-990.88,253.75,-673.75,-306.25,1,94.401,
01/01/2000,01:40:15.71,14.40,-72.96,-990.76,148.75,-638.75,-437.50,1,94.406,
01/01/2000,01:40:15.72,14.52,-72.96,-990.88,210.0,-752.50,-332.50,1,94.410,
01/01/2000,01:40:15.73,14.52,-73.20,-990.88,297.50,-708.75,-350.0,1,94.415,
01/01/2000,01:40:15.74,14.40,-72.96,-991.13,78.75,-682.50,-288.75,1,94.420,
01/01/2000,01:40:15.75,14.40,-73.08,-991.01,78.75,-805.0,-218.75,1,94.425,
01/01/2000,01:40:15.76,14.27,-73.08,-990.88,253.75,-717.50,-323.75,1,94.430,
01/01/2000,01:40:15.77,14.40,-73.08,-990.76,192.50,-743.75,-376.25,1,94.435,
01/01/2000,01:40:15.78,14.40,-73.08,-990.88,131.25,-726.25,-411.25,1,94.440,
01/01/2000,01:40:15.79,14.40,-72.96,-990.88,210.0,-560.0,-183.75,1,94.444,
01/01/2000,01:40:15.80,14.40,-73.08,-990.88,140.0,-717.50,-402.50,1,94.449,
01/01/2000,01:40:15.81,14.40,-72.96,-990.88,70.0,-708.75,-245.0,1,94.454,
01/01/2000,01:40:15.82,14.40,-73.20,-990.76,253.75,-691.25,-393.75,1,94.377,
01/01/2000,01:40:15.83,14.52,-73.44,-990.88,262.50,-717.50,-490.0,1,94.382,
01/01/2000,01:40:15.84,14.40,-73.32,-990.88,61.25,-638.75,-367.50,1,94.387,
01/01/2000,01:40:15.85,14.27,-72.96,-990.88,148.75,-673.75,-332.50,1,94.392,
01/01/2000,01:40:15.86,14.40,-73.20,-990.76,341.25,-717.50,-323.75,1,94.397,
01/01/2000,01:40:15.87,14.40,-73.20,-990.88,183.75,-735.0,-341.25,1,94.401,
01/01/2000,01:40:15.88,14.52,-73.20,-991.01,183.75,-630.0,-341.25,1,94.406,
01/01/2000,01:40:15.90,14.40,-73.20,-991.13,166.25,-630.0,-507.50,1,94.411,
01/01/2000,01:40:15.91,14.27,-73.20,-991.13,17.50,-708.75,-271.25,1,94.416,
01/01/2000,01:40:15.92,14.27,-73.08,-991.01,271.25,-673.75,-367.50,1,94.421,
01/01/2000,01:40:15.93,14.27,-73.08,-991.01,87.50,-682.50,-385.0,1,94.425,
01/01/2000,01:40:15.94,14.15,-72.96,-991.13,271.25,-551.25,-341.25,1,94.430,
01/01/2000,01:40:15.95,14.27,-72.96,-990.88,113.75,-595.0,-385.0,1,94.435,
01/01/2000,01:40:15.96,14.15,-73.20,-990.76,236.25,-866.25,-411.25,1,94.440,
01/01/2000,01:40:15.97,14.27,-73.20,-990.64,87.50,-708.75,-376.25,1,94.444,
01/01/2000,01:40:15.98,14.40,-73.08,-990.76,227.50,-735.0,-385.0,1,94.449,
01/01/2000,01:40:15.99,14.27,-72.96,-990.88,122.50,-717.50,-350.0,1,94.454,
01/01/2000,01:40:16.00,14.15,-73.08,-990.88,236.25,-726.25,-385.0,1,94.459,
01/01/2000,01:40:16.01,14.15,-73.08,-990.88,218.75,-665.0,-306.25,1,94.463,
01/01/2000,01:40:16.02,14.27,-73.20,-990.88,113.75,-612.50,-376.25,1,94.468,
01/01/2000,01:40:16.04,14.40,-73.08,-991.01,227.50,-612.50,-428.75,1,94.393,
01/01/2000,01:40:16.05,14.40,-73.08,-990.88,105.0,-735.0,-332.50,1,94.397,
01/01/2000,01:40:16.06,14.27,-73.20,-990.88,148.75,-673.75,-420.0,1,94.402,
01/01/2000,01:40:16.07,14.15,-73.20,-990.88,192.50,-735.0,-297.50,1,94.407,
01/01/2000,01:40:16.08,14.15,-73.20,-991.01,113.75,-743.75,-350.0,1,94.412,
01/01/2000,01:40:16.09,14.27,-73.20,-991.13,166.25,-752.50,-271.25,1,94.416,
01/01/2000,01:40:16.10,14.40,-73.20,-991.13,201.25,-761.25,-402.50,1,94.421,
01/01/2000,01:40:16.11,14.52,-73.08,-991.01,218.75,-717.50,-402.50,1,94.346,
01/01/2000,01:40:16.12,14.40,-72.96,-990.88,105.0,-682.50,-341.25,1,94.430,
01/01/2000,01:40:16.13,14.52,-73.08,-990.88,210.0,-752.50,-376.25,1,94.356,
01/01/2000,01:40:16.14,14.40,-72.96,-991.13,-8.75,-691.25,-280.0,1,94.360,
01/01/2000,01:40:16.15,14.40,-73.32,-991.13,262.50,-770.0,-376.25,1,94.365,
01/01/2000,01:40:16.16,14.40,-73.20,-991.01,236.25,-752.50,-306.25,1,94.370,
01/01/2000,01:40:16.17,14.40,-73.08,-990.88,166.25,-647.50,-253.75,1,94.374,
01/01/2000,01:40:16.18,14.03,-73.08,-990.88,280.0,-787.50,-420.0,1,94.379,
01/01/2000,01:40:16.19,14.03,-72.96,-991.13,140.0,-656.25,-376.25,1,94.384,
01/01/2000,01:40:16.20,14.15,-73.08,-991.13,78.75,-673.75,-385.0,1,94.389,
01/01/2000,01:40:16.21,14.15,-73.08,-991.13,218.75,-735.0,-385.0,1,94.393,
01/01/2000,01:40:16.22,14.15,-73.20,-991.13,70.0,-682.50,-315.0,1,94.398,
01/01/2000,01:40:16.23,14.15,-73.20,-991.13,131.25,-656.25,-288.75,1,94.403,
01/01/2000,01:40:16.25,14.15,-72.96,-991.13,0.0,-647.50,-306.25,1,94.407,
01/01/2000,01:40:16.26,14.15,-73.08,-991.13,210.0,-612.50,-420.0,1,94.412,
01/01/2000,01:40:16.27,14.15,-72.96,-991.13,78.75,-726.25,-358.75,1,94.417,
01/01/2000,01:40:16.28,14.15,-72.96,-991.01,210.0,-796.25,-271.25,1,94.421,
01/01/2000,01:40:16.29,14.27,-72.96,-991.01,113.75,-682.50,-376.25,1,94.426,
01/01/2000,01:40:16.30,14.27,-72.96,-991.13,166.25,-761.25,-253.75,1,94.431,
01/01/2000,01:40:16.31,14.27,-73.08,-991.13,201.25,-691.25,-411.25,1,94.435,
01/01/2000,01:40:16.32,14.15,-73.20,-991.01,288.75,-638.75,-420.0,1,94.440,
01/01/2000,01:40:16.33,14.03,-72.96,-991.01,8.75,-735.0,-437.50,1,94.444,
01/01/2000,01:40:16.34,14.03,-72.96,-991.01,236.25,-700.0,-332.50,1,94.449,
01/01/2000,01:40:16.35,14.15,-72.83,-991.01,78.75,-630.0,-323.75,1,94.454,
01/01/2000,01:40:16.36,14.15,-73.20,-991.13,148.75,-586.25,-446.25,1,94.458,
01/01/2000,01:40:16.37,14.15,-73.20,-991.01,192.50,-700.0,-288.75,1,94.463,
01/01/2000,01:40:16.38,14.40,-73.08,-991.25,148.75,-717.50,-367.50,1,94.389,
01/01/2000,01:40:16.39,14.40,-72.96,-991.25,35.0,-691.25,-446.25,1,94.394,
01/01/2000,01:40:16.40,14.40,-72.96,-991.25,166.25,-568.75,-271.25,1,94.399,
01/01/2000,01:40:16.41,14.40,-72.96,-991.25,43.75,-761.25,-288.75,1,94.403,
01/01/2000,01:40:16.42,14.40,-73.08,-991.13,105.0,-708.75,-420.0,1,94.408,
01/01/2000,01:40:16.43,14.27,-73.08,-991.25,113.75,-621.25,-428.75,1,94.412,
01/01/2000,01:40:16.44,14.40,-73.08,-991.37,332.50,-595.0,-420.0,1,94.417,
01/01/2000,01:40:16.46,14.40,-72.96,-991.37,87.50,-700.0,-323.75,1,94.422,
01/01/2000,01:40:16.47,14.15,-73.08,-991.37,96.25,-691.25,-420.0,1,94.426,
01/01/2000,01:40:16.48,14.15,-73.20,-991.37,61.25,-761.25,-271.25,1,94.431,
01/01/2000,01:40:16.49,14.03,-72.96,-991.37,227.50,-743.75,-428.75,1,94.435,
01/01/2000,01:40:16.50,14.15,-73.20,-991.37,315.0,-708.75,-306.25,1,94.440,
01/01/2000,01:40:16.51,14.27,-72.96,-991.37,105.0,-647.50,-358.75,1,94.444,
01/01/2000,01:40:16.52,14.27,-73.08,-991.25,166.25,-726.25,-367.50,1,94.449,
01/01/2000,01:40:16.53,14.15,-72.96,-991.37,0.0,-630.0,-192.50,1,94.454,
01/01/2000,01:40:16.55,14.27,-73.20,-991.37,26.25,-621.25,-306.25,1,94.381,
01/01/2000,01:40:16.56,14.27,-73.20,-991.25,78.75,-700.0,-341.25,1,94.386,
01/01/2000,01:40:16.57,14.27,-73.08,-991.13,192.50,-726.25,-350.0,1,94.390,
01/01/2000,01:40:16.58,14.15,-72.96,-991.13,236.25,-673.75,-253.75,1,94.395,
01/01/2000,01:40:16.59,14.15,-73.20,-991.13,253.75,-700.0,-367.50,1,94.399,
01/01/2000,01:40:16.60,14.03,-73.32,-991.13,148.75,-761.25,-385.0,1,94.404,
01/01/2000,01:40:16.61,14.03,-73.32,-991.13,-113.75,-665.0,-446.25,1,94.408,
01/01/2000,01:40:16.62,14.15,-73.20,-991.01,210.0,-682.50,-332.50,1,94.413,
01/01/2000,01:40:16.63,14.15,-73.20,-990.88,183.75,-673.75,-236.25,1,94.417,
01/01/2000,01:40:16.64,14.15,-73.08,-990.88,8.75,-603.75,-341.25,1,94.422,
01/01/2000,01:40:16.65,14.15,-73.20,-991.13,306.25,-551.25,-376.25,1,94.426,
01/01/2000,01:40:16.66,14.15,-73.20,-991.37,175.0,-726.25,-323.75,1,94.431,
01/01/2000,01:40:16.67,14.27,-73.08,-991.13,175.0,-770.0,-411.25,1,94.435,
01/01/2000,01:40:16.68,14.40,-73.08,-991.13,227.50,-612.50,-323.75,1,94.440,
01/01/2000,01:40:16.69,14.40,-73.08,-991.13,96.25,-761.25,-385.0,1,94.444,
01/01/2000,01:40:16.70,14.27,-73.08,-991.13,96.25,-595.0,-262.50,1,94.449,
01/01/2000,01:40:16.71,14.27,-73.20,-991.13,192.50,-542.50,-341.25,1,94.453,
01/01/2000,01:40:16.72,14.15,-73.20,-991.13,148.75,-726.25,-402.50,1,94.458,
01/01/2000,01:40:16.73,14.27,-73.20,-990.88,43.75,-743.75,-376.25,1,94.462,
01/01/2000,01:40:16.74,14.15,-73.20,-990.88,236.25,-621.25,-376.25,1,94.391,
01/01/2000,01:40:16.75,14.27,-72.96,-991.13,218.75,-673.75,-341.25,1,94.396,
01/01/2000,01:40:16.76,14.15,-73.20,-991.13,87.50,-647.50,-297.50,1,94.400,
01/01/2000,01:40:16.77,14.15,-73.20,-991.01,297.50,-717.50,-455.0,1,94.404,
01/01/2000,01:40:16.78,14.27,-73.08,-991.01,70.0,-726.25,-315.0,1,94.409,
01/01/2000,01:40:16.79,14.40,-73.08,-990.76,78.75,-743.75,-323.75,1,94.413,
01/01/2000,01:40:16.81,14.40,-72.96,-990.76,166.25,-708.75,-437.50,1,94.418,
01/01/2000,01:40:16.82,14.40,-73.08,-990.64,148.75,-665.0,-385.0,1,94.422,
01/01/2000,01:40:16.83,14.40,-72.83,-990.76,-17.50,-735.0,-201.25,1,94.427,
01/01/2000,01:40:16.84,14.52,-72.96,-990.88,411.25,-682.50,-376.25,1,94.431,
01/01/2000,01:40:16.85,14.52,-72.83,-991.01,43.75,-665.0,-367.50,1,94.436,
01/01/2000,01:40:16.86,14.40,-72.71,-991.13,-8.75,-700.0,-297.50,1,94.440,
01/01/2000,01:40:16.87,14.40,-72.71,-990.88,253.75,-796.25,-402.50,1,94.444,
01/01/2000,01:40:16.88,14.27,-72.71,-990.88,61.25,-708.75,-271.25,1,94.374,
01/01/2000,01:40:16.89,14.27,-72.71,-990.76,175.0,-507.50,-367.50,1,94.378,
01/01/2000,01:40:16.90,14.27,-72.47,-990.76,-78.75,-638.75,-402.50,1,94.383,
01/01/2000,01:40:16.91,14.27,-72.71,-990.76,105.0,-708.75,-367.50,1,94.387,
01/01/2000,01:40:16.92,14.15,-72.71,-991.01,70.0,-717.50,-376.25,1,94.392,
01/01/2000,01:40:16.93,14.27,-72.59,-991.01,210.0,-700.0,-376.25,1,94.396,
01/01/2000,01:40:16.94,14.27,-72.71,-991.13,192.50,-638.75,-367.50,1,94.401,
01/01/2000,01:40:16.96,14.15,-72.59,-991.01,227.50,-770.0,-350.0,1,94.405,
01/01/2000,01:40:16.97,14.03,-72.71,-991.01,26.25,-700.0,-350.0,1,94.409,
01/01/2000,01:40:16.98,14.03,-72.96,-991.01,105.0,-708.75,-262.50,1,94.414,
01/01/2000,01:40:16.99,14.03,-73.20,-990.88,218.75,-761.25,-367.50,1,94.418,
01/01/2000,01:40:17.00,14.15,-73.08,-990.88,61.25,-682.50,-280.0,1,94.423,
01/01/2000,01:40:17.01,14.15,-73.08,-991.01,297.50,-665.0,-358.75,1,94.427,
01/01/2000,01:40:17.02,14.40,-72.96,-991.13,61.25,-577.50,-288.75,1,94.431,
01/01/2000,01:40:17.03,14.40,-73.08,-991.01,210.0,-691.25,-490.0,1,94.436,
01/01/2000,01:40:17.04,14.27,-73.20,-990.88,201.25,-778.75,-262.50,1,94.440,
01/01/2000,01:40:17.05,14.27,-73.08,-990.88,192.50,-743.75,-455.0,1,94.371,
01/01/2000,01:40:17.07,14.40,-73.20,-990.88,262.50,-647.50,-455.0,1,94.375,
01/01/2000,01:40:17.08,14.27,-72.83,-990.88,78.75,-691.25,-262.50,1,94.379,
01/01/2000,01:40:17.09,14.15,-72.96,-991.01,306.25,-586.25,-253.75,1,94.384,
01/01/2000,01:40:17.10,14.40,-72.83,-991.01,148.75,-735.0,-367.50,1,94.388,
01/01/2000,01:40:17.11,14.40,-72.96,-990.88,183.75,-682.50,-306.25,1,94.393,
01/01/2000,01:40:17.12,14.40,-72.83,-990.76,166.25,-682.50,-332.50,1,94.397,
01/01/2000,01:40:17.13,14.27,-72.83,-990.76,183.75,-770.0,-350.0,1,94.401,
01/01/2000,01:40:17.14,14.27,-72.96,-990.76,78.75,-708.75,-350.0,1,94.406,
01/01/2000,01:40:17.15,14.15,-72.96,-990.88,70.0,-770.0,-271.25,1,94.410,
01/01/2000,01:40:17.16,14.15,-73.08,-990.88,236.25,-682.50,-253.75,1,94.414,
01/01/2000,01:40:17.17,14.27,-73.20,-991.01,218.75,-656.25,-393.75,1,94.419,
01/01/2000,01:40:17.18,14.40,-72.96,-990.88,70.0,-682.50,-463.75,1,94.423,
01/01/2000,01:40:17.19,14.40,-72.96,-991.01,192.50,-656.25,-271.25,1,94.427,
01/01/2000,01:40:17.20,14.40,-72.96,-990.88,227.50,-726.25,-315.0,1,94.432,
01/01/2000,01:40:17.21,14.27,-73.08,-990.88,166.25,-700.0,-288.75,1,94.436,
01/01/2000,01:40:17.22,14.40,-73.20,-990.76,271.25,-700.0,-437.50,1,94.440,
01/01/2000,01:40:17.23,14.40,-73.20,-990.64,271.25,-735.0,-358.75,1,94.372,
01/01/2000,01:40:17.24,14.27,-73.08,-990.76,78.75,-752.50,-323.75,1,94.376,
01/01/2000,01:40:17.25,14.27,-73.20,-990.88,183.75,-691.25,-341.25,1,94.380,
01/01/2000,01:40:17.26,14.15,-73.08,-991.01,140.0,-682.50,-315.0,1,94.385,
01/01/2000,01:40:17.27,14.15,-73.20,-990.88,288.75,-708.75,-262.50,1,94.389,
01/01/2000,01:40:17.28,14.27,-73.20,-991.01,201.25,-717.50,-350.0,1,94.393,
01/01/2000,01:40:17.29,14.40,-73.20,-991.13,297.50,-752.50,-402.50,1,94.398,
01/01/2000,01:40:17.31,14.40,-73.20,-991.13,315.0,-700.0,-420.0,1,94.402,
01/01/2000,01:40:17.32,14.40,-72.96,-991.25,271.25,-603.75,-332.50,1,94.406,
01/01/2000,01:40:17.33,14.40,-73.08,-991.25,288.75,-770.0,-542.50,1,94.410,
01/01/2000,01:40:17.34,14.15,-72.83,-991.25,113.75,-726.25,-306.25,1,94.415,
01/01/2000,01:40:17.35,14.27,-72.96,-991.13,271.25,-691.25,-341.25,1,94.419,
01/01/2000,01:40:17.36,14.27,-72.96,-991.25,157.50,-778.75,-288.75,1,94.423,
01/01/2000,01:40:17.37,14.27,-73.08,-991.13,17.50,-656.25,-306.25,1,94.355,
01/01/2000,01:40:17.38,14.40,-73.20,-991.13,113.75,-621.25,-350.0,1,94.360,
01/01/2000,01:40:17.39,14.27,-73.32,-991.13,227.50,-761.25,-315.0,1,94.364,
01/01/2000,01:40:17.40,14.15,-73.20,-991.13,70.0,-726.25,-262.50,1,94.368,
01/01/2000,01:40:17.41,14.15,-73.20,-991.25,271.25,-700.0,-288.75,1,94.373,
01/01/2000,01:40:17.42,14.27,-73.20,-991.25,61.25,-770.0,-341.25,1,94.377,
01/01/2000,01:40:17.43,14.15,-73.32,-990.88,105.0,-735.0,-411.25,1,94.381,
01/01/2000,01:40:17.45,14.15,-73.32,-990.88,166.25,-778.75,-358.75,1,94.385,
01/01/2000,01:40:17.46,14.15,-73.08,-991.01,96.25,-682.50,-341.25,1,94.390,
01/01/2000,01:40:17.47,14.27,-72.96,-991.13,96.25,-595.0,-297.50,1,94.394,
01/01/2000,01:40:17.48,14.40,-73.08,-991.01,341.25,-735.0,-411.25,1,94.398,
01/01/2000,01:40:17.49,14.27,-73.20,-991.01,218.75,-682.50,-367.50,1,94.402,
01/01/2000,01:40:17.50,14.15,-73.20,-991.13,-8.75,-700.0,-437.50,1,94.407,
01/01/2000,01:40:17.51,14.40,-73.20,-991.13,148.75,-717.50,-315.0,1,94.411,
01/01/2000,01:40:17.52,14.40,-73.20,-991.13,358.75,-621.25,-420.0,1,94.415,
01/01/2000,01:40:17.53,14.15,-73.44,-990.88,113.75,-612.50,-253.75,1,94.348,
01/01/2000,01:40:17.54,14.15,-73.32,-991.01,210.0,-647.50,-315.0,1,94.424,
01/01/2000,01:40:17.55,14.15,-73.20,-991.13,105.0,-673.75,-306.25,1,94.357,
01/01/2000,01:40:17.57,14.27,-73.08,-991.13,175.0,-647.50,-315.0,1,94.361,
01/01/2000,01:40:17.58,14.15,-72.96,-991.25,148.75,-682.50,-446.25,1,94.365,
01/01/2000,01:40:17.59,14.15,-73.20,-991.13,306.25,-603.75,-367.50,1,94.369,
01/01/2000,01:40:17.60,14.40,-72.96,-991.25,52.50,-752.50,-315.0,1,94.374,
01/01/2000,01:40:17.61,14.40,-73.08,-991.37,78.75,-717.50,-341.25,1,94.378,
01/01/2000,01:40:17.62,14.40,-73.08,-991.37,218.75,-708.75,-280.0,1,94.382,
01/01/2000,01:40:17.63,14.27,-72.96,-991.25,96.25,-717.50,-236.25,1,94.386,
01/01/2000,01:40:17.64,14.40,-73.08,-991.25,192.50,-735.0,-315.0,1,94.390,
01/01/2000,01:40:17.65,14.52,-73.08,-991.25,148.75,-743.75,-446.25,1,94.395,
01/01/2000,01:40:17.66,14.52,-73.08,-991.49,157.50,-621.25,-402.50,1,94.399,
01/01/2000,01:40:17.67,14.64,-73.20,-991.49,262.50,-603.75,-472.50,1,94.403,
01/01/2000,01:40:17.68,14.40,-72.96,-991.37,131.25,-752.50,-358.75,1,94.407,
01/01/2000,01:40:17.69,14.27,-72.96,-991.37,227.50,-647.50,-227.50,1,94.411,
01/01/2000,01:40:17.70,14.40,-73.20,-991.37,350.0,-568.75,-437.50,1,94.415,
01/01/2000,01:40:17.71,14.15,-73.08,-991.25,8.75,-700.0,-175.0,1,94.420,
01/01/2000,01:40:17.72,14.15,-73.32,-991.37,157.50,-647.50,-280.0,1,94.424,
01/01/2000,01:40:17.73,14.15,-73.20,-991.37,201.25,-673.75,-297.50,1,94.358,
01/01/2000,01:40:17.74,14.15,-73.08,-991.49,61.25,-612.50,-288.75,1,94.362,
01/01/2000,01:40:17.75,14.27,-73.20,-991.37,166.25,-770.0,-367.50,1,94.366,
01/01/2000,01:40:17.77,14.15,-73.08,-991.62,131.25,-708.75,-393.75,1,94.370,
01/01/2000,01:40:17.77,14.15,-73.08,-991.74,131.25,-743.75,-341.25,1,94.375,
01/01/2000,01:40:17.79,14.15,-73.20,-991.74,183.75,-673.75,-367.50,1,94.379,
01/01/2000,01:40:17.80,14.15,-73.20,-991.74,113.75,-682.50,-428.75,1,94.383,
01/01/2000,01:40:17.81,14.15,-73.20,-991.62,306.25,-708.75,-332.50,1,94.387,
01/01/2000,01:40:17.82,14.15,-73.20,-991.37,306.25,-647.50,-323.75,1,94.391,
01/01/2000,01:40:17.83,14.15,-73.08,-991.37,105.0,-603.75,-411.25,1,94.395,
01/01/2000,01:40:17.84,14.15,-73.32,-991.37,175.0,-743.75,-420.0,1,94.399,
01/01/2000,01:40:17.85,14.15,-73.44,-991.62,201.25,-883.75,-148.75,1,94.404,
01/01/2000,01:40:17.86,14.27,-73.32,-991.62,183.75,-665.0,-376.25,1,94.408,
01/01/2000,01:40:17.87,14.27,-73.20,-991.62,35.0,-875.0,-262.50,1,94.342,
01/01/2000,01:40:17.88,14.27,-73.20,-991.49,245.0,-691.25,-323.75,1,94.347,
01/01/2000,01:40:17.89,14.15,-73.08,-991.62,78.75,-708.75,-358.75,1,94.351,
01/01/2000,01:40:17.90,14.15,-73.08,-991.62,227.50,-700.0,-315.0,1,94.355,
01/01/2000,01:40:17.91,14.15,-73.20,-991.62,218.75,-682.50,-472.50,1,94.359,
01/01/2000,01:40:17.92,14.27,-72.96,-991.62,105.0,-638.75,-280.0,1,94.363,
01/01/2000,01:40:17.93,14.40,-73.32,-991.37,113.75,-647.50,-288.75,1,94.367,
01/01/2000,01:40:17.95,14.40,-73.20,-991.49,26.25,-717.50,-350.0,1,94.371,
01/01/2000,01:40:17.96,14.40,-73.32,-991.49,8.75,-743.75,-323.75,1,94.375,
01/01/2000,01:40:17.97,14.40,-73.44,-991.49,385.0,-621.25,-455.0,1,94.380,
01/01/2000,01:40:17.98,14.52,-73.44,-991.49,113.75,-691.25,-332.50,1,94.384,
01/01/2000,01:40:17.99,14.40,-73.32,-991.62,148.75,-638.75,-288.75,1,94.388,
01/01/2000,01:40:18.00,14.40,-73.20,-991.37,26.25,-665.0,-271.25,1,94.392,
01/01/2000,01:40:18.01,14.40,-73.32,-991.37,288.75,-595.0,-367.50,1,94.396,
01/01/2000,01:40:18.02,14.27,-73.32,-991.37,105.0,-656.25,-341.25,1,94.400,
01/01/2000,01:40:18.03,14.27,-73.20,-991.37,43.75,-673.75,-280.0,1,94.404,
01/01/2000,01:40:18.04,14.27,-73.32,-991.37,271.25,-673.75,-402.50,1,94.408,
01/01/2000,01:40:18.05,14.40,-73.20,-991.37,0.0,-726.25,-227.50,1,94.412,
01/01/2000,01:40:18.06,14.27,-73.32,-991.25,157.50,-700.0,-306.25,1,94.416,
01/01/2000,01:40:18.08,14.15,-73.20,-991.37,271.25,-586.25,-367.50,1,94.352,
01/01/2000,01:40:18.09,14.03,-73.20,-991.49,122.50,-708.75,-437.50,1,94.288,
01/01/2000,01:40:18.10,14.03,-73.20,-991.37,183.75,-752.50,-288.75,1,94.292,
01/01/2000,01:40:18.11,13.91,-73.20,-991.37,148.75,-805.0,-297.50,1,94.296,
01/01/2000,01:40:18.12,13.79,-73.20,-991.25,227.50,-752.50,-280.0,1,94.300,
01/01/2000,01:40:18.13,13.79,-73.32,-991.49,175.0,-595.0,-367.50,1,94.304,
01/01/2000,01:40:18.14,13.91,-73.32,-991.37,166.25,-630.0,-341.25,1,94.308,
01/01/2000,01:40:18.15,14.03,-73.20,-991.62,201.25,-673.75,-385.0,1,94.312,
01/01/2000,01:40:18.17,14.03,-73.08,-991.49,157.50,-673.75,-385.0,1,94.317,
01/01/2000,01:40:18.18,14.03,-73.08,-991.62,61.25,-586.25,-367.50,1,94.321,
01/01/2000,01:40:18.19,14.15,-72.96,-991.74,236.25,-673.75,-446.25,1,94.325,
01/01/2000,01:40:18.20,14.15,-72.96,-991.86,227.50,-647.50,-411.25,1,94.329,
01/01/2000,01:40:18.21,14.27,-73.20,-991.86,166.25,-822.50,-358.75,1,94.333,
01/01/2000,01:40:18.22,14.27,-73.20,-991.74,218.75,-761.25,-341.25,1,94.337,
01/01/2000,01:40:18.23,14.40,-73.32,-991.74,280.0,-665.0,-306.25,1,94.341,
01/01/2000,01:40:18.24,14.40,-73.08,-991.86,87.50,-743.75,-280.0,1,94.345,
01/01/2000,01:40:18.25,14.27,-73.32,-991.98,306.25,-682.50,-280.0,1,94.349,
01/01/2000,01:40:18.26,14.27,-73.32,-991.86,315.0,-700.0,-411.25,1,94.353,
01/01/2000,01:40:18.27,14.15,-73.32,-991.62,166.25,-708.75,-341.25,1,94.357,
01/01/2000,01:40:18.28,14.27,-73.32,-991.62,78.75,-708.75,-367.50,1,94.361,
01/01/2000,01:40:18.29,14.40,-73.20,-991.49,87.50,-752.50,-297.50,1,94.365,
01/01/2000,01:40:18.30,14.27,-73.20,-991.49,183.75,-717.50,-402.50,1,94.302,
01/01/2000,01:40:18.31,14.27,-73.20,-991.49,183.75,-761.25,-297.50,1,94.306,
01/01/2000,01:40:18.32,14.40,-73.20,-991.49,175.0,-638.75,-297.50,1,94.310,
01/01/2000,01:40:18.33,14.52,-73.20,-991.37,210.0,-691.25,-323.75,1,94.314,
01/01/2000,01:40:18.34,14.64,-73.08,-991.37,201.25,-761.25,-490.0,1,94.318,
01/01/2000,01:40:18.35,14.64,-73.20,-991.49,236.25,-796.25,-245.0,1,94.322,
01/01/2000,01:40:18.37,14.64,-73.08,-991.37,96.25,-717.50,-341.25,1,94.326,
01/01/2000,01:40:18.38,14.40,-73.08,-991.37,192.50,-761.25,-306.25,1,94.330,
01/01/2000,01:40:18.39,14.40,-73.08,-991.49,175.0,-752.50,-376.25,1,94.334,
01/01/2000,01:40:18.40,14.52,-73.08,-991.49,192.50,-612.50,-367.50,1,94.338,
01/01/2000,01:40:18.41,14.40,-73.32,-991.62,61.25,-700.0,-385.0,1,94.342,
01/01/2000,01:40:18.42,14.40,-73.32,-991.49,201.25,-761.25,-393.75,1,94.346,
01/01/2000,01:40:18.43,14.40,-73.20,-991.49,175.0,-700.0,-323.75,1,94.350,
01/01/2000,01:40:18.44,14.27,-73.20,-991.49,8.75,-717.50,-306.25,1,94.354,
01/01/2000,01:40:18.45,14.15,-73.20,-991.74,148.75,-630.0,-367.50,1,94.358,
01/01/2000,01:40:18.46,14.15,-73.08,-991.74,131.25,-621.25,-358.75,1,94.362,
01/01/2000,01:40:18.47,14.27,-73.08,-991.62,113.75,-726.25,-341.25,1,94.366,
01/01/2000,01:40:18.48,14.40,-73.20,-991.49,175.0,-700.0,-376.25,1,94.370,
01/01/2000,01:40:18.49,14.40,-73.20,-991.62,87.50,-673.75,-411.25,1,94.374,
01/01/2000,01:40:18.50,14.40,-73.20,-991.74,210.0,-656.25,-271.25,1,94.378,
01/01/2000,01:40:18.52,14.15,-73.08,-991.62,87.50,-568.75,-323.75,1,94.316,
01/01/2000,01:40:18.53,14.15,-73.20,-991.49,183.75,-647.50,-253.75,1,94.320,
01/01/2000,01:40:18.54,14.15,-73.20,-991.62,96.25,-717.50,-323.75,1,94.324,
01/01/2000,01:40:18.55,14.15,-73.08,-991.74,-43.75,-682.50,-210.0,1,94.328,
01/01/2000,01:40:18.56,14.27,-73.32,-991.49,227.50,-647.50,-446.25,1,94.332,
01/01/2000,01:40:18.57,14.15,-73.20,-991.49,113.75,-673.75,-315.0,1,94.336,
01/01/2000,01:40:18.58,14.03,-73.08,-991.37,140.0,-603.75,-446.25,1,94.274,
01/01/2000,01:40:18.59,14.15,-72.96,-991.62,122.50,-630.0,-367.50,1,94.278,
01/01/2000,01:40:18.60,14.27,-72.71,-991.49,166.25,-647.50,-245.0,1,94.282,
01/01/2000,01:40:18.61,14.27,-72.96,-991.37,201.25,-743.75,-402.50,1,94.286,
01/01/2000,01:40:18.62,14.15,-73.08,-991.37,105.0,-691.25,-358.75,1,94.290,
01/01/2000,01:40:18.63,14.15,-73.32,-991.37,157.50,-577.50,-385.0,1,94.294,
01/01/2000,01:40:18.65,14.03,-73.32,-991.49,87.50,-682.50,-358.75,1,94.298,
01/01/2000,01:40:18.66,14.03,-73.32,-991.62,183.75,-498.75,-280.0,1,94.302,
01/01/2000,01:40:18.67,14.15,-73.20,-991.49,157.50,-612.50,-411.25,1,94.306,
01/01/2000,01:40:18.68,14.15,-73.20,-991.37,297.50,-630.0,-253.75,1,94.310,
01/01/2000,01:40:18.69,14.27,-73.32,-991.37,35.0,-726.25,-367.50,1,94.313,
01/01/2000,01:40:18.70,14.15,-73.69,-991.37,201.25,-770.0,-463.75,1,94.317,
01/01/2000,01:40:18.71,14.03,-73.44,-991.62,-35.0,-726.25,-446.25,1,94.321,
01/01/2000,01:40:18.72,14.15,-73.44,-991.62,201.25,-743.75,-358.75,1,94.325,
01/01/2000,01:40:18.73,14.15,-73.08,-991.62,0.0,-612.50,-297.50,1,94.329,
01/01/2000,01:40:18.74,14.27,-73.20,-991.62,87.50,-656.25,-297.50,1,94.333,
01/01/2000,01:40:18.75,14.27,-73.20,-991.49,140.0,-743.75,-262.50,1,94.337,
01/01/2000,01:40:18.76,14.15,-73.44,-991.37,192.50,-638.75,-402.50,1,94.341,
01/01/2000,01:40:18.77,14.27,-73.44,-991.37,218.75,-787.50,-376.25,1,94.345,
01/01/2000,01:40:18.78,14.40,-73.32,-991.37,131.25,-743.75,-411.25,1,94.349,
01/01/2000,01:40:18.79,14.27,-73.08,-991.25,113.75,-700.0,-341.25,1,94.288,
01/01/2000,01:40:18.80,14.27,-73.20,-991.13,236.25,-673.75,-288.75,1,94.292,
01/01/2000,01:40:18.81,14.15,-73.20,-991.25,8.75,-691.25,-262.50,1,94.296,
01/01/2000,01:40:18.82,14.15,-73.57,-991.37,96.25,-682.50,-227.50,1,94.299,
01/01/2000,01:40:18.83,14.15,-73.57,-991.13,131.25,-700.0,-376.25,1,94.303,
01/01/2000,01:40:18.84,14.15,-73.20,-991.01,175.0,-700.0,-358.75,1,94.307,
01/01/2000,01:40:18.85,14.27,-73.20,-991.13,175.0,-813.75,-323.75,1,94.311,
01/01/2000,01:40:18.87,14.27,-73.20,-991.13,210.0,-665.0,-420.0,1,94.315,
01/01/2000,01:40:18.88,14.15,-73.32,-991.37,175.0,-726.25,-315.0,1,94.319,
01/01/2000,01:40:18.89,14.27,-73.20,-991.37,-26.25,-595.0,-446.25,1,94.323,
01/01/2000,01:40:18.90,14.40,-73.44,-991.37,245.0,-612.50,-306.25,1,94.327,
01/01/2000,01:40:18.91,14.40,-73.20,-991.49,262.50,-726.25,-227.50,1,94.331,
01/01/2000,01:40:18.92,14.27,-73.20,-991.49,148.75,-717.50,-262.50,1,94.334,
01/01/2000,01:40:18.93,14.27,-73.32,-991.49,131.25,-726.25,-376.25,1,94.338,
01/01/2000,01:40:18.94,14.15,-73.44,-991.49,367.50,-586.25,-393.75,1,94.342,
01/01/2000,01:40:18.95,14.15,-73.32,-991.49,148.75,-665.0,-323.75,1,94.346,
01/01/2000,01:40:18.96,14.27,-73.08,-991.37,35.0,-665.0,-306.25,1,94.350,
01/01/2000,01:40:18.97,14.15,-73.08,-991.13,218.75,-717.50,-332.50,1,94.354,
01/01/2000,01:40:18.98,14.15,-73.20,-991.25,52.50,-743.75,-332.50,1,94.358,
01/01/2000,01:40:18.99,14.15,-73.20,-991.37,35.0,-647.50,-367.50,1,94.361,
01/01/2000,01:40:19.00,14.15,-73.20,-991.49,210.0,-700.0,-411.25,1,94.301,
01/01/2000,01:40:19.01,14.27,-73.20,-991.37,157.50,-551.25,-297.50,1,94.305,
01/01/2000,01:40:19.02,14.15,-73.20,-991.25,192.50,-656.25,-323.75,1,94.309,
01/01/2000,01:40:19.03,14.15,-73.20,-991.25,236.25,-726.25,-166.25,1,94.313,
01/01/2000,01:40:19.04,14.15,-73.44,-991.74,192.50,-603.75,-455.0,1,94.317,
01/01/2000,01:40:19.05,14.15,-73.20,-991.86,70.0,-682.50,-271.25,1,94.320,
01/01/2000,01:40:19.06,14.27,-73.32,-991.62,166.25,-673.75,-402.50,1,94.324,
01/01/2000,01:40:19.08,14.15,-73.20,-991.49,87.50,-656.25,-323.75,1,94.328,
01/01/2000,01:40:19.09,14.03,-73.20,-991.37,-8.75,-840.0,-262.50,1,94.332,
01/01/2000,01:40:19.10,14.15,-73.20,-991.62,175.0,-673.75,-472.50,1,94.336,
01/01/2000,01:40:19.11,14.15,-72.96,-991.62,148.75,-796.25,-262.50,1,94.340,
01/01/2000,01:40:19.12,14.15,-72.96,-991.37,61.25,-638.75,-201.25,1,94.343,
01/01/2000,01:40:19.13,13.91,-72.83,-991.13,96.25,-761.25,-428.75,1,94.347,
01/01/2000,01:40:19.14,14.15,-73.08,-991.13,245.0,-542.50,-376.25,1,94.288,
01/01/2000,01:40:19.15,14.15,-72.96,-991.25,201.25,-787.50,-341.25,1,94.291,
01/01/2000,01:40:19.16,14.15,-73.08,-991.49,175.0,-787.50,-245.0,1,94.295,
01/01/2000,01:40:19.17,14.15,-72.96,-991.37,61.25,-752.50,-271.25,1,94.299,
01/01/2000,01:40:19.18,14.15,-72.96,-991.37,157.50,-673.75,-315.0,1,94.303,
01/01/2000,01:40:19.19,14.15,-72.83,-991.37,140.0,-542.50,-271.25,1,94.307,
01/01/2000,01:40:19.20,14.27,-72.96,-991.37,35.0,-726.25,-358.75,1,94.311,
01/01/2000,01:40:19.21,14.15,-73.20,-991.62,253.75,-691.25,-367.50,1,94.314,
01/01/2000,01:40:19.22,14.15,-73.20,-991.49,8.75,-647.50,-376.25,1,94.318,
01/01/2000,01:40:19.23,14.15,-73.20,-991.37,35.0,-752.50,-498.75,1,94.322,
01/01/2000,01:40:19.24,14.27,-73.20,-991.25,148.75,-603.75,-271.25,1,94.326,
01/01/2000,01:40:19.25,14.27,-72.96,-991.37,-70.0,-665.0,-402.50,1,94.330,
01/01/2000,01:40:19.26,14.27,-73.08,-991.49,192.50,-726.25,-323.75,1,94.333,
01/01/2000,01:40:19.27,14.15,-72.83,-991.37,218.75,-743.75,-332.50,1,94.337,
01/01/2000,01:40:19.29,14.15,-73.08,-991.37,218.75,-735.0,-376.25,1,94.341,
01/01/2000,01:40:19.30,14.15,-73.20,-991.37,43.75,-560.0,-306.25,1,94.345,
01/01/2000,01:40:19.31,14.15,-73.32,-991.37,315.0,-743.75,-402.50,1,94.348,
01/01/2000,01:40:19.32,14.15,-73.08,-991.37,87.50,-595.0,-227.50,1,94.352,
01/01/2000,01:40:19.33,14.15,-73.20,-991.37,262.50,-708.75,-297.50,1,94.356,
01/01/2000,01:40:19.34,14.15,-73.20,-991.49,236.25,-665.0,-280.0,1,94.360,
01/01/2000,01:40:19.35,14.15,-73.20,-991.49,192.50,-708.75,-411.25,1,94.363,
01/01/2000,01:40:19.36,14.15,-73.32,-991.62,201.25,-700.0,-358.75,1,94.305,
01/01/2000,01:40:19.37,14.03,-73.20,-991.62,140.0,-656.25,-323.75,1,94.308,
01/01/2000,01:40:19.38,14.15,-73.32,-991.49,61.25,-691.25,-350.0,1,94.312,
01/01/2000,01:40:19.39,14.15,-73.44,-991.62,96.25,-691.25,-315.0,1,94.316,
01/01/2000,01:40:19.40,14.03,-73.32,-991.49,262.50,-603.75,-332.50,1,94.320,
01/01/2000,01:40:19.41,14.15,-73.32,-991.62,175.0,-638.75,-332.50,1,94.323,
01/01/2000,01:40:19.43,14.15,-73.32,-991.49,280.0,-726.25,-411.25,1,94.327,
01/01/2000,01:40:19.44,14.27,-73.20,-991.49,78.75,-621.25,-306.25,1,94.331,
01/01/2000,01:40:19.45,14.40,-73.20,-991.49,113.75,-717.50,-210.0,1,94.335,
01/01/2000,01:40:19.46,14.27,-73.32,-991.49,253.75,-603.75,-420.0,1,94.338,
01/01/2000,01:40:19.47,14.27,-73.32,-991.49,122.50,-630.0,-332.50,1,94.342,
01/01/2000,01:40:19.48,14.40,-73.08,-991.37,227.50,-673.75,-350.0,1,94.346,
01/01/2000,01:40:19.49,14.27,-73.20,-991.37,105.0,-621.25,-367.50,1,94.350,
01/01/2000,01:40:19.50,14.15,-73.20,-991.13,26.25,-542.50,-175.0,1,94.353,
01/01/2000,01:40:19.51,14.15,-73.20,-991.25,131.25,-656.25,-315.0,1,94.357,
01/01/2000,01:40:19.52,14.40,-73.20,-991.37,227.50,-656.25,-227.50,1,94.361,
01/01/2000,01:40:19.53,14.15,-73.08,-991.37,-78.75,-708.75,-420.0,1,94.364,
01/01/2000,01:40:19.54,14.27,-73.20,-991.25,315.0,-647.50,-402.50,1,94.368,
01/01/2000,01:40:19.55,14.40,-73.20,-991.25,183.75,-761.25,-437.50,1,94.372,
01/01/2000,01:40:19.56,14.40,-72.96,-991.37,70.0,-831.25,-315.0,1,94.314,
01/01/2000,01:40:19.57,14.40,-73.20,-991.25,253.75,-743.75,-490.0,1,94.317,
01/01/2000,01:40:19.58,14.40,-73.20,-991.25,78.75,-787.50,-236.25,1,94.321,
01/01/2000,01:40:19.59,14.27,-73.08,-991.13,26.25,-717.50,-376.25,1,94.325,
01/01/2000,01:40:19.61,14.15,-73.08,-991.13,52.50,-630.0,-367.50,1,94.329,
01/01/2000,01:40:19.62,14.40,-73.20,-991.13,306.25,-682.50,-350.0,1,94.332,
01/01/2000,01:40:19.63,14.40,-73.08,-991.37,87.50,-612.50,-323.75,1,94.336,
01/01/2000,01:40:19.64,14.40,-72.96,-991.37,262.50,-691.25,-376.25,1,94.340,
01/01/2000,01:40:19.65,14.27,-73.32,-991.49,183.75,-700.0,-393.75,1,94.343,
01/01/2000,01:40:19.66,14.27,-72.96,-991.49,61.25,-735.0,-393.75,1,94.347,
01/01/2000,01:40:19.67,14.52,-73.20,-991.62,148.75,-752.50,-350.0,1,94.351,
01/01/2000,01:40:19.68,14.40,-73.08,-991.62,175.0,-796.25,-446.25,1,94.354,
01/01/2000,01:40:19.69,14.27,-72.96,-991.62,201.25,-673.75,-280.0,1,94.358,
01/01/2000,01:40:19.70,14.15,-72.83,-991.74,271.25,-647.50,-420.0,1,94.362,
01/01/2000,01:40:19.71,14.40,-72.96,-991.86,78.75,-717.50,-271.25,1,94.304,
01/01/2000,01:40:19.72,14.40,-72.71,-991.86,157.50,-656.25,-271.25,1,94.308,
01/01/2000,01:40:19.73,14.52,-72.96,-991.62,315.0,-638.75,-271.25,1,94.312,
01/01/2000,01:40:19.74,14.52,-72.96,-991.49,306.25,-717.50,-350.0,1,94.315,
01/01/2000,01:40:19.75,14.64,-73.08,-991.62,35.0,-621.25,-350.0,1,94.319,
01/01/2000,01:40:19.76,14.64,-72.96,-991.62,236.25,-822.50,-490.0,1,94.323,
01/01/2000,01:40:19.78,14.40,-72.96,-991.62,218.75,-708.75,-385.0,1,94.326,
01/01/2000,01:40:19.79,14.40,-72.96,-991.62,148.75,-691.25,-323.75,1,94.330,
01/01/2000,01:40:19.80,14.27,-72.96,-991.49,253.75,-682.50,-376.25,1,94.334,
01/01/2000,01:40:19.81,14.40,-73.32,-991.37,306.25,-673.75,-393.75,1,94.337,
01/01/2000,01:40:19.82,14.40,-73.44,-991.49,105.0,-761.25,-402.50,1,94.341,
01/01/2000,01:40:19.83,14.27,-73.32,-991.37,148.75,-630.0,-376.25,1,94.344,
01/01/2000,01:40:19.84,14.40,-73.44,-991.37,218.75,-603.75,-332.50,1,94.348,
01/01/2000,01:40:19.85,14.40,-73.32,-991.49,43.75,-577.50,-218.75,1,94.352,
01/01/2000,01:40:19.86,14.27,-73.32,-991.49,96.25,-682.50,-420.0,1,94.355,
01/01/2000,01:40:19.87,14.40,-73.32,-991.49,306.25,-682.50,-350.0,1,94.359,
01/01/2000,01:40:19.88,14.40,-73.08,-991.37,148.75,-761.25,-376.25,1,94.363,
01/01/2000,01:40:19.89,14.52,-73.20,-991.37,192.50,-700.0,-376.25,1,94.366,
01/01/2000,01:40:19.90,14.40,-73.08,-991.25,271.25,-673.75,-288.75,1,94.370,
01/01/2000,01:40:19.91,14.27,-73.20,-991.13,113.75,-656.25,-341.25,1,94.373,
01/01/2000,01:40:19.92,14.27,-73.08,-991.25,-26.25,-603.75,-262.50,1,94.317,
01/01/2000,01:40:19.94,14.40,-73.20,-991.25,297.50,-691.25,-367.50,1,94.320,
01/01/2000,01:40:19.94,14.40,-73.08,-991.13,17.50,-700.0,-280.0,1,94.324,
01/01/2000,01:40:19.96,14.27,-73.20,-991.13,166.25,-752.50,-411.25,1,94.328,
01/01/2000,01:40:19.97,14.27,-73.20,-991.13,148.75,-752.50,-393.75,1,94.331,
01/01/2000,01:40:19.98,14.40,-73.08,-991.13,140.0,-673.75,-411.25,1,94.335,
01/01/2000,01:40:19.99,14.40,-72.96,-991.13,166.25,-778.75,-420.0,1,94.338,
01/01/2000,01:40:20.00,14.27,-72.96,-991.01,210.0,-708.75,-393.75,1,94.342,
01/01/2000,01:40:20.01,14.15,-72.96,-990.88,113.75,-656.25,-253.75,1,94.346,
01/01/2000,01:40:20.02,14.15,-72.96,-990.88,70.0,-682.50,-332.50,1,94.349,
01/01/2000,01:40:20.03,14.27,-73.20,-991.01,192.50,-700.0,-376.25,1,94.353,
01/01/2000,01:40:20.04,14.27,-73.20,-991.13,157.50,-726.25,-420.0,1,94.356,
01/01/2000,01:40:20.05,14.27,-73.08,-991.01,140.0,-682.50,-358.75,1,94.360,
01/01/2000,01:40:20.06,14.15,-72.96,-991.01,175.0,-717.50,-420.0,1,94.304,
01/01/2000,01:40:20.07,14.15,-73.08,-990.88,157.50,-691.25,-481.25,1,94.307,
01/01/2000,01:40:20.08,14.27,-73.20,-991.01,52.50,-778.75,-402.50,1,94.311,
01/01/2000,01:40:20.09,14.15,-73.20,-991.13,140.0,-726.25,-253.75,1,94.315,
01/01/2000,01:40:20.10,14.15,-73.32,-991.13,140.0,-682.50,-463.75,1,94.318,
01/01/2000,01:40:20.12,14.03,-73.20,-991.13,183.75,-673.75,-350.0,1,94.322,
01/01/2000,01:40:20.13,14.03,-73.20,-991.01,236.25,-665.0,-332.50,1,94.325,
01/01/2000,01:40:20.14,13.91,-73.20,-991.13,175.0,-682.50,-411.25,1,94.329,
01/01/2000,01:40:20.15,14.03,-73.20,-991.13,105.0,-691.25,-271.25,1,94.332,
01/01/2000,01:40:20.16,14.15,-73.08,-991.13,131.25,-708.75,-315.0,1,94.336,
01/01/2000,01:40:20.17,14.27,-73.08,-991.13,376.25,-656.25,-262.50,1,94.340,
01/01/2000,01:40:20.18,14.15,-73.20,-991.01,157.50,-647.50,-245.0,1,94.343,
01/01/2000,01:40:20.19,14.15,-72.96,-991.13,0.0,-717.50,-420.0,1,94.347,
01/01/2000,01:40:20.20,14.15,-72.96,-991.01,253.75,-752.50,-315.0,1,94.350,
01/01/2000,01:40:20.21,14.15,-73.08,-991.13,245.0,-708.75,-402.50,1,94.354,
01/01/2000,01:40:20.22,14.03,-72.96,-991.13,148.75,-822.50,-236.25,1,94.357,
01/01/2000,01:40:20.23,14.03,-72.96,-991.13,210.0,-700.0,-367.50,1,94.361,
01/01/2000,01:40:20.24,14.03,-73.08,-991.37,183.75,-630.0,-481.25,1,94.364,
01/01/2000,01:40:20.25,14.15,-73.08,-991.37,157.50,-805.0,-253.75,1,94.368,
01/01/2000,01:40:20.26,14.15,-72.96,-991.37,148.75,-595.0,-306.25,1,94.371,
01/01/2000,01:40:20.27,14.15,-72.96,-991.37,96.25,-682.50,-201.25,1,94.316,
01/01/2000,01:40:20.28,14.03,-72.96,-991.49,166.25,-638.75,-350.0,1,94.320,
01/01/2000,01:40:20.29,14.03,-73.20,-991.37,253.75,-638.75,-262.50,1,94.323,
01/01/2000,01:40:20.30,14.03,-73.20,-991.37,148.75,-665.0,-245.0,1,94.327,
01/01/2000,01:40:20.31,14.15,-73.20,-991.62,166.25,-743.75,-323.75,1,94.330,
01/01/2000,01:40:20.32,14.27,-72.96,-991.49,175.0,-568.75,-245.0,1,94.334,
01/01/2000,01:40:20.33,14.15,-73.08,-991.37,157.50,-673.75,-350.0,1,94.337,
01/01/2000,01:40:20.35,14.27,-73.20,-991.37,192.50,-735.0,-323.75,1,94.341,
01/01/2000,01:40:20.36,14.27,-73.08,-991.37,210.0,-673.75,-350.0,1,94.344,
01/01/2000,01:40:20.37,14.40,-73.20,-991.13,183.75,-770.0,-315.0,1,94.348,
01/01/2000,01:40:20.38,14.40,-73.20,-991.13,271.25,-717.50,-306.25,1,94.351,
01/01/2000,01:40:20.39,14.40,-73.20,-991.13,201.25,-665.0,-262.50,1,94.355,
01/01/2000,01:40:20.40,14.40,-73.08,-991.37,280.0,-717.50,-385.0,1,94.358,
01/01/2000,01:40:20.41,14.27,-73.20,-991.37,402.50,-665.0,-481.25,1,94.362,
01/01/2000,01:40:20.42,14.15,-72.83,-991.49,-26.25,-726.25,-227.50,1,94.365,
01/01/2000,01:40:20.43,14.15,-73.20,-991.25,280.0,-735.0,-455.0,1,94.369,
01/01/2000,01:40:20.44,14.15,-73.20,-991.37,271.25,-595.0,-428.75,1,94.372,
01/01/2000,01:40:20.45,14.15,-73.20,-991.49,105.0,-796.25,-341.25,1,94.376,
01/01/2000,01:40:20.46,14.15,-73.44,-991.62,105.0,-656.25,-341.25,1,94.379,
01/01/2000,01:40:20.47,14.15,-73.20,-991.49,-52.50,-840.0,-350.0,1,94.383,
01/01/2000,01:40:20.48,14.03,-73.20,-991.49,175.0,-647.50,-315.0,1,94.328,
01/01/2000,01:40:20.49,14.03,-73.08,-991.37,262.50,-638.75,-218.75,1,94.331,
01/01/2000,01:40:20.50,14.15,-72.96,-991.49,201.25,-726.25,-350.0,1,94.335,
01/01/2000,01:40:20.52,14.27,-72.83,-991.37,183.75,-603.75,-350.0,1,94.338,
01/01/2000,01:40:20.52,14.40,-73.08,-991.25,227.50,-665.0,-446.25,1,94.342,
01/01/2000,01:40:20.54,14.40,-72.96,-991.13,253.75,-708.75,-358.75,1,94.345,
01/01/2000,01:40:20.55,14.15,-72.83,-991.13,183.75,-708.75,-385.0,1,94.349,
01/01/2000,01:40:20.56,14.40,-73.08,-991.25,210.0,-691.25,-236.25,1,94.352,
01/01/2000,01:40:20.57,14.40,-72.96,-991.37,17.50,-708.75,-341.25,1,94.356,
01/01/2000,01:40:20.58,14.40,-73.08,-991.49,157.50,-603.75,-201.25,1,94.359,
01/01/2000,01:40:20.59,14.27,-73.32,-991.37,201.25,-656.25,-420.0,1,94.363,
01/01/2000,01:40:20.60,14.27,-73.32,-991.13,43.75,-673.75,-411.25,1,94.366,
01/01/2000,01:40:20.61,14.40,-73.20,-991.25,43.75,-691.25,-402.50,1,94.370,
01/01/2000,01:40:20.63,14.40,-73.08,-991.37,105.0,-726.25,-376.25,1,94.315,
01/01/2000,01:40:20.64,14.40,-73.08,-991.13,253.75,-691.25,-280.0,1,94.319,
01/01/2000,01:40:20.65,14.40,-72.96,-991.13,148.75,-717.50,-446.25,1,94.322,
01/01/2000,01:40:20.66,14.40,-72.96,-991.13,288.75,-726.25,-358.75,1,94.326,
01/01/2000,01:40:20.67,14.64,-73.08,-991.37,148.75,-743.75,-341.25,1,94.329,
01/01/2000,01:40:20.68,14.64,-73.32,-991.25,140.0,-673.75,-455.0,1,94.333,
01/01/2000,01:40:20.69,14.64,-73.20,-991.13,96.25,-595.0,-315.0,1,94.336,
01/01/2000,01:40:20.70,14.52,-73.32,-991.01,96.25,-638.75,-437.50,1,94.340,
01/01/2000,01:40:20.71,14.64,-73.08,-991.01,376.25,-691.25,-393.75,1,94.343,
01/01/2000,01:40:20.72,14.52,-72.96,-991.01,113.75,-647.50,-376.25,1,94.347,
01/01/2000,01:40:20.73,14.40,-72.96,-991.01,61.25,-735.0,-350.0,1,94.350,
01/01/2000,01:40:20.74,14.27,-72.83,-991.13,148.75,-568.75,-367.50,1,94.353,
01/01/2000,01:40:20.75,14.27,-72.96,-991.13,78.75,-621.25,-402.50,1,94.357,
01/01/2000,01:40:20.76,14.40,-72.96,-991.13,218.75,-700.0,-288.75,1,94.360,
01/01/2000,01:40:20.77,14.40,-73.08,-991.13,245.0,-656.25,-455.0,1,94.364,
01/01/2000,01:40:20.78,14.27,-73.20,-991.13,78.75,-533.75,-358.75,1,94.367,
01/01/2000,01:40:20.79,14.15,-73.20,-991.13,183.75,-682.50,-402.50,1,94.370,
01/01/2000,01:40:20.80,14.40,-73.20,-991.25,218.75,-673.75,-332.50,1,94.374,
01/01/2000,01:40:20.81,14.40,-73.20,-991.25,175.0,-612.50,-358.75,1,94.377,
01/01/2000,01:40:20.82,14.27,-73.08,-991.37,201.25,-778.75,-210.0,1,94.381,
01/01/2000,01:40:20.83,14.15,-73.44,-991.49,201.25,-647.50,-402.50,1,94.327,
01/01/2000,01:40:20.84,14.15,-73.57,-991.62,183.75,-726.25,-402.50,1,94.331,
01/01/2000,01:40:20.85,14.40,-73.57,-991.49,201.25,-822.50,-1076.25,1,94.334,
01/01/2000,01:40:20.86,14.40,-73.44,-991.37,131.25,-717.50,-1435.0,1,94.337,
01/01/2000,01:40:20.87,14.40,-73.32,-991.25,70.0,-682.50,-1513.75,1,94.341,
01/01/2000,01:40:20.88,14.40,-73.32,-991.37,131.25,-691.25,-1811.25,1,94.344,
01/01/2000,01:40:20.89,14.40,-73.44,-991.49,245.0,-796.25,-3027.50,1,94.348,
01/01/2000,01:40:20.91,14.40,-73.44,-991.74,140.0,-848.75,-3561.25,1,94.351,
01/01/2000,01:40:20.92,14.40,-73.44,-991.86,43.75,-813.75,-3570.0,1,94.354,
01/01/2000,01:40:20.93,14.64,-73.32,-991.74,271.25,-910.0,-4095.0,1,94.358,
01/01/2000,01:40:20.94,14.64,-73.20,-991.62,140.0,-971.25,-5101.25,1,94.361,
01/01/2000,01:40:20.95,14.64,-73.32,-991.49,280.0,-997.50,-6422.50,1,94.365,
01/01/2000,01:40:20.96,14.52,-73.44,-991.49,148.75,-1093.75,-8426.25,1,94.368,
01/01/2000,01:40:20.97,14.40,-73.44,-991.49,157.50,-1015.0,-11217.50,1,94.371,
01/01/2000,01:40:20.98,14.64,-73.32,-991.62,315.0,-1338.75,-13737.50,1,94.375,
