rtcDate,rtcTime,aX,aY,aZ,gX,gY,gZ,dataRdy,output_Hz,
01/01/2000,01:10:27.09,18.18,-49.53,-854.24,210.0,-682.50,-183.75,1,0.0,
01/01/2000,01:10:27.11,18.67,-51.85,-886.21,148.75,-595.0,-306.25,1,100.0,
01/01/2000,01:10:27.12,19.03,-52.70,-899.02,105.0,-595.0,-385.0,1,100.0,
01/01/2000,01:10:27.13,19.28,-53.31,-910.49,140.0,-691.25,-297.50,1,100.0,
01/01/2000,01:10:27.14,19.76,-54.17,-925.00,157.50,-761.25,-358.75,1,100.0,
01/01/2000,01:10:27.15,19.89,-54.53,-933.30,271.25,-612.50,-288.75,1,100.0,
01/01/2000,01:10:27.16,19.89,-54.90,-940.62,253.75,-656.25,-341.25,1,100.0,
01/01/2000,01:10:27.17,20.13,-55.63,-950.14,70.0,-691.25,-437.50,1,100.0,
01/01/2000,01:10:27.18,20.37,-56.00,-955.50,183.75,-665.0,-455.0,1,100.0,
01/01/2000,01:10:27.19,20.50,-56.00,-959.90,166.25,-743.75,-385.0,1,100.0,
01/01/2000,01:10:27.20,20.62,-56.24,-963.80,148.75,-612.50,-367.50,1,100.0,
01/01/2000,01:10:27.21,20.62,-56.61,-969.05,175.0,-735.0,-280.0,1,100.0,
01/01/2000,01:10:27.22,20.50,-56.73,-972.10,210.0,-673.75,-385.0,1,100.0,
01/01/2000,01:10:27.23,20.62,-56.85,-975.02,227.50,-647.50,-297.50,1,100.0,
01/01/2000,01:10:27.24,20.74,-56.73,-977.59,122.50,-805.0,-280.0,1,93.750,
01/01/2000,01:10:27.25,20.86,-56.97,-980.51,148.75,-726.25,-227.50,1,100.0,
01/01/2000,01:10:27.26,20.74,-57.34,-981.73,140.0,-700.0,-358.75,1,94.444,
01/01/2000,01:10:27.27,20.62,-57.58,-982.71,210.0,-638.75,-323.75,1,94.737,
01/01/2000,01:10:27.28,20.62,-57.95,-983.93,201.25,-700.0,-472.50,1,95.0,
01/01/2000,01:10:27.29,20.98,-57.95,-986.13,245.0,-726.25,-428.75,1,95.238,
01/01/2000,01:10:27.30,21.11,-57.58,-987.35,157.50,-673.75,-236.25,1,95.455,
01/01/2000,01:10:27.31,20.86,-57.58,-988.08,175.0,-708.75,-218.75,1,95.652,
01/01/2000,01:10:27.32,20.74,-57.83,-988.44,96.25,-673.75,-271.25,1,95.833,
01/01/2000,01:10:27.33,20.74,-58.07,-989.18,245.0,-700.0,-446.25,1,96.0,
01/01/2000,01:10:27.34,21.11,-58.07,-989.91,0.0,-857.50,-341.25,1,96.154,
01/01/2000,01:10:27.35,21.23,-58.07,-990.40,61.25,-630.0,-376.25,1,96.296,
01/01/2000,01:10:27.36,21.23,-58.07,-990.76,105.0,-682.50,-350.0,1,96.429,
01/01/2000,01:10:27.38,20.86,-58.19,-991.25,122.50,-603.75,-341.25,1,96.552,
01/01/2000,01:10:27.39,20.86,-58.07,-991.62,253.75,-665.0,-358.75,1,96.667,
01/01/2000,01:10:27.40,21.23,-57.95,-991.86,122.50,-787.50,-323.75,1,96.774,
01/01/2000,01:10:27.41,21.47,-58.07,-991.98,131.25,-761.25,-175.0,1,96.875,
01/01/2000,01:10:27.42,21.23,-58.32,-991.98,131.25,-673.75,-253.75,1,96.970,
01/01/2000,01:10:27.43,20.98,-58.56,-992.10,280.0,-691.25,-402.50,1,97.059,
01/01/2000,01:10:27.44,20.98,-58.32,-992.59,210.0,-647.50,-428.75,1,97.143,
01/01/2000,01:10:27.45,21.23,-58.07,-992.84,218.75,-568.75,-297.50,1,97.222,
01/01/2000,01:10:27.46,21.23,-58.07,-992.84,210.0,-612.50,-262.50,1,97.297,
01/01/2000,01:10:27.47,21.23,-58.32,-992.59,262.50,-883.75,-341.25,1,94.872,
01/01/2000,01:10:27.48,21.23,-58.56,-992.59,183.75,-682.50,-393.75,1,97.436,
01/01/2000,01:10:27.49,21.47,-58.56,-992.84,175.0,-840.0,-341.25,1,95.122,
01/01/2000,01:10:27.50,21.47,-58.44,-992.96,157.50,-708.75,-297.50,1,95.238,
01/01/2000,01:10:27.52,21.35,-58.07,-992.96,218.75,-647.50,-332.50,1,95.349,
01/01/2000,01:10:27.53,21.23,-58.07,-992.71,245.0,-691.25,-280.0,1,95.455,
01/01/2000,01:10:27.54,21.11,-58.07,-992.71,166.25,-813.75,-218.75,1,95.556,
01/01/2000,01:10:27.55,21.35,-58.07,-992.84,148.75,-665.0,-358.75,1,95.652,
01/01/2000,01:10:27.56,21.47,-58.32,-992.96,227.50,-726.25,-315.0,1,95.745,
01/01/2000,01:10:27.57,21.47,-58.32,-992.84,157.50,-726.25,-315.0,1,95.833,
01/01/2000,01:10:27.58,21.23,-58.32,-992.59,183.75,-630.0,-367.50,1,95.918,
01/01/2000,01:10:27.59,21.11,-58.07,-992.59,122.50,-621.25,-315.0,1,96.0,
01/01/2000,01:10:27.60,21.23,-57.95,-992.96,166.25,-577.50,-280.0,1,96.078,
01/01/2000,01:10:27.61,21.47,-58.44,-993.20,262.50,-673.75,-262.50,1,94.340,
01/01/2000,01:10:27.63,20.98,-58.68,-992.96,183.75,-708.75,-350.0,1,94.444,
01/01/2000,01:10:27.64,20.98,-58.56,-992.84,131.25,-682.50,-420.0,1,94.545,
01/01/2000,01:10:27.65,21.11,-58.32,-992.71,131.25,-665.0,-315.0,1,94.643,
01/01/2000,01:10:27.66,21.23,-58.19,-992.96,148.75,-560.0,-271.25,1,94.737,
01/01/2000,01:10:27.67,21.11,-58.32,-993.08,280.0,-621.25,-393.75,1,94.828,
01/01/2000,01:10:27.68,21.11,-58.32,-993.20,218.75,-682.50,-332.50,1,94.915,
01/01/2000,01:10:27.69,21.23,-58.56,-993.08,-8.75,-761.25,-376.25,1,95.0,
01/01/2000,01:10:27.70,21.47,-58.56,-992.96,166.25,-647.50,-358.75,1,95.082,
01/01/2000,01:10:27.71,21.47,-58.32,-993.08,96.25,-656.25,-323.75,1,95.161,
01/01/2000,01:10:27.72,21.47,-58.32,-993.08,157.50,-726.25,-323.75,1,95.238,
01/01/2000,01:10:27.73,21.11,-58.44,-993.32,140.0,-630.0,-315.0,1,95.313,
01/01/2000,01:10:27.74,20.98,-58.44,-993.32,183.75,-691.25,-306.25,1,95.385,
01/01/2000,01:10:27.75,21.11,-58.44,-993.32,236.25,-665.0,-385.0,1,95.455,
01/01/2000,01:10:27.76,21.23,-58.32,-993.08,140.0,-726.25,-183.75,1,95.522,
01/01/2000,01:10:27.77,21.23,-58.44,-993.08,218.75,-621.25,-297.50,1,95.588,
01/01/2000,01:10:27.78,20.98,-58.56,-993.08,157.50,-735.0,-350.0,1,95.652,
01/01/2000,01:10:27.79,20.98,-58.44,-993.08,218.75,-796.25,-411.25,1,95.714,
01/01/2000,01:10:27.80,21.11,-58.07,-992.96,96.25,-673.75,-227.50,1,94.444,
01/01/2000,01:10:27.81,21.11,-58.19,-992.96,201.25,-717.50,-306.25,1,94.521,
01/01/2000,01:10:27.82,21.11,-58.56,-992.84,70.0,-665.0,-350.0,1,94.595,
01/01/2000,01:10:27.83,21.23,-58.56,-992.84,280.0,-717.50,-411.25,1,94.667,
01/01/2000,01:10:27.84,21.23,-58.56,-993.08,105.0,-726.25,-315.0,1,94.737,
01/01/2000,01:10:27.85,21.35,-58.56,-993.20,183.75,-621.25,-280.0,1,94.805,
01/01/2000,01:10:27.87,21.23,-58.32,-993.32,210.0,-691.25,-358.75,1,94.872,
01/01/2000,01:10:27.88,21.11,-58.44,-993.08,183.75,-647.50,-402.50,1,94.937,
01/01/2000,01:10:27.89,20.98,-58.44,-992.96,227.50,-761.25,-393.75,1,95.0,
01/01/2000,01:10:27.90,20.98,-58.44,-992.96,166.25,-717.50,-350.0,1,95.062,
01/01/2000,01:10:27.91,21.11,-58.44,-993.08,253.75,-787.50,-271.25,1,95.122,
01/01/2000,01:10:27.92,21.11,-58.56,-992.96,122.50,-708.75,-367.50,1,95.181,
01/01/2000,01:10:27.93,20.74,-58.44,-992.84,227.50,-700.0,-472.50,1,95.238,
01/01/2000,01:10:27.94,20.98,-58.07,-992.84,210.0,-796.25,-341.25,1,95.294,
01/01/2000,01:10:27.95,21.23,-58.07,-992.96,87.50,-691.25,-166.25,1,95.349,
01/01/2000,01:10:27.96,21.23,-58.32,-993.08,61.25,-656.25,-306.25,1,95.402,
01/01/2000,01:10:27.97,20.98,-58.56,-992.96,148.75,-778.75,-358.75,1,95.455,
01/01/2000,01:10:27.98,20.98,-58.56,-992.84,122.50,-621.25,-481.25,1,95.506,
01/01/2000,01:10:27.99,21.47,-58.19,-992.96,192.50,-682.50,-288.75,1,95.556,
01/01/2000,01:10:28.00,21.35,-58.07,-993.20,192.50,-656.25,-201.25,1,95.604,
01/01/2000,01:10:28.02,20.98,-58.32,-992.96,210.0,-647.50,-358.75,1,94.624,
01/01/2000,01:10:28.03,21.11,-58.32,-992.84,218.75,-735.0,-455.0,1,94.681,
01/01/2000,01:10:28.04,21.47,-58.19,-992.96,245.0,-822.50,-297.50,1,94.737,
01/01/2000,01:10:28.05,21.59,-58.19,-993.08,-8.75,-665.0,-192.50,1,94.792,
01/01/2000,01:10:28.06,21.35,-58.32,-992.84,271.25,-665.0,-350.0,1,94.845,
01/01/2000,01:10:28.07,20.98,-58.32,-992.59,245.0,-691.25,-367.50,1,94.898,
01/01/2000,01:10:28.08,21.11,-58.07,-992.71,140.0,-665.0,-376.25,1,94.949,
01/01/2000,01:10:28.09,21.23,-57.95,-993.08,96.25,-673.75,-271.25,1,95.0,
01/01/2000,01:10:28.10,21.47,-58.07,-993.08,175.0,-665.0,-262.50,1,95.050,
01/01/2000,01:10:28.11,21.23,-58.32,-992.84,210.0,-682.50,-192.50,1,95.098,
01/01/2000,01:10:28.12,21.11,-58.56,-992.59,105.0,-708.75,-446.25,1,94.231,
01/01/2000,01:10:28.14,21.23,-58.44,-992.84,70.0,-647.50,-376.25,1,94.286,
01/01/2000,01:10:28.15,21.23,-58.19,-993.08,131.25,-665.0,-253.75,1,94.340,
01/01/2000,01:10:28.16,21.23,-58.32,-992.84,183.75,-656.25,-332.50,1,94.393,
01/01/2000,01:10:28.17,20.98,-58.32,-992.84,183.75,-638.75,-411.25,1,94.444,
01/01/2000,01:10:28.18,20.98,-58.44,-992.96,157.50,-647.50,-533.75,1,94.495,
01/01/2000,01:10:28.19,21.35,-58.32,-993.08,210.0,-656.25,-402.50,1,94.545,
01/01/2000,01:10:28.20,21.47,-58.32,-993.08,288.75,-708.75,-315.0,1,94.595,
01/01/2000,01:10:28.21,21.23,-58.32,-993.08,227.50,-761.25,-306.25,1,94.643,
01/01/2000,01:10:28.22,21.11,-58.32,-992.96,192.50,-612.50,-341.25,1,94.690,
01/01/2000,01:10:28.23,21.23,-58.32,-992.96,131.25,-700.0,-332.50,1,94.737,
01/01/2000,01:10:28.24,21.35,-58.19,-993.08,122.50,-700.0,-306.25,1,94.783,
01/01/2000,01:10:28.25,21.47,-58.19,-993.32,122.50,-735.0,-367.50,1,94.828,
01/01/2000,01:10:28.26,21.23,-58.44,-993.08,96.25,-551.25,-341.25,1,94.872,
01/01/2000,01:10:28.27,21.11,-58.32,-992.96,218.75,-665.0,-402.50,1,94.915,
01/01/2000,01:10:28.28,21.23,-58.44,-992.84,218.75,-805.0,-271.25,1,94.958,
01/01/2000,01:10:28.29,21.35,-58.32,-993.08,166.25,-743.75,-376.25,1,95.0,
01/01/2000,01:10:28.30,21.35,-58.32,-993.08,140.0,-612.50,-385.0,1,95.041,
01/01/2000,01:10:28.31,21.23,-58.32,-992.96,218.75,-630.0,-262.50,1,95.082,
01/01/2000,01:10:28.32,20.98,-58.44,-992.84,113.75,-708.75,-402.50,1,95.122,
01/01/2000,01:10:28.33,21.35,-58.32,-992.84,78.75,-717.50,-227.50,1,95.161,
01/01/2000,01:10:28.34,21.35,-58.32,-993.08,175.0,-700.0,-385.0,1,95.200,
01/01/2000,01:10:28.35,21.35,-58.32,-993.08,70.0,-761.25,-236.25,1,95.238,
01/01/2000,01:10:28.36,21.35,-58.56,-993.08,227.50,-761.25,-323.75,1,94.531,
01/01/2000,01:10:28.37,21.23,-58.56,-993.08,210.0,-656.25,-315.0,1,94.574,
01/01/2000,01:10:28.38,21.35,-58.56,-993.20,96.25,-752.50,-315.0,1,94.615,
01/01/2000,01:10:28.39,21.47,-58.32,-993.08,52.50,-700.0,-315.0,1,94.656,
01/01/2000,01:10:28.40,21.47,-58.44,-993.08,175.0,-761.25,-323.75,1,94.697,
01/01/2000,01:10:28.41,21.35,-58.56,-993.08,227.50,-647.50,-428.75,1,94.737,
01/01/2000,01:10:28.42,21.11,-58.56,-993.08,253.75,-708.75,-262.50,1,94.776,
01/01/2000,01:10:28.44,21.11,-58.44,-993.32,140.0,-612.50,-323.75,1,94.815,
01/01/2000,01:10:28.45,21.23,-58.07,-993.32,122.50,-647.50,-218.75,1,94.853,
01/01/2000,01:10:28.46,21.35,-58.07,-993.32,183.75,-568.75,-358.75,1,94.891,
01/01/2000,01:10:28.47,21.23,-58.07,-993.32,122.50,-682.50,-358.75,1,94.928,
01/01/2000,01:10:28.48,20.98,-58.32,-993.45,96.25,-743.75,-376.25,1,94.964,
01/01/2000,01:10:28.49,21.11,-58.32,-993.57,140.0,-638.75,-323.75,1,95.0,
01/01/2000,01:10:28.50,21.23,-57.83,-993.69,113.75,-682.50,-297.50,1,94.366,
01/01/2000,01:10:28.51,21.35,-57.95,-993.57,131.25,-717.50,-236.25,1,94.406,
01/01/2000,01:10:28.52,21.23,-58.19,-993.57,131.25,-770.0,-393.75,1,94.444,
01/01/2000,01:10:28.53,21.35,-58.32,-993.57,140.0,-708.75,-271.25,1,94.483,
01/01/2000,01:10:28.54,21.59,-58.32,-993.57,236.25,-700.0,-376.25,1,94.521,
01/01/2000,01:10:28.55,21.72,-58.32,-993.57,148.75,-638.75,-350.0,1,94.558,
01/01/2000,01:10:28.56,21.59,-58.32,-993.32,122.50,-717.50,-393.75,1,94.595,
01/01/2000,01:10:28.58,21.35,-58.19,-993.08,148.75,-647.50,-358.75,1,94.631,
01/01/2000,01:10:28.59,21.23,-58.32,-993.08,315.0,-743.75,-367.50,1,94.667,
01/01/2000,01:10:28.60,21.47,-58.32,-993.32,192.50,-568.75,-280.0,1,94.702,
01/01/2000,01:10:28.61,21.35,-58.32,-993.32,140.0,-700.0,-280.0,1,94.737,
01/01/2000,01:10:28.62,21.23,-58.32,-993.08,78.75,-647.50,-350.0,1,94.771,
01/01/2000,01:10:28.63,21.23,-58.32,-992.96,192.50,-708.75,-420.0,1,94.805,
01/01/2000,01:10:28.64,21.35,-58.32,-993.08,192.50,-673.75,-192.50,1,94.231,
01/01/2000,01:10:28.65,21.47,-58.32,-993.08,113.75,-638.75,-367.50,1,94.268,
01/01/2000,01:10:28.66,21.35,-58.44,-993.08,157.50,-647.50,-175.0,1,94.304,
01/01/2000,01:10:28.67,21.47,-58.32,-992.96,-52.50,-752.50,-455.0,1,94.340,
01/01/2000,01:10:28.68,21.23,-58.56,-992.84,227.50,-700.0,-402.50,1,94.375,
01/01/2000,01:10:28.69,21.47,-58.32,-993.08,210.0,-621.25,-297.50,1,94.410,
01/01/2000,01:10:28.70,21.59,-58.44,-993.08,227.50,-621.25,-376.25,1,94.444,
01/01/2000,01:10:28.72,21.47,-58.44,-992.96,183.75,-708.75,-376.25,1,94.479,
01/01/2000,01:10:28.73,21.35,-58.44,-992.59,297.50,-630.0,-393.75,1,94.512,
01/01/2000,01:10:28.74,21.23,-58.44,-992.59,271.25,-770.0,-332.50,1,94.545,
01/01/2000,01:10:28.75,21.47,-58.32,-992.71,148.75,-665.0,-385.0,1,94.578,
01/01/2000,01:10:28.76,21.47,-58.32,-992.84,175.0,-717.50,-236.25,1,94.611,
01/01/2000,01:10:28.77,21.47,-58.44,-992.84,157.50,-656.25,-280.0,1,94.643,
01/01/2000,01:10:28.78,21.23,-58.56,-992.71,131.25,-691.25,-393.75,1,94.675,
01/01/2000,01:10:28.79,21.23,-58.44,-992.84,236.25,-665.0,-376.25,1,94.706,
01/01/2000,01:10:28.80,21.47,-58.32,-992.84,96.25,-726.25,-271.25,1,94.737,
01/01/2000,01:10:28.81,21.59,-58.44,-992.96,332.50,-726.25,-288.75,1,94.767,
01/01/2000,01:10:28.82,21.47,-58.44,-992.84,78.75,-770.0,-183.75,1,94.798,
01/01/2000,01:10:28.83,21.23,-58.68,-992.84,271.25,-752.50,-455.0,1,94.828,
01/01/2000,01:10:28.84,21.35,-58.56,-992.84,218.75,-691.25,-376.25,1,94.857,
01/01/2000,01:10:28.85,21.47,-58.32,-992.71,183.75,-673.75,-323.75,1,94.350,
01/01/2000,01:10:28.86,21.47,-58.32,-992.71,166.25,-796.25,-332.50,1,94.382,
01/01/2000,01:10:28.87,21.35,-58.44,-992.71,96.25,-638.75,-341.25,1,94.413,
01/01/2000,01:10:28.88,21.23,-58.56,-992.71,52.50,-656.25,-341.25,1,94.444,
01/01/2000,01:10:28.89,21.35,-58.44,-992.84,175.0,-708.75,-306.25,1,94.475,
01/01/2000,01:10:28.90,21.35,-58.32,-992.96,78.75,-735.0,-297.50,1,94.505,
01/01/2000,01:10:28.91,21.23,-58.07,-992.96,236.25,-603.75,-227.50,1,94.536,
01/01/2000,01:10:28.93,21.11,-58.32,-992.84,96.25,-726.25,-367.50,1,94.565,
01/01/2000,01:10:28.94,20.98,-58.32,-992.84,210.0,-735.0,-358.75,1,94.595,
01/01/2000,01:10:28.95,21.23,-58.19,-992.96,201.25,-726.25,-297.50,1,94.624,
01/01/2000,01:10:28.96,21.35,-58.07,-992.96,96.25,-595.0,-280.0,1,94.652,
01/01/2000,01:10:28.97,21.23,-58.07,-992.84,210.0,-647.50,-280.0,1,94.681,
01/01/2000,01:10:28.98,21.35,-58.07,-992.59,192.50,-665.0,-332.50,1,94.709,
01/01/2000,01:10:28.99,21.23,-58.32,-992.59,175.0,-717.50,-376.25,1,94.737,
01/01/2000,01:10:29.00,21.23,-58.32,-992.84,192.50,-743.75,-262.50,1,94.271,
01/01/2000,01:10:29.01,21.23,-58.32,-992.96,236.25,-743.75,-332.50,1,94.301,
01/01/2000,01:10:29.02,21.23,-58.32,-992.96,218.75,-717.50,-332.50,1,94.330,
01/01/2000,01:10:29.03,20.98,-58.44,-992.84,201.25,-638.75,-385.0,1,94.359,
01/01/2000,01:10:29.04,20.98,-58.32,-992.96,113.75,-743.75,-358.75,1,94.388,
01/01/2000,01:10:29.05,21.11,-58.32,-993.08,218.75,-761.25,-428.75,1,94.416,
01/01/2000,01:10:29.07,20.98,-58.32,-992.96,227.50,-630.0,-332.50,1,94.444,
01/01/2000,01:10:29.08,20.98,-58.19,-992.71,183.75,-691.25,-332.50,1,94.472,
01/01/2000,01:10:29.09,20.98,-58.32,-992.71,157.50,-682.50,-332.50,1,94.500,
01/01/2000,01:10:29.10,20.98,-58.19,-992.84,35.0,-682.50,-280.0,1,94.527,
01/01/2000,01:10:29.11,21.11,-58.19,-992.96,175.0,-665.0,-245.0,1,94.554,
01/01/2000,01:10:29.12,21.11,-58.19,-992.84,245.0,-796.25,-402.50,1,94.581,
01/01/2000,01:10:29.13,21.11,-58.19,-992.84,61.25,-682.50,-280.0,1,94.608,
01/01/2000,01:10:29.15,21.11,-58.07,-992.59,122.50,-735.0,-393.75,1,94.175,
01/01/2000,01:10:29.16,21.23,-57.95,-992.59,8.75,-708.75,-376.25,1,94.203,
01/01/2000,01:10:29.17,21.23,-57.83,-992.71,122.50,-708.75,-271.25,1,94.231,
01/01/2000,01:10:29.18,21.23,-57.83,-992.71,122.50,-682.50,-385.0,1,94.258,
01/01/2000,01:10:29.19,21.23,-57.83,-992.71,-35.0,-700.0,-367.50,1,94.286,
01/01/2000,01:10:29.20,21.35,-57.83,-992.59,183.75,-708.75,-332.50,1,94.313,
01/01/2000,01:10:29.21,21.47,-57.95,-992.59,218.75,-595.0,-393.75,1,94.340,
01/01/2000,01:10:29.22,21.59,-57.83,-992.71,113.75,-717.50,-280.0,1,94.366,
01/01/2000,01:10:29.23,21.84,-58.07,-992.59,271.25,-708.75,-271.25,1,94.393,
01/01/2000,01:10:29.24,21.23,-58.32,-992.23,157.50,-673.75,-367.50,1,94.419,
01/01/2000,01:10:29.25,20.98,-58.07,-992.10,166.25,-665.0,-358.75,1,94.444,
01/01/2000,01:10:29.26,21.23,-57.83,-992.35,148.75,-717.50,-393.75,1,94.470,
01/01/2000,01:10:29.27,21.59,-57.83,-992.59,96.25,-743.75,-358.75,1,94.495,
01/01/2000,01:10:29.28,21.11,-58.19,-992.47,157.50,-673.75,-367.50,1,94.521,
01/01/2000,01:10:29.29,20.86,-58.44,-992.35,236.25,-752.50,-350.0,1,94.545,
01/01/2000,01:10:29.30,20.86,-58.19,-992.35,113.75,-656.25,-463.75,1,94.570,
01/01/2000,01:10:29.31,21.11,-57.95,-992.47,253.75,-752.50,-385.0,1,94.595,
01/01/2000,01:10:29.32,21.35,-57.71,-992.71,105.0,-735.0,-315.0,1,94.619,
01/01/2000,01:10:29.33,21.35,-57.83,-992.59,131.25,-700.0,-253.75,1,94.643,
01/01/2000,01:10:29.34,21.11,-58.32,-992.59,236.25,-743.75,-350.0,1,94.667,
01/01/2000,01:10:29.35,21.11,-58.32,-992.59,70.0,-673.75,-376.25,1,94.690,
01/01/2000,01:10:29.36,21.23,-58.19,-992.71,183.75,-621.25,-288.75,1,94.714,
01/01/2000,01:10:29.37,21.35,-58.07,-992.71,175.0,-691.25,-253.75,1,94.737,
01/01/2000,01:10:29.38,21.11,-58.19,-992.59,157.50,-691.25,-280.0,1,94.760,
01/01/2000,01:10:29.39,21.23,-58.19,-992.35,131.25,-665.0,-315.0,1,94.372,
01/01/2000,01:10:29.40,21.11,-58.44,-992.59,218.75,-700.0,-393.75,1,94.805,
01/01/2000,01:10:29.42,21.23,-58.44,-992.84,218.75,-743.75,-323.75,1,94.421,
01/01/2000,01:10:29.43,21.47,-58.07,-992.84,70.0,-673.75,-402.50,1,94.444,
01/01/2000,01:10:29.44,21.23,-58.32,-992.59,218.75,-673.75,-218.75,1,94.468,
01/01/2000,01:10:29.45,21.23,-58.07,-992.35,43.75,-726.25,-280.0,1,94.492,
01/01/2000,01:10:29.46,20.98,-58.32,-992.35,210.0,-796.25,-420.0,1,94.515,
01/01/2000,01:10:29.47,21.47,-58.32,-992.59,0.0,-673.75,-297.50,1,94.538,
01/01/2000,01:10:29.48,21.47,-58.44,-992.59,166.25,-665.0,-350.0,1,94.561,
01/01/2000,01:10:29.49,21.23,-58.32,-992.47,192.50,-726.25,-297.50,1,94.583,
01/01/2000,01:10:29.50,21.11,-58.32,-992.23,148.75,-752.50,-367.50,1,94.606,
01/01/2000,01:10:29.51,21.11,-58.32,-992.35,201.25,-691.25,-437.50,1,94.628,
01/01/2000,01:10:29.52,21.47,-58.32,-992.59,113.75,-612.50,-350.0,1,94.650,
01/01/2000,01:10:29.53,21.35,-58.44,-992.71,131.25,-840.0,-245.0,1,94.672,
01/01/2000,01:10:29.54,21.23,-58.44,-992.47,280.0,-700.0,-227.50,1,94.694,
01/01/2000,01:10:29.55,21.47,-58.32,-992.23,297.50,-682.50,-367.50,1,94.715,
01/01/2000,01:10:29.56,21.47,-58.19,-992.23,175.0,-708.75,-332.50,1,94.355,
01/01/2000,01:10:29.57,21.35,-58.07,-992.35,70.0,-778.75,-358.75,1,94.378,
01/01/2000,01:10:29.58,21.23,-58.07,-992.47,148.75,-700.0,-315.0,1,94.400,
01/01/2000,01:10:29.59,20.98,-58.07,-992.23,-70.0,-673.75,-280.0,1,94.422,
01/01/2000,01:10:29.60,21.23,-58.07,-992.10,175.0,-778.75,-341.25,1,94.444,
01/01/2000,01:10:29.61,21.35,-57.95,-991.98,61.25,-726.25,-341.25,1,94.466,
01/01/2000,01:10:29.63,21.35,-57.95,-992.23,166.25,-708.75,-253.75,1,94.488,
01/01/2000,01:10:29.64,21.23,-58.19,-992.35,175.0,-638.75,-376.25,1,94.510,
01/01/2000,01:10:29.65,21.23,-58.19,-992.47,113.75,-770.0,-332.50,1,94.163,
01/01/2000,01:10:29.66,21.47,-58.19,-992.59,210.0,-638.75,-210.0,1,94.186,
01/01/2000,01:10:29.67,21.47,-57.95,-992.35,131.25,-691.25,-306.25,1,94.208,
01/01/2000,01:10:29.68,21.47,-57.95,-992.35,227.50,-656.25,-315.0,1,94.231,
01/01/2000,01:10:29.69,21.47,-58.19,-992.59,183.75,-708.75,-341.25,1,94.253,
01/01/2000,01:10:29.71,21.35,-58.32,-992.71,218.75,-796.25,-341.25,1,94.275,
01/01/2000,01:10:29.72,21.47,-58.07,-992.59,210.0,-770.0,-350.0,1,94.297,
01/01/2000,01:10:29.73,21.47,-57.95,-992.59,166.25,-735.0,-253.75,1,94.318,
01/01/2000,01:10:29.74,21.47,-57.95,-992.47,105.0,-673.75,-245.0,1,94.340,
01/01/2000,01:10:29.75,21.35,-58.19,-992.47,166.25,-630.0,-341.25,1,94.361,
01/01/2000,01:10:29.76,21.23,-58.56,-992.47,192.50,-717.50,-507.50,1,94.382,
01/01/2000,01:10:29.77,21.23,-58.56,-992.47,210.0,-603.75,-358.75,1,94.403,
01/01/2000,01:10:29.78,21.35,-58.19,-992.35,262.50,-560.0,-236.25,1,94.424,
01/01/2000,01:10:29.79,21.35,-57.95,-992.23,183.75,-647.50,-323.75,1,94.444,
01/01/2000,01:10:29.80,21.11,-58.07,-992.23,140.0,-603.75,-280.0,1,94.465,
01/01/2000,01:10:29.81,21.11,-58.19,-992.35,96.25,-796.25,-437.50,1,94.485,
01/01/2000,01:10:29.82,21.11,-58.32,-992.47,183.75,-638.75,-192.50,1,94.505,
01/01/2000,01:10:29.83,21.35,-58.32,-992.59,183.75,-682.50,-271.25,1,94.526,
01/01/2000,01:10:29.84,21.23,-58.19,-992.47,253.75,-708.75,-350.0,1,94.545,
01/01/2000,01:10:29.85,21.23,-58.07,-992.35,113.75,-595.0,-280.0,1,94.565,
01/01/2000,01:10:29.86,21.47,-58.07,-992.59,140.0,-752.50,-332.50,1,94.585,
01/01/2000,01:10:29.87,21.47,-58.19,-992.84,201.25,-700.0,-385.0,1,94.604,
01/01/2000,01:10:29.88,21.47,-58.32,-992.84,192.50,-726.25,-402.50,1,94.624,
01/01/2000,01:10:29.89,21.35,-58.19,-992.59,122.50,-822.50,-350.0,1,94.643,
01/01/2000,01:10:29.90,21.35,-58.07,-992.47,70.0,-752.50,-350.0,1,94.662,
01/01/2000,01:10:29.92,21.23,-58.32,-992.59,192.50,-770.0,-402.50,1,94.346,
01/01/2000,01:10:29.92,21.23,-58.19,-992.71,280.0,-761.25,-385.0,1,94.366,
01/01/2000,01:10:29.94,21.11,-58.32,-992.84,166.25,-691.25,-288.75,1,94.386,
01/01/2000,01:10:29.94,21.23,-58.32,-992.71,122.50,-717.50,-332.50,1,94.406,
01/01/2000,01:10:29.96,21.11,-58.32,-992.47,70.0,-717.50,-323.75,1,94.425,
01/01/2000,01:10:29.97,20.98,-58.32,-992.59,227.50,-665.0,-315.0,1,94.444,
01/01/2000,01:10:29.98,20.98,-58.32,-992.59,157.50,-682.50,-323.75,1,94.464,
01/01/2000,01:10:29.99,20.98,-58.19,-992.59,113.75,-700.0,-332.50,1,94.483,
01/01/2000,01:10:30.00,20.86,-58.07,-992.47,113.75,-717.50,-262.50,1,94.502,
01/01/2000,01:10:30.01,20.98,-58.07,-992.35,341.25,-735.0,-315.0,1,94.521,
01/01/2000,01:10:30.02,20.98,-58.32,-992.35,105.0,-691.25,-385.0,1,94.539,
01/01/2000,01:10:30.03,21.11,-58.32,-992.59,183.75,-577.50,-341.25,1,94.558,
01/01/2000,01:10:30.04,21.11,-58.32,-992.59,306.25,-656.25,-376.25,1,94.576,
01/01/2000,01:10:30.05,21.11,-58.19,-992.47,253.75,-682.50,-350.0,1,94.276,
01/01/2000,01:10:30.06,21.11,-58.19,-992.35,271.25,-726.25,-288.75,1,94.295,
01/01/2000,01:10:30.07,20.98,-58.07,-992.35,157.50,-708.75,-306.25,1,94.314,
01/01/2000,01:10:30.08,21.11,-58.07,-992.47,227.50,-691.25,-262.50,1,94.333,
01/01/2000,01:10:30.09,21.11,-58.32,-992.47,96.25,-752.50,-420.0,1,94.352,
01/01/2000,01:10:30.10,21.11,-58.32,-992.47,227.50,-682.50,-376.25,1,94.371,
01/01/2000,01:10:30.11,21.23,-58.07,-992.47,210.0,-691.25,-323.75,1,94.389,
01/01/2000,01:10:30.13,21.23,-57.83,-992.59,297.50,-682.50,-385.0,1,94.408,
01/01/2000,01:10:30.14,21.35,-57.71,-992.59,148.75,-568.75,-262.50,1,94.426,
01/01/2000,01:10:30.15,21.35,-58.07,-992.47,105.0,-752.50,-437.50,1,94.444,
01/01/2000,01:10:30.16,21.23,-58.32,-992.59,201.25,-735.0,-341.25,1,94.463,
01/01/2000,01:10:30.17,21.35,-58.32,-992.47,245.0,-717.50,-306.25,1,94.175,
01/01/2000,01:10:30.18,21.47,-58.07,-992.35,192.50,-778.75,-481.25,1,94.194,
01/01/2000,01:10:30.19,21.23,-58.19,-992.23,148.75,-735.0,-262.50,1,94.212,
01/01/2000,01:10:30.20,21.23,-58.19,-992.23,183.75,-770.0,-367.50,1,94.231,
01/01/2000,01:10:30.21,21.23,-58.19,-992.35,253.75,-778.75,-367.50,1,94.249,
01/01/2000,01:10:30.22,21.23,-58.19,-992.35,70.0,-770.0,-288.75,1,94.268,
01/01/2000,01:10:30.23,21.23,-58.32,-992.35,236.25,-822.50,-253.75,1,94.286,
01/01/2000,01:10:30.24,21.23,-58.32,-992.35,210.0,-577.50,-280.0,1,94.304,
01/01/2000,01:10:30.25,21.11,-58.07,-992.35,78.75,-621.25,-350.0,1,94.322,
01/01/2000,01:10:30.27,21.11,-58.07,-992.47,105.0,-735.0,-367.50,1,94.340,
01/01/2000,01:10:30.28,21.23,-58.07,-992.47,210.0,-831.25,-306.25,1,94.357,
01/01/2000,01:10:30.29,21.23,-58.07,-992.59,-8.75,-542.50,-428.75,1,94.375,
01/01/2000,01:10:30.30,21.23,-58.19,-992.59,192.50,-717.50,-280.0,1,94.393,
01/01/2000,01:10:30.31,21.23,-58.19,-992.59,43.75,-761.25,-350.0,1,94.410,
01/01/2000,01:10:30.32,21.23,-58.07,-992.59,122.50,-647.50,-341.25,1,94.427,
01/01/2000,01:10:30.33,21.23,-58.07,-992.59,192.50,-656.25,-227.50,1,94.444,
01/01/2000,01:10:30.34,21.23,-58.07,-992.59,192.50,-866.25,-367.50,1,94.462,
01/01/2000,01:10:30.35,21.23,-58.07,-992.59,131.25,-612.50,-350.0,1,94.479,
01/01/2000,01:10:30.36,21.11,-58.19,-992.59,87.50,-638.75,-393.75,1,94.495,
01/01/2000,01:10:30.37,21.23,-58.19,-992.59,210.0,-770.0,-332.50,1,94.512,
01/01/2000,01:10:30.38,21.47,-58.07,-992.59,96.25,-682.50,-323.75,1,94.529,
01/01/2000,01:10:30.39,21.23,-58.19,-992.59,87.50,-621.25,-271.25,1,94.545,
01/01/2000,01:10:30.40,21.23,-58.32,-992.35,70.0,-708.75,-306.25,1,94.562,
01/01/2000,01:10:30.41,21.11,-58.19,-992.59,218.75,-743.75,-350.0,1,94.578,
01/01/2000,01:10:30.42,21.35,-58.07,-992.59,175.0,-638.75,-341.25,1,94.595,
01/01/2000,01:10:30.43,21.23,-58.07,-992.59,175.0,-682.50,-323.75,1,94.611,
01/01/2000,01:10:30.44,20.98,-58.19,-992.35,210.0,-700.0,-393.75,1,94.627,
01/01/2000,01:10:30.45,21.11,-58.07,-992.23,262.50,-708.75,-350.0,1,94.643,
01/01/2000,01:10:30.46,21.11,-58.19,-992.10,192.50,-708.75,-358.75,1,94.659,
01/01/2000,01:10:30.47,20.98,-58.32,-992.23,87.50,-708.75,-332.50,1,94.395,
01/01/2000,01:10:30.48,20.86,-58.44,-992.35,227.50,-708.75,-306.25,1,94.412,
01/01/2000,01:10:30.49,21.59,-57.83,-992.10,-113.75,-726.25,-358.75,1,94.428,
01/01/2000,01:10:30.50,21.59,-58.19,-991.98,350.0,-673.75,-192.50,1,94.444,
01/01/2000,01:10:30.51,21.11,-58.19,-992.10,0.0,-665.0,-315.0,1,94.461,
01/01/2000,01:10:30.52,21.11,-58.32,-992.35,315.0,-630.0,-481.25,1,94.477,
01/01/2000,01:10:30.53,21.11,-58.19,-992.35,87.50,-787.50,-271.25,1,94.493,
01/01/2000,01:10:30.55,21.35,-57.58,-992.10,-52.50,-603.75,-113.75,1,94.509,
01/01/2000,01:10:30.56,21.23,-57.95,-991.86,35.0,-743.75,-490.0,1,94.524,
01/01/2000,01:10:30.57,21.23,-58.32,-992.10,192.50,-726.25,-183.75,1,94.540,
01/01/2000,01:10:30.58,21.35,-58.32,-992.23,78.75,-665.0,-367.50,1,94.556,
01/01/2000,01:10:30.59,21.35,-58.56,-992.47,140.0,-708.75,-323.75,1,94.571,
01/01/2000,01:10:30.60,21.35,-58.32,-992.35,35.0,-673.75,-428.75,1,94.587,
01/01/2000,01:10:30.61,21.23,-58.19,-992.10,271.25,-682.50,-280.0,1,94.602,
01/01/2000,01:10:30.62,21.23,-58.19,-991.98,175.0,-761.25,-218.75,1,94.618,
01/01/2000,01:10:30.63,21.23,-58.32,-992.10,166.25,-735.0,-411.25,1,94.633,
01/01/2000,01:10:30.64,21.11,-58.44,-992.23,113.75,-726.25,-183.75,1,94.382,
01/01/2000,01:10:30.65,21.35,-58.19,-992.35,166.25,-761.25,-411.25,1,94.398,
01/01/2000,01:10:30.66,21.11,-58.07,-992.10,183.75,-735.0,-306.25,1,94.413,
01/01/2000,01:10:30.68,21.11,-57.83,-992.10,122.50,-813.75,-236.25,1,94.429,
01/01/2000,01:10:30.69,21.23,-57.83,-992.35,315.0,-787.50,-341.25,1,94.444,
01/01/2000,01:10:30.70,21.23,-58.07,-992.59,131.25,-691.25,-280.0,1,94.460,
01/01/2000,01:10:30.71,21.23,-58.07,-992.47,140.0,-691.25,-262.50,1,94.475,
01/01/2000,01:10:30.72,21.23,-58.07,-992.35,113.75,-568.75,-385.0,1,94.490,
01/01/2000,01:10:30.73,21.35,-57.95,-992.23,70.0,-647.50,-183.75,1,94.505,
01/01/2000,01:10:30.74,21.35,-57.95,-992.35,175.0,-735.0,-411.25,1,94.521,
01/01/2000,01:10:30.75,21.23,-58.07,-992.71,96.25,-700.0,-306.25,1,94.536,
01/01/2000,01:10:30.76,21.23,-58.19,-992.59,87.50,-665.0,-315.0,1,94.550,
01/01/2000,01:10:30.77,21.11,-58.19,-992.23,78.75,-691.25,-385.0,1,94.565,
01/01/2000,01:10:30.78,21.23,-58.07,-992.10,166.25,-665.0,-393.75,1,94.580,
01/01/2000,01:10:30.79,21.35,-58.07,-992.10,227.50,-638.75,-315.0,1,94.595,
01/01/2000,01:10:30.80,21.47,-57.95,-992.23,297.50,-735.0,-271.25,1,94.609,
01/01/2000,01:10:30.81,21.35,-58.07,-992.35,122.50,-726.25,-306.25,1,94.624,
01/01/2000,01:10:30.82,21.47,-58.07,-992.10,166.25,-630.0,-367.50,1,94.638,
01/01/2000,01:10:30.83,21.59,-58.07,-992.10,113.75,-665.0,-280.0,1,94.400,
01/01/2000,01:10:30.85,21.59,-58.07,-992.10,122.50,-665.0,-280.0,1,94.415,
01/01/2000,01:10:30.86,21.72,-58.07,-992.35,175.0,-752.50,-402.50,1,94.430,
01/01/2000,01:10:30.87,21.59,-58.07,-992.35,175.0,-647.50,-288.75,1,94.444,
01/01/2000,01:10:30.88,21.59,-58.19,-992.10,131.25,-682.50,-402.50,1,94.459,
01/01/2000,01:10:30.89,21.47,-58.07,-992.10,262.50,-708.75,-341.25,1,94.474,
01/01/2000,01:10:30.90,21.47,-57.83,-991.86,122.50,-743.75,-411.25,1,94.488,
01/01/2000,01:10:30.91,21.47,-57.95,-992.10,105.0,-700.0,-350.0,1,94.503,
01/01/2000,01:10:30.92,21.47,-57.95,-992.35,52.50,-770.0,-350.0,1,94.517,
01/01/2000,01:10:30.93,21.35,-58.07,-992.35,288.75,-787.50,-315.0,1,94.531,
01/01/2000,01:10:30.94,21.23,-58.07,-992.35,166.25,-717.50,-446.25,1,94.545,
01/01/2000,01:10:30.95,21.35,-57.83,-992.35,262.50,-708.75,-358.75,1,94.560,
01/01/2000,01:10:30.96,21.47,-57.83,-992.35,122.50,-700.0,-271.25,1,94.574,
01/01/2000,01:10:30.97,21.35,-57.83,-992.35,271.25,-673.75,-288.75,1,94.344,
01/01/2000,01:10:30.98,21.35,-58.07,-992.35,61.25,-682.50,-463.75,1,94.359,
01/01/2000,01:10:30.99,21.35,-58.07,-992.35,113.75,-665.0,-288.75,1,94.373,
01/01/2000,01:10:31.00,21.47,-58.07,-992.35,87.50,-761.25,-385.0,1,94.388,
01/01/2000,01:10:31.01,21.47,-57.95,-992.23,183.75,-700.0,-297.50,1,94.402,
01/01/2000,01:10:31.02,21.35,-57.95,-992.23,227.50,-682.50,-341.25,1,94.416,
01/01/2000,01:10:31.04,21.35,-57.95,-992.35,245.0,-787.50,-323.75,1,94.430,
01/01/2000,01:10:31.05,21.47,-57.95,-992.35,131.25,-603.75,-411.25,1,94.444,
01/01/2000,01:10:31.06,21.47,-57.71,-992.23,227.50,-700.0,-236.25,1,94.458,
01/01/2000,01:10:31.07,21.47,-57.83,-992.10,122.50,-726.25,-323.75,1,94.472,
01/01/2000,01:10:31.08,21.35,-57.83,-992.10,140.0,-638.75,-428.75,1,94.486,
01/01/2000,01:10:31.09,21.59,-57.83,-991.98,201.25,-630.0,-402.50,1,94.500,
01/01/2000,01:10:31.10,21.59,-57.83,-991.98,131.25,-647.50,-437.50,1,94.514,
01/01/2000,01:10:31.11,21.35,-57.95,-992.10,245.0,-743.75,-96.25,1,94.527,
01/01/2000,01:10:31.12,21.72,-57.71,-992.10,122.50,-656.25,-525.0,1,94.541,
01/01/2000,01:10:31.13,21.59,-57.95,-992.10,192.50,-735.0,-210.0,1,94.554,
01/01/2000,01:10:31.14,21.84,-57.71,-992.10,61.25,-673.75,-227.50,1,94.335,
01/01/2000,01:10:31.15,21.59,-58.07,-992.10,245.0,-682.50,-420.0,1,94.349,
01/01/2000,01:10:31.16,21.59,-57.95,-992.35,96.25,-656.25,-280.0,1,94.363,
01/01/2000,01:10:31.17,21.59,-58.07,-992.23,253.75,-603.75,-516.25,1,94.377,
01/01/2000,01:10:31.19,21.47,-57.83,-992.10,52.50,-665.0,-385.0,1,94.390,
01/01/2000,01:10:31.20,21.47,-57.95,-992.23,192.50,-647.50,-218.75,1,94.404,
01/01/2000,01:10:31.21,21.47,-57.95,-992.23,122.50,-656.25,-350.0,1,94.417,
01/01/2000,01:10:31.22,21.47,-58.07,-992.35,245.0,-726.25,-288.75,1,94.431,
01/01/2000,01:10:31.23,21.59,-58.07,-992.23,35.0,-621.25,-341.25,1,94.444,
01/01/2000,01:10:31.24,21.47,-58.07,-992.10,157.50,-630.0,-472.50,1,94.458,
01/01/2000,01:10:31.25,21.35,-58.07,-991.86,175.0,-682.50,-288.75,1,94.245,
01/01/2000,01:10:31.26,21.23,-58.07,-991.98,131.25,-796.25,-297.50,1,94.258,
01/01/2000,01:10:31.27,21.35,-58.19,-992.10,87.50,-726.25,-376.25,1,94.272,
01/01/2000,01:10:31.28,21.35,-58.07,-992.23,96.25,-638.75,-227.50,1,94.286,
01/01/2000,01:10:31.29,21.23,-58.07,-992.23,140.0,-682.50,-411.25,1,94.299,
01/01/2000,01:10:31.30,21.23,-58.07,-992.10,113.75,-700.0,-350.0,1,94.313,
01/01/2000,01:10:31.31,21.35,-58.19,-992.10,227.50,-743.75,-315.0,1,94.326,
01/01/2000,01:10:31.32,21.23,-58.19,-992.23,175.0,-691.25,-271.25,1,94.340,
01/01/2000,01:10:31.33,21.23,-58.19,-992.35,87.50,-673.75,-280.0,1,94.353,
01/01/2000,01:10:31.35,21.23,-58.19,-992.35,140.0,-656.25,-280.0,1,94.366,
01/01/2000,01:10:31.35,21.23,-58.07,-992.23,96.25,-638.75,-306.25,1,94.379,
01/01/2000,01:10:31.37,21.11,-58.07,-992.10,105.0,-726.25,-376.25,1,94.393,
01/01/2000,01:10:31.38,21.23,-58.07,-992.10,245.0,-682.50,-385.0,1,94.406,
01/01/2000,01:10:31.39,21.11,-58.07,-992.23,201.25,-717.50,-402.50,1,94.419,
01/01/2000,01:10:31.40,21.11,-58.07,-992.10,70.0,-673.75,-358.75,1,94.432,
01/01/2000,01:10:31.41,21.23,-57.95,-992.10,192.50,-813.75,-341.25,1,94.444,
01/01/2000,01:10:31.42,21.11,-57.95,-991.98,183.75,-726.25,-297.50,1,94.457,
01/01/2000,01:10:31.43,21.11,-57.83,-991.86,113.75,-638.75,-323.75,1,94.470,
01/01/2000,01:10:31.44,21.23,-57.95,-992.10,105.0,-743.75,-358.75,1,94.483,
01/01/2000,01:10:31.45,21.23,-57.95,-992.23,385.0,-700.0,-297.50,1,94.495,
01/01/2000,01:10:31.46,21.23,-57.95,-992.35,131.25,-533.75,-428.75,1,94.292,
01/01/2000,01:10:31.47,21.11,-58.32,-992.10,227.50,-700.0,-848.75,1,94.305,
01/01/2000,01:10:31.48,21.23,-58.19,-991.98,201.25,-770.0,-166.25,1,94.318,
01/01/2000,01:10:31.49,21.84,-57.58,-991.86,-52.50,-717.50,-315.0,1,94.331,
01/01/2000,01:10:31.50,20.74,-58.56,-992.10,218.75,-717.50,-17.50,1,94.344,
01/01/2000,01:10:31.51,20.98,-57.95,-992.35,-78.75,-691.25,-490.0,1,94.357,
01/01/2000,01:10:31.52,21.11,-58.32,-992.47,315.0,-726.25,-323.75,1,94.369,
01/01/2000,01:10:31.54,21.35,-57.58,-992.35,148.75,-787.50,-8.75,1,94.382,
01/01/2000,01:10:31.55,21.23,-57.58,-992.10,105.0,-708.75,-507.50,1,94.395,
01/01/2000,01:10:31.56,21.11,-58.07,-991.98,113.75,-665.0,-280.0,1,94.407,
01/01/2000,01:10:31.57,21.23,-57.95,-992.10,52.50,-673.75,-481.25,1,94.420,
01/01/2000,01:10:31.58,21.11,-58.07,-992.47,148.75,-726.25,-253.75,1,94.432,
01/01/2000,01:10:31.59,21.23,-58.07,-992.59,122.50,-796.25,-253.75,1,94.444,
01/01/2000,01:10:31.60,21.23,-58.19,-992.23,210.0,-700.0,-253.75,1,94.457,
01/01/2000,01:10:31.61,21.11,-58.32,-992.23,105.0,-787.50,-262.50,1,94.469,
01/01/2000,01:10:31.62,21.23,-58.32,-992.35,96.25,-700.0,-341.25,1,94.481,
01/01/2000,01:10:31.63,21.23,-58.44,-992.59,376.25,-656.25,-271.25,1,94.493,
01/01/2000,01:10:31.64,21.35,-58.07,-992.47,61.25,-673.75,-236.25,1,94.505,
01/01/2000,01:10:31.65,21.35,-58.07,-991.98,183.75,-726.25,-446.25,1,94.518,
01/01/2000,01:10:31.66,21.23,-58.07,-991.86,140.0,-682.50,-175.0,1,94.530,
01/01/2000,01:10:31.68,21.35,-58.32,-991.98,26.25,-691.25,-350.0,1,94.336,
01/01/2000,01:10:31.69,21.35,-58.32,-992.35,262.50,-691.25,-288.75,1,94.348,
01/01/2000,01:10:31.70,21.35,-58.19,-992.23,201.25,-700.0,-323.75,1,94.156,
01/01/2000,01:10:31.71,21.35,-57.95,-992.10,148.75,-735.0,-358.75,1,94.168,
01/01/2000,01:10:31.72,21.35,-58.19,-992.35,175.0,-630.0,-341.25,1,94.181,
01/01/2000,01:10:31.73,21.47,-58.19,-992.35,122.50,-665.0,-227.50,1,94.194,
01/01/2000,01:10:31.74,21.47,-58.32,-992.47,70.0,-813.75,-288.75,1,94.206,
01/01/2000,01:10:31.75,21.23,-58.44,-992.47,288.75,-682.50,-393.75,1,94.218,
01/01/2000,01:10:31.77,21.23,-58.19,-992.35,87.50,-735.0,-411.25,1,94.231,
01/01/2000,01:10:31.77,21.23,-58.19,-992.35,227.50,-630.0,-297.50,1,94.243,
01/01/2000,01:10:31.79,21.23,-58.19,-992.35,131.25,-700.0,-332.50,1,94.255,
01/01/2000,01:10:31.80,21.23,-58.44,-992.35,131.25,-700.0,-332.50,1,94.268,
01/01/2000,01:10:31.81,20.98,-58.44,-992.35,113.75,-700.0,-385.0,1,94.280,
01/01/2000,01:10:31.82,21.11,-58.44,-992.35,210.0,-568.75,-297.50,1,94.292,
01/01/2000,01:10:31.83,21.23,-58.32,-992.23,148.75,-656.25,-315.0,1,94.304,
01/01/2000,01:10:31.84,21.23,-58.32,-992.47,122.50,-778.75,-367.50,1,94.316,
01/01/2000,01:10:31.85,21.47,-58.32,-992.59,87.50,-630.0,-332.50,1,94.328,
01/01/2000,01:10:31.86,21.35,-58.32,-992.47,52.50,-691.25,-297.50,1,94.340,
01/01/2000,01:10:31.87,21.23,-58.44,-992.47,113.75,-603.75,-411.25,1,94.351,
01/01/2000,01:10:31.88,21.35,-58.32,-992.47,61.25,-551.25,-245.0,1,94.363,
01/01/2000,01:10:31.89,21.35,-58.32,-992.47,113.75,-630.0,-385.0,1,94.375,
01/01/2000,01:10:31.90,21.23,-58.32,-992.47,78.75,-752.50,-288.75,1,94.387,
01/01/2000,01:10:31.91,21.23,-58.32,-992.47,131.25,-647.50,-306.25,1,94.398,
01/01/2000,01:10:31.92,21.23,-58.32,-992.47,166.25,-656.25,-315.0,1,94.410,
01/01/2000,01:10:31.93,21.35,-58.32,-992.47,201.25,-726.25,-341.25,1,94.421,
01/01/2000,01:10:31.94,21.47,-58.07,-992.35,218.75,-726.25,-280.0,1,94.433,
01/01/2000,01:10:31.95,21.47,-58.32,-992.35,52.50,-708.75,-323.75,1,94.444,
01/01/2000,01:10:31.96,21.35,-58.32,-992.47,8.75,-691.25,-192.50,1,94.262,
01/01/2000,01:10:31.97,21.35,-58.32,-992.59,245.0,-761.25,-472.50,1,94.274,
01/01/2000,01:10:31.98,21.23,-58.19,-992.59,43.75,-717.50,-262.50,1,94.286,
01/01/2000,01:10:32.00,21.35,-58.19,-992.59,183.75,-603.75,-437.50,1,94.297,
01/01/2000,01:10:32.00,21.35,-58.19,-992.35,35.0,-761.25,-367.50,1,94.309,
01/01/2000,01:10:32.02,21.23,-58.32,-992.47,218.75,-638.75,-323.75,1,94.320,
01/01/2000,01:10:32.03,21.23,-58.32,-992.59,78.75,-708.75,-315.0,1,94.332,
01/01/2000,01:10:32.04,21.23,-58.32,-992.35,122.50,-717.50,-280.0,1,94.343,
01/01/2000,01:10:32.05,21.35,-58.32,-992.35,201.25,-656.25,-323.75,1,94.355,
01/01/2000,01:10:32.06,21.23,-58.19,-992.35,105.0,-568.75,-332.50,1,94.366,
01/01/2000,01:10:32.07,21.11,-58.19,-992.35,245.0,-647.50,-332.50,1,94.378,
01/01/2000,01:10:32.08,21.11,-58.19,-992.35,183.75,-647.50,-402.50,1,94.389,
01/01/2000,01:10:32.09,21.11,-58.19,-992.47,35.0,-735.0,-236.25,1,94.400,
01/01/2000,01:10:32.10,21.23,-58.32,-992.35,183.75,-603.75,-350.0,1,94.223,
01/01/2000,01:10:32.11,21.23,-58.19,-992.35,122.50,-708.75,-446.25,1,94.235,
01/01/2000,01:10:32.12,21.23,-58.19,-992.10,70.0,-700.0,-297.50,1,94.246,
01/01/2000,01:10:32.13,21.23,-58.07,-992.23,148.75,-717.50,-367.50,1,94.257,
01/01/2000,01:10:32.14,21.23,-57.95,-992.35,262.50,-717.50,-341.25,1,94.269,
01/01/2000,01:10:32.15,21.23,-58.07,-992.35,201.25,-726.25,-315.0,1,94.280,
01/01/2000,01:10:32.16,21.23,-58.19,-992.35,175.0,-612.50,-306.25,1,94.291,
01/01/2000,01:10:32.18,21.23,-58.19,-992.10,70.0,-813.75,-385.0,1,94.303,
01/01/2000,01:10:32.19,21.23,-58.07,-992.23,105.0,-700.0,-385.0,1,94.314,
01/01/2000,01:10:32.20,21.11,-58.07,-992.35,148.75,-612.50,-306.25,1,94.325,
01/01/2000,01:10:32.21,21.11,-58.07,-992.10,183.75,-638.75,-402.50,1,94.336,
01/01/2000,01:10:32.22,21.11,-58.07,-992.10,227.50,-770.0,-393.75,1,94.163,
01/01/2000,01:10:32.23,21.23,-58.19,-992.35,140.0,-638.75,-350.0,1,94.175,
01/01/2000,01:10:32.24,21.23,-58.19,-992.47,245.0,-752.50,-411.25,1,94.186,
01/01/2000,01:10:32.25,21.35,-58.07,-992.35,17.50,-691.25,-393.75,1,94.197,
01/01/2000,01:10:32.26,21.23,-58.07,-992.47,131.25,-700.0,-358.75,1,94.208,
01/01/2000,01:10:32.27,21.23,-58.07,-992.47,166.25,-813.75,-393.75,1,94.220,
01/01/2000,01:10:32.28,21.35,-58.07,-992.47,245.0,-717.50,-341.25,1,94.231,
01/01/2000,01:10:32.29,21.35,-58.07,-992.59,52.50,-682.50,-332.50,1,94.242,
01/01/2000,01:10:32.30,21.35,-58.19,-992.59,148.75,-735.0,-358.75,1,94.253,
01/01/2000,01:10:32.32,21.23,-58.32,-992.59,70.0,-638.75,-367.50,1,94.264,
01/01/2000,01:10:32.33,21.23,-58.07,-992.47,131.25,-568.75,-315.0,1,94.275,
01/01/2000,01:10:32.34,21.23,-58.19,-992.47,175.0,-665.0,-262.50,1,94.286,
01/01/2000,01:10:32.35,21.23,-58.32,-992.59,210.0,-700.0,-376.25,1,94.297,
01/01/2000,01:10:32.36,21.11,-58.32,-992.47,78.75,-708.75,-280.0,1,94.307,
01/01/2000,01:10:32.37,20.98,-58.32,-992.23,113.75,-647.50,-297.50,1,94.318,
01/01/2000,01:10:32.38,20.98,-58.44,-992.23,218.75,-638.75,-297.50,1,94.329,
01/01/2000,01:10:32.39,20.98,-58.44,-992.10,175.0,-778.75,-376.25,1,94.340,
01/01/2000,01:10:32.40,21.23,-58.32,-992.10,105.0,-673.75,-385.0,1,94.350,
01/01/2000,01:10:32.41,21.11,-58.32,-992.10,236.25,-673.75,-297.50,1,94.361,
01/01/2000,01:10:32.42,21.23,-58.19,-992.10,-8.75,-595.0,-341.25,1,94.371,
01/01/2000,01:10:32.43,21.23,-58.32,-992.10,201.25,-630.0,-472.50,1,94.382,
01/01/2000,01:10:32.44,21.23,-58.44,-992.10,183.75,-805.0,-402.50,1,94.393,
01/01/2000,01:10:32.45,21.23,-58.44,-992.10,87.50,-603.75,-385.0,1,94.403,
01/01/2000,01:10:32.46,21.47,-58.32,-992.35,245.0,-577.50,-402.50,1,94.413,
01/01/2000,01:10:32.47,21.47,-58.32,-992.35,175.0,-638.75,-367.50,1,94.424,
01/01/2000,01:10:32.48,21.59,-58.44,-992.35,87.50,-717.50,-306.25,1,94.434,
01/01/2000,01:10:32.49,21.59,-58.32,-992.35,183.75,-656.25,-428.75,1,94.444,
01/01/2000,01:10:32.50,21.59,-58.32,-992.23,166.25,-603.75,-350.0,1,94.455,
01/01/2000,01:10:32.51,21.47,-58.44,-992.35,140.0,-805.0,-315.0,1,94.465,
01/01/2000,01:10:32.53,21.59,-58.32,-992.35,96.25,-717.50,-393.75,1,94.301,
01/01/2000,01:10:32.54,21.47,-58.44,-992.35,166.25,-691.25,-288.75,1,94.312,
01/01/2000,01:10:32.55,21.59,-58.32,-992.23,288.75,-778.75,-350.0,1,94.322,
01/01/2000,01:10:32.56,21.59,-58.44,-992.10,280.0,-708.75,-332.50,1,94.333,
01/01/2000,01:10:32.57,21.59,-58.32,-992.10,210.0,-708.75,-297.50,1,94.343,
01/01/2000,01:10:32.58,21.59,-58.32,-992.10,157.50,-691.25,-411.25,1,94.353,
01/01/2000,01:10:32.59,21.72,-58.19,-992.23,245.0,-638.75,-306.25,1,94.364,
01/01/2000,01:10:32.60,21.59,-58.32,-992.35,218.75,-726.25,-385.0,1,94.374,
01/01/2000,01:10:32.61,21.47,-58.19,-992.23,96.25,-735.0,-393.75,1,94.384,
01/01/2000,01:10:32.62,21.47,-58.19,-992.23,227.50,-796.25,-341.25,1,94.394,
01/01/2000,01:10:32.63,21.47,-58.32,-992.23,192.50,-682.50,-350.0,1,94.404,
01/01/2000,01:10:32.64,21.59,-58.32,-992.23,122.50,-673.75,-315.0,1,94.414,
01/01/2000,01:10:32.65,21.59,-58.32,-992.23,87.50,-778.75,-350.0,1,94.424,
01/01/2000,01:10:32.66,21.59,-58.32,-992.35,323.75,-656.25,-385.0,1,94.434,
01/01/2000,01:10:32.67,21.47,-58.32,-992.47,78.75,-612.50,-332.50,1,94.275,
01/01/2000,01:10:32.68,21.47,-58.19,-992.59,218.75,-621.25,-297.50,1,94.286,
01/01/2000,01:10:32.69,21.47,-58.19,-992.47,245.0,-752.50,-350.0,1,94.296,
01/01/2000,01:10:32.70,21.23,-58.32,-992.59,245.0,-673.75,-428.75,1,94.306,
01/01/2000,01:10:32.71,21.23,-58.32,-992.59,140.0,-638.75,-358.75,1,94.316,
01/01/2000,01:10:32.73,21.35,-58.32,-992.59,96.25,-717.50,-385.0,1,94.326,
01/01/2000,01:10:32.74,21.35,-58.19,-992.59,105.0,-673.75,-218.75,1,94.336,
01/01/2000,01:10:32.75,21.35,-58.32,-992.59,227.50,-708.75,-350.0,1,94.346,
01/01/2000,01:10:32.76,21.35,-58.32,-992.59,-8.75,-761.25,-297.50,1,94.356,
01/01/2000,01:10:32.77,21.23,-58.32,-992.59,280.0,-673.75,-428.75,1,94.366,
01/01/2000,01:10:32.78,21.47,-58.32,-992.59,166.25,-708.75,-175.0,1,94.376,
01/01/2000,01:10:32.79,21.47,-58.32,-992.59,192.50,-630.0,-341.25,1,94.386,
01/01/2000,01:10:32.80,21.47,-58.32,-992.47,157.50,-691.25,-358.75,1,94.396,
01/01/2000,01:10:32.81,21.47,-58.32,-992.35,70.0,-682.50,-271.25,1,94.241,
01/01/2000,01:10:32.82,21.47,-58.44,-992.23,113.75,-708.75,-367.50,1,94.251,
01/01/2000,01:10:32.83,21.47,-58.44,-992.23,131.25,-708.75,-367.50,1,94.261,
01/01/2000,01:10:32.84,21.59,-58.44,-992.23,201.25,-691.25,-358.75,1,94.271,
01/01/2000,01:10:32.85,21.72,-58.56,-992.35,218.75,-700.0,-306.25,1,94.281,
01/01/2000,01:10:32.86,21.59,-58.44,-992.47,87.50,-761.25,-315.0,1,94.291,
01/01/2000,01:10:32.87,21.47,-58.32,-992.35,192.50,-735.0,-288.75,1,94.301,
01/01/2000,01:10:32.89,21.23,-58.32,-992.35,236.25,-761.25,-297.50,1,94.310,
01/01/2000,01:10:32.90,21.23,-58.32,-992.47,201.25,-612.50,-306.25,1,94.320,
01/01/2000,01:10:32.91,21.23,-58.19,-992.59,131.25,-551.25,-393.75,1,94.330,
01/01/2000,01:10:32.92,21.23,-58.07,-992.59,166.25,-726.25,-402.50,1,94.340,
01/01/2000,01:10:32.93,21.23,-58.19,-992.35,236.25,-630.0,-358.75,1,94.349,
01/01/2000,01:10:32.94,21.11,-58.07,-992.35,166.25,-656.25,-376.25,1,94.359,
01/01/2000,01:10:32.95,20.98,-58.07,-992.35,280.0,-735.0,-385.0,1,94.369,
01/01/2000,01:10:32.96,21.11,-58.19,-992.35,183.75,-726.25,-341.25,1,94.378,
01/01/2000,01:10:32.97,21.23,-58.32,-992.47,43.75,-752.50,-332.50,1,94.388,
01/01/2000,01:10:32.98,21.23,-58.32,-992.23,166.25,-770.0,-350.0,1,94.397,
01/01/2000,01:10:32.99,21.23,-58.32,-992.35,43.75,-630.0,-341.25,1,94.407,
01/01/2000,01:10:33.00,21.11,-58.32,-992.35,131.25,-752.50,-332.50,1,94.416,
01/01/2000,01:10:33.01,21.23,-58.44,-992.59,148.75,-735.0,-280.0,1,94.426,
01/01/2000,01:10:33.02,21.23,-58.44,-992.59,245.0,-665.0,-376.25,1,94.276,
01/01/2000,01:10:33.04,21.11,-58.19,-992.47,52.50,-595.0,-315.0,1,94.286,
01/01/2000,01:10:33.04,21.11,-58.32,-992.35,113.75,-700.0,-315.0,1,94.295,
01/01/2000,01:10:33.06,21.11,-58.07,-992.35,323.75,-700.0,-280.0,1,94.305,
01/01/2000,01:10:33.07,21.23,-58.19,-992.35,113.75,-630.0,-376.25,1,94.314,
01/01/2000,01:10:33.08,21.23,-58.19,-992.35,35.0,-665.0,-306.25,1,94.324,
01/01/2000,01:10:33.09,21.35,-58.32,-992.23,192.50,-612.50,-350.0,1,94.333,
01/01/2000,01:10:33.10,21.23,-58.19,-992.35,70.0,-708.75,-341.25,1,94.343,
01/01/2000,01:10:33.11,21.23,-58.32,-992.59,87.50,-673.75,-236.25,1,94.352,
01/01/2000,01:10:33.12,21.23,-58.44,-992.59,140.0,-586.25,-385.0,1,94.362,
01/01/2000,01:10:33.13,21.23,-58.44,-992.59,218.75,-770.0,-297.50,1,94.371,
01/01/2000,01:10:33.14,21.23,-58.44,-992.35,192.50,-612.50,-481.25,1,94.380,
01/01/2000,01:10:33.15,21.23,-58.32,-992.35,210.0,-595.0,-367.50,1,94.389,
01/01/2000,01:10:33.16,21.35,-58.19,-992.23,218.75,-726.25,-323.75,1,94.243,
01/01/2000,01:10:33.17,21.35,-58.32,-992.35,140.0,-673.75,-280.0,1,94.253,
01/01/2000,01:10:33.18,21.35,-58.32,-992.35,96.25,-717.50,-376.25,1,94.262,
01/01/2000,01:10:33.19,21.35,-58.44,-992.35,140.0,-717.50,-280.0,1,94.272,
01/01/2000,01:10:33.20,21.23,-58.07,-992.23,157.50,-770.0,-341.25,1,94.281,
01/01/2000,01:10:33.21,21.11,-58.32,-991.98,262.50,-691.25,-253.75,1,94.290,
01/01/2000,01:10:33.22,21.23,-58.19,-992.10,210.0,-682.50,-516.25,1,94.300,
01/01/2000,01:10:33.24,10.13,-56.24,-949.77,96.25,-1128.75,3342.50,1,94.309,
01/01/2000,01:10:33.25,12.69,-54.90,-962.82,-1548.75,-1645.0,-2747.50,1,94.165,
01/01/2000,01:10:33.26,21.47,-64.05,-999.18,1190.0,-1268.75,-3771.25,1,94.175,
01/01/2000,01:10:33.27,29.28,-63.07,-1032.36,78.75,122.50,-1592.50,1,94.184,
01/01/2000,01:10:33.28,29.52,-61.61,-1043.10,822.50,148.75,3106.25,1,94.194,
01/01/2000,01:10:33.29,27.33,-52.95,-1019.07,-367.50,-113.75,140.0,1,94.203,
01/01/2000,01:10:33.30,23.67,-52.46,-993.81,560.0,-805.0,-1330.0,1,94.212,
01/01/2000,01:10:33.31,20.98,-54.17,-976.12,-192.50,-1128.75,262.50,1,94.222,
01/01/2000,01:10:33.32,19.89,-63.20,-976.98,183.75,-1146.25,603.75,1,94.231,
01/01/2000,01:10:33.33,22.08,-65.64,-991.62,-26.25,-901.25,-1557.50,1,94.240,
01/01/2000,01:10:33.35,23.67,-63.44,-1003.94,288.75,-595.0,-1968.75,1,94.249,
01/01/2000,01:10:33.35,23.18,-57.71,-1006.01,210.0,-323.75,595.0,1,94.258,
01/01/2000,01:10:33.37,21.47,-50.75,-996.01,201.25,-463.75,700.0,1,94.268,
01/01/2000,01:10:33.38,20.01,-51.97,-988.32,-8.75,-708.75,411.25,1,94.277,
01/01/2000,01:10:33.39,20.13,-56.61,-984.17,358.75,-831.25,140.0,1,94.286,
01/01/2000,01:10:33.40,20.74,-61.98,-985.39,271.25,-796.25,-778.75,1,94.295,
01/01/2000,01:10:33.41,22.69,-65.03,-992.47,122.50,-822.50,-1601.25,1,94.304,
01/01/2000,01:10:33.42,22.57,-62.22,-994.79,323.75,-542.50,-1155.0,1,94.313,
01/01/2000,01:10:33.43,21.59,-56.73,-993.81,183.75,-603.75,-402.50,1,94.322,
01/01/2000,01:10:33.44,20.50,-52.70,-991.37,157.50,-691.25,682.50,1,94.331,
01/01/2000,01:10:33.45,19.52,-53.31,-989.54,236.25,-665.0,568.75,1,94.340,
01/01/2000,01:10:33.46,20.50,-59.41,-991.13,87.50,-682.50,-481.25,1,94.349,
01/01/2000,01:10:33.47,21.72,-62.71,-992.10,245.0,-778.75,-1330.0,1,94.357,
01/01/2000,01:10:33.48,22.33,-62.59,-992.10,280.0,-752.50,-1242.50,1,94.366,
01/01/2000,01:10:33.49,22.20,-59.90,-991.37,236.25,-761.25,-183.75,1,94.375,
01/01/2000,01:10:33.50,21.47,-56.61,-990.64,201.25,-621.25,245.0,1,94.384,
01/01/2000,01:10:33.51,20.25,-54.17,-991.49,140.0,-673.75,253.75,1,94.246,
01/01/2000,01:10:33.52,20.37,-56.97,-993.32,227.50,-603.75,-192.50,1,94.255,
01/01/2000,01:10:33.53,20.98,-59.41,-993.32,113.75,-691.25,-875.0,1,94.264,
01/01/2000,01:10:33.54,21.72,-61.0,-992.23,70.0,-735.0,-813.75,1,94.272,
01/01/2000,01:10:33.56,22.08,-60.51,-991.01,70.0,-778.75,-463.75,1,94.281,
01/01/2000,01:10:33.56,21.59,-58.32,-990.76,245.0,-682.50,-166.25,1,94.290,
01/01/2000,01:10:33.58,20.86,-56.49,-992.10,131.25,-813.75,-183.75,1,94.299,
01/01/2000,01:10:33.59,20.13,-56.12,-994.06,253.75,-656.25,-358.75,1,94.308,
01/01/2000,01:10:33.60,20.13,-56.85,-993.81,166.25,-638.75,-350.0,1,94.316,
01/01/2000,01:10:33.61,20.86,-58.32,-992.35,70.0,-586.25,-385.0,1,94.325,
01/01/2000,01:10:33.62,21.72,-59.29,-990.52,-52.50,-787.50,-411.25,1,94.334,
01/01/2000,01:10:33.63,22.08,-59.54,-990.64,96.25,-831.25,-446.25,1,94.343,
01/01/2000,01:10:33.64,21.72,-58.68,-991.98,105.0,-752.50,-385.0,1,94.351,
01/01/2000,01:10:33.65,20.98,-57.58,-993.32,218.75,-787.50,-385.0,1,94.360,
01/01/2000,01:10:33.66,20.37,-56.61,-993.45,332.50,-656.25,-183.75,1,94.225,
01/01/2000,01:10:33.67,20.74,-56.73,-992.47,148.75,-682.50,-113.75,1,94.234,
01/01/2000,01:10:33.68,21.96,-58.56,-991.25,113.75,-743.75,-175.0,1,94.242,
01/01/2000,01:10:33.69,22.33,-59.78,-991.49,175.0,-831.25,-236.25,1,94.251,
01/01/2000,01:10:33.70,22.20,-60.02,-992.23,122.50,-822.50,-455.0,1,94.260,
01/01/2000,01:10:33.71,21.59,-59.29,-993.08,87.50,-568.75,-621.25,1,94.268,
01/01/2000,01:10:33.73,20.98,-57.10,-993.32,166.25,-700.0,-218.75,1,94.277,
01/01/2000,01:10:33.74,20.98,-56.36,-992.35,166.25,-665.0,-70.0,1,94.286,
01/01/2000,01:10:33.75,21.96,-58.19,-991.98,210.0,-761.25,-78.75,1,94.294,
01/01/2000,01:10:33.76,21.96,-59.41,-992.23,166.25,-770.0,-393.75,1,94.162,
01/01/2000,01:10:33.77,21.96,-60.02,-992.47,140.0,-726.25,-691.25,1,94.170,
01/01/2000,01:10:33.78,21.72,-59.17,-992.71,157.50,-787.50,-551.25,1,94.179,
01/01/2000,01:10:33.79,21.23,-56.85,-992.59,140.0,-656.25,-393.75,1,94.188,
01/01/2000,01:10:33.80,21.11,-56.36,-992.35,148.75,-568.75,-35.0,1,94.196,
01/01/2000,01:10:33.81,21.23,-56.85,-992.47,148.75,-586.25,-113.75,1,94.205,
01/01/2000,01:10:33.82,21.47,-58.80,-992.59,280.0,-647.50,-315.0,1,94.214,
01/01/2000,01:10:33.83,21.59,-59.41,-992.35,78.75,-665.0,-621.25,1,94.222,
01/01/2000,01:10:33.84,21.59,-59.29,-992.10,140.0,-735.0,-533.75,1,94.231,
01/01/2000,01:10:33.85,21.35,-58.32,-991.86,157.50,-743.75,-385.0,1,94.239,
01/01/2000,01:10:33.86,21.11,-57.22,-992.35,192.50,-717.50,-61.25,1,94.248,
01/01/2000,01:10:33.88,21.11,-57.34,-992.59,218.75,-700.0,-52.50,1,94.256,
01/01/2000,01:10:33.89,21.23,-57.83,-992.71,148.75,-665.0,-376.25,1,94.265,
01/01/2000,01:10:33.90,21.59,-58.68,-992.23,192.50,-700.0,-507.50,1,94.273,
01/01/2000,01:10:33.91,21.84,-59.05,-991.86,-17.50,-743.75,-621.25,1,94.282,
01/01/2000,01:10:33.92,21.84,-58.56,-991.74,78.75,-831.25,-446.25,1,94.290,
01/01/2000,01:10:33.93,21.72,-58.07,-992.10,218.75,-682.50,-358.75,1,94.298,
01/01/2000,01:10:33.94,21.35,-57.83,-992.59,166.25,-708.75,-210.0,1,94.307,
01/01/2000,01:10:33.95,21.47,-57.83,-992.47,140.0,-656.25,-245.0,1,94.315,
01/01/2000,01:10:33.96,21.59,-58.32,-992.10,271.25,-647.50,-297.50,1,94.323,
01/01/2000,01:10:33.97,21.72,-58.56,-991.86,175.0,-770.0,-402.50,1,94.331,
01/01/2000,01:10:33.98,21.84,-58.80,-991.86,131.25,-735.0,-297.50,1,94.340,
01/01/2000,01:10:33.99,21.59,-58.80,-992.10,183.75,-638.75,-367.50,1,94.348,
01/01/2000,01:10:34.00,21.47,-58.19,-992.47,183.75,-630.0,-271.25,1,94.356,
01/01/2000,01:10:34.01,21.23,-57.83,-992.35,87.50,-665.0,-280.0,1,94.228,
01/01/2000,01:10:34.02,21.47,-57.95,-992.10,192.50,-656.25,-376.25,1,94.236,
01/01/2000,01:10:34.03,21.59,-58.19,-991.98,70.0,-787.50,-420.0,1,94.245,
01/01/2000,01:10:34.04,21.72,-58.44,-992.10,262.50,-673.75,-358.75,1,94.253,
01/01/2000,01:10:34.05,21.72,-58.68,-992.23,218.75,-726.25,-385.0,1,94.261,
01/01/2000,01:10:34.06,21.47,-58.44,-992.35,253.75,-682.50,-341.25,1,94.269,
01/01/2000,01:10:34.08,21.47,-57.83,-992.23,8.75,-682.50,-341.25,1,94.278,
01/01/2000,01:10:34.09,21.35,-57.71,-992.23,210.0,-752.50,-236.25,1,94.286,
01/01/2000,01:10:34.10,21.59,-57.83,-992.23,96.25,-630.0,-315.0,1,94.294,
01/01/2000,01:10:34.11,21.47,-58.32,-992.23,87.50,-770.0,-437.50,1,94.302,
01/01/2000,01:10:34.12,21.59,-58.56,-992.10,96.25,-770.0,-446.25,1,94.310,
01/01/2000,01:10:34.13,21.59,-58.32,-991.98,262.50,-665.0,-367.50,1,94.318,
01/01/2000,01:10:34.14,21.47,-58.07,-991.98,227.50,-743.75,-393.75,1,94.326,
01/01/2000,01:10:34.15,21.47,-57.58,-991.86,245.0,-621.25,-306.25,1,94.201,
01/01/2000,01:10:34.16,21.35,-57.58,-991.86,87.50,-717.50,-210.0,1,94.209,
01/01/2000,01:10:34.17,21.47,-58.07,-991.86,113.75,-630.0,-323.75,1,94.217,
01/01/2000,01:10:34.18,21.72,-58.32,-991.86,245.0,-735.0,-350.0,1,94.225,
01/01/2000,01:10:34.19,21.72,-58.07,-991.86,-52.50,-577.50,-385.0,1,94.233,
01/01/2000,01:10:34.20,21.72,-58.19,-991.86,297.50,-717.50,-332.50,1,94.242,
01/01/2000,01:10:34.21,21.72,-57.71,-991.98,175.0,-770.0,-183.75,1,94.250,
01/01/2000,01:10:34.23,21.47,-57.58,-992.23,157.50,-770.0,-315.0,1,94.258,
01/01/2000,01:10:34.24,21.47,-57.83,-992.23,245.0,-691.25,-315.0,1,94.266,
01/01/2000,01:10:34.25,21.72,-57.83,-991.98,262.50,-743.75,-323.75,1,94.274,
01/01/2000,01:10:34.26,21.72,-57.95,-991.86,105.0,-673.75,-315.0,1,94.282,
01/01/2000,01:10:34.27,21.72,-57.95,-991.86,157.50,-673.75,-411.25,1,94.290,
01/01/2000,01:10:34.28,21.47,-57.83,-991.98,166.25,-778.75,-411.25,1,94.167,
01/01/2000,01:10:34.29,21.47,-57.71,-992.23,35.0,-700.0,-323.75,1,94.306,
01/01/2000,01:10:34.30,21.35,-57.83,-992.35,26.25,-691.25,-323.75,1,94.183,
01/01/2000,01:10:34.31,21.35,-57.83,-992.23,166.25,-805.0,-358.75,1,94.191,
01/01/2000,01:10:34.32,21.47,-58.19,-991.98,262.50,-761.25,-332.50,1,94.199,
01/01/2000,01:10:34.33,21.47,-58.19,-991.98,201.25,-665.0,-446.25,1,94.207,
01/01/2000,01:10:34.34,21.47,-58.19,-992.10,245.0,-743.75,-437.50,1,94.215,
01/01/2000,01:10:34.35,21.47,-58.07,-992.35,253.75,-630.0,-420.0,1,94.223,
01/01/2000,01:10:34.36,21.47,-57.71,-992.47,122.50,-691.25,-323.75,1,94.231,
01/01/2000,01:10:34.37,21.47,-57.71,-992.35,175.0,-752.50,-280.0,1,94.239,
01/01/2000,01:10:34.38,21.47,-57.83,-992.35,70.0,-665.0,-280.0,1,94.247,
01/01/2000,01:10:34.40,21.47,-58.19,-992.35,113.75,-691.25,-350.0,1,94.254,
01/01/2000,01:10:34.41,21.35,-58.19,-992.35,140.0,-770.0,-393.75,1,94.262,
01/01/2000,01:10:34.42,21.47,-58.07,-992.47,201.25,-778.75,-385.0,1,94.270,
01/01/2000,01:10:34.43,21.35,-57.71,-992.35,70.0,-778.75,-201.25,1,94.278,
01/01/2000,01:10:34.44,21.47,-57.83,-992.35,201.25,-673.75,-341.25,1,94.286,
01/01/2000,01:10:34.45,21.47,-57.95,-992.35,201.25,-612.50,-306.25,1,94.293,
01/01/2000,01:10:34.46,21.47,-58.07,-992.23,131.25,-691.25,-288.75,1,94.301,
01/01/2000,01:10:34.47,21.47,-58.32,-992.10,271.25,-638.75,-306.25,1,94.309,
01/01/2000,01:10:34.48,21.35,-58.07,-992.10,87.50,-761.25,-341.25,1,94.317,
01/01/2000,01:10:34.49,21.35,-58.07,-992.10,183.75,-708.75,-271.25,1,94.324,
01/01/2000,01:10:34.50,21.23,-57.83,-992.10,183.75,-673.75,-393.75,1,94.332,
01/01/2000,01:10:34.51,21.35,-57.95,-992.23,113.75,-770.0,-306.25,1,94.340,
01/01/2000,01:10:34.52,21.59,-58.07,-992.23,148.75,-761.25,-297.50,1,94.347,
01/01/2000,01:10:34.53,21.59,-58.07,-991.98,87.50,-708.75,-350.0,1,94.355,
01/01/2000,01:10:34.54,21.47,-58.32,-991.98,201.25,-647.50,-446.25,1,94.362,
01/01/2000,01:10:34.55,21.47,-58.07,-992.10,218.75,-673.75,-376.25,1,94.370,
01/01/2000,01:10:34.56,21.72,-58.07,-992.10,315.0,-700.0,-288.75,1,94.378,
01/01/2000,01:10:34.57,21.47,-57.83,-992.35,166.25,-717.50,-323.75,1,94.259,
01/01/2000,01:10:34.58,21.47,-57.83,-992.47,122.50,-743.75,-393.75,1,94.267,
01/01/2000,01:10:34.60,21.47,-57.95,-992.35,122.50,-735.0,-393.75,1,94.274,
01/01/2000,01:10:34.60,21.47,-58.19,-992.23,236.25,-682.50,-315.0,1,94.282,
01/01/2000,01:10:34.62,21.47,-58.07,-992.10,122.50,-717.50,-376.25,1,94.290,
01/01/2000,01:10:34.63,21.35,-58.19,-992.10,236.25,-577.50,-332.50,1,94.297,
01/01/2000,01:10:34.64,21.23,-58.32,-992.10,131.25,-682.50,-437.50,1,94.305,
01/01/2000,01:10:34.65,21.11,-58.19,-991.98,105.0,-638.75,-385.0,1,94.312,
01/01/2000,01:10:34.66,21.23,-58.19,-991.98,148.75,-761.25,-323.75,1,94.320,
01/01/2000,01:10:34.67,21.23,-58.32,-991.86,175.0,-761.25,-341.25,1,94.327,
01/01/2000,01:10:34.68,21.23,-58.07,-991.86,87.50,-752.50,-367.50,1,94.335,
01/01/2000,01:10:34.69,21.23,-58.07,-991.98,122.50,-638.75,-297.50,1,94.342,
01/01/2000,01:10:34.70,21.23,-58.07,-992.10,192.50,-726.25,-297.50,1,94.350,
01/01/2000,01:10:34.71,21.35,-58.07,-992.10,131.25,-770.0,-358.75,1,94.233,
01/01/2000,01:10:34.72,21.35,-58.07,-992.10,157.50,-612.50,-393.75,1,94.241,
01/01/2000,01:10:34.73,21.47,-57.95,-992.10,35.0,-708.75,-315.0,1,94.248,
01/01/2000,01:10:34.74,21.47,-58.07,-992.10,131.25,-883.75,-376.25,1,94.256,
01/01/2000,01:10:34.75,21.35,-58.07,-992.23,175.0,-630.0,-367.50,1,94.263,
01/01/2000,01:10:34.76,21.47,-58.19,-992.23,148.75,-883.75,-367.50,1,94.271,
01/01/2000,01:10:34.78,21.23,-58.07,-992.47,183.75,-691.25,-271.25,1,94.278,
01/01/2000,01:10:34.79,21.23,-58.07,-992.35,210.0,-603.75,-297.50,1,94.163,
01/01/2000,01:10:34.80,21.11,-58.19,-992.23,105.0,-682.50,-393.75,1,94.171,
01/01/2000,01:10:34.81,21.11,-58.32,-992.10,96.25,-665.0,-280.0,1,94.179,
01/01/2000,01:10:34.82,21.23,-58.19,-992.10,227.50,-665.0,-385.0,1,94.186,
01/01/2000,01:10:34.83,21.23,-58.19,-992.10,148.75,-717.50,-411.25,1,94.194,
01/01/2000,01:10:34.84,21.23,-57.95,-992.23,288.75,-735.0,-262.50,1,94.201,
01/01/2000,01:10:34.85,21.47,-58.07,-992.23,35.0,-735.0,-367.50,1,94.208,
01/01/2000,01:10:34.86,21.47,-58.07,-992.23,280.0,-665.0,-288.75,1,94.216,
01/01/2000,01:10:34.87,21.47,-58.32,-992.10,192.50,-717.50,-376.25,1,94.223,
01/01/2000,01:10:34.89,21.47,-58.19,-991.98,166.25,-656.25,-306.25,1,94.231,
01/01/2000,01:10:34.90,21.23,-58.07,-991.98,183.75,-638.75,-393.75,1,94.238,
01/01/2000,01:10:34.91,21.35,-58.07,-992.10,201.25,-717.50,-437.50,1,94.246,
01/01/2000,01:10:34.92,21.23,-57.95,-991.98,166.25,-673.75,-350.0,1,94.253,
01/01/2000,01:10:34.93,21.23,-58.07,-991.98,131.25,-586.25,-402.50,1,94.260,
01/01/2000,01:10:34.94,21.35,-57.83,-991.86,140.0,-708.75,-402.50,1,94.268,
01/01/2000,01:10:34.95,21.47,-58.07,-991.98,140.0,-717.50,-385.0,1,94.275,
01/01/2000,01:10:34.96,21.35,-57.83,-991.98,245.0,-778.75,-350.0,1,94.282,
01/01/2000,01:10:34.97,21.35,-58.07,-992.10,227.50,-603.75,-332.50,1,94.289,
01/01/2000,01:10:34.98,21.35,-58.07,-991.98,323.75,-638.75,-297.50,1,94.297,
01/01/2000,01:10:34.99,21.23,-58.07,-992.23,131.25,-621.25,-297.50,1,94.304,
01/01/2000,01:10:35.00,21.23,-58.07,-992.35,52.50,-673.75,-332.50,1,94.192,
01/01/2000,01:10:35.01,21.35,-58.19,-992.35,210.0,-691.25,-306.25,1,94.199,
01/01/2000,01:10:35.02,21.35,-58.07,-992.23,140.0,-752.50,-280.0,1,94.207,
01/01/2000,01:10:35.03,21.23,-58.44,-992.10,271.25,-761.25,-393.75,1,94.214,
01/01/2000,01:10:35.04,21.23,-58.68,-991.98,175.0,-717.50,-385.0,1,94.221,
01/01/2000,01:10:35.05,21.23,-58.32,-992.10,78.75,-778.75,-288.75,1,94.228,
01/01/2000,01:10:35.06,21.23,-58.19,-992.10,166.25,-778.75,-376.25,1,94.236,
01/01/2000,01:10:35.08,20.98,-58.32,-992.10,148.75,-743.75,-306.25,1,94.243,
01/01/2000,01:10:35.09,20.98,-58.07,-992.23,70.0,-603.75,-183.75,1,94.250,
01/01/2000,01:10:35.10,20.98,-58.19,-992.23,166.25,-603.75,-420.0,1,94.257,
01/01/2000,01:10:35.11,21.11,-58.07,-992.23,148.75,-542.50,-341.25,1,94.264,
01/01/2000,01:10:35.12,21.11,-58.07,-992.23,227.50,-700.0,-358.75,1,94.271,
01/01/2000,01:10:35.13,20.98,-58.07,-992.23,122.50,-673.75,-332.50,1,94.279,
01/01/2000,01:10:35.14,21.11,-58.19,-992.10,157.50,-630.0,-332.50,1,94.169,
01/01/2000,01:10:35.15,20.98,-58.19,-992.10,236.25,-656.25,-280.0,1,94.293,
01/01/2000,01:10:35.16,21.11,-57.95,-992.10,43.75,-708.75,-323.75,1,94.183,
01/01/2000,01:10:35.17,21.23,-58.07,-992.10,262.50,-691.25,-358.75,1,94.190,
01/01/2000,01:10:35.18,21.23,-58.07,-992.10,271.25,-665.0,-350.0,1,94.198,
01/01/2000,01:10:35.19,21.23,-58.19,-991.98,192.50,-743.75,-332.50,1,94.205,
01/01/2000,01:10:35.20,21.23,-58.19,-992.10,236.25,-673.75,-332.50,1,94.212,
01/01/2000,01:10:35.22,21.23,-58.19,-991.86,306.25,-691.25,-411.25,1,94.219,
01/01/2000,01:10:35.23,21.11,-58.07,-991.98,192.50,-551.25,-253.75,1,94.226,
01/01/2000,01:10:35.24,21.11,-58.07,-992.10,166.25,-708.75,-280.0,1,94.233,
01/01/2000,01:10:35.25,20.98,-58.07,-992.10,157.50,-752.50,-358.75,1,94.240,
01/01/2000,01:10:35.26,20.98,-58.07,-992.10,218.75,-647.50,-332.50,1,94.247,
01/01/2000,01:10:35.27,21.35,-58.07,-992.10,70.0,-656.25,-306.25,1,94.254,
01/01/2000,01:10:35.28,21.23,-58.07,-992.10,78.75,-708.75,-288.75,1,94.146,
01/01/2000,01:10:35.30,21.23,-58.07,-992.10,280.0,-700.0,-323.75,1,94.153,
01/01/2000,01:10:35.31,21.23,-58.07,-992.35,61.25,-638.75,-350.0,1,94.161,
01/01/2000,01:10:35.32,20.98,-58.19,-992.23,96.25,-656.25,-280.0,1,94.168,
01/01/2000,01:10:35.33,20.98,-58.19,-992.23,262.50,-787.50,-402.50,1,94.175,
01/01/2000,01:10:35.34,20.98,-58.19,-992.23,210.0,-621.25,-428.75,1,94.182,
01/01/2000,01:10:35.35,21.11,-58.07,-992.10,253.75,-717.50,-253.75,1,94.189,
01/01/2000,01:10:35.36,21.23,-58.07,-992.23,140.0,-700.0,-315.0,1,94.196,
01/01/2000,01:10:35.37,21.23,-58.07,-992.23,183.75,-717.50,-236.25,1,94.203,
01/01/2000,01:10:35.38,21.23,-58.07,-992.23,113.75,-673.75,-420.0,1,94.210,
01/01/2000,01:10:35.39,21.35,-58.07,-992.10,140.0,-752.50,-385.0,1,94.217,
01/01/2000,01:10:35.40,21.47,-58.07,-992.23,192.50,-796.25,-280.0,1,94.224,
01/01/2000,01:10:35.41,21.47,-58.07,-992.23,105.0,-691.25,-280.0,1,94.231,
01/01/2000,01:10:35.42,21.35,-58.07,-992.23,253.75,-682.50,-323.75,1,94.238,
01/01/2000,01:10:35.43,21.23,-58.07,-992.23,122.50,-717.50,-315.0,1,94.245,
01/01/2000,01:10:35.44,21.35,-58.19,-992.10,183.75,-533.75,-323.75,1,94.251,
01/01/2000,01:10:35.45,21.35,-58.19,-992.10,315.0,-822.50,-297.50,1,94.258,
01/01/2000,01:10:35.46,21.47,-58.07,-991.98,113.75,-726.25,-288.75,1,94.265,
01/01/2000,01:10:35.47,21.23,-58.07,-991.86,131.25,-735.0,-332.50,1,94.272,
01/01/2000,01:10:35.48,21.23,-58.19,-991.98,113.75,-656.25,-332.50,1,94.279,
01/01/2000,01:10:35.49,21.23,-58.07,-991.98,175.0,-665.0,-323.75,1,94.174,
01/01/2000,01:10:35.50,21.35,-58.19,-992.10,271.25,-708.75,-367.50,1,94.181,
01/01/2000,01:10:35.51,21.47,-57.83,-991.98,227.50,-726.25,-236.25,1,94.187,
01/01/2000,01:10:35.52,21.35,-58.07,-991.74,253.75,-647.50,-411.25,1,94.194,
01/01/2000,01:10:35.53,21.23,-57.95,-991.74,192.50,-577.50,-218.75,1,94.201,
01/01/2000,01:10:35.54,21.35,-58.19,-991.74,183.75,-822.50,-367.50,1,94.208,
01/01/2000,01:10:35.55,21.35,-58.07,-991.86,52.50,-665.0,-271.25,1,94.215,
01/01/2000,01:10:35.57,21.23,-58.07,-991.98,105.0,-673.75,-280.0,1,94.222,
01/01/2000,01:10:35.58,21.23,-58.19,-991.98,105.0,-682.50,-271.25,1,94.229,
01/01/2000,01:10:35.59,21.35,-58.19,-991.74,236.25,-516.25,-446.25,1,94.235,
01/01/2000,01:10:35.60,21.47,-58.19,-991.86,96.25,-708.75,-262.50,1,94.242,
01/01/2000,01:10:35.61,21.47,-58.07,-992.10,175.0,-726.25,-271.25,1,94.249,
01/01/2000,01:10:35.62,21.47,-58.07,-991.98,210.0,-612.50,-306.25,1,94.256,
01/01/2000,01:10:35.63,21.47,-58.07,-991.86,332.50,-700.0,-297.50,1,94.262,
01/01/2000,01:10:35.64,21.47,-58.07,-991.74,122.50,-717.50,-437.50,1,94.159,
01/01/2000,01:10:35.65,21.59,-58.07,-991.86,122.50,-726.25,-280.0,1,94.276,
01/01/2000,01:10:35.66,21.47,-58.19,-991.98,148.75,-726.25,-367.50,1,94.172,
01/01/2000,01:10:35.67,21.47,-58.19,-991.98,175.0,-717.50,-393.75,1,94.179,
01/01/2000,01:10:35.68,21.23,-58.07,-991.98,113.75,-656.25,-297.50,1,94.186,
01/01/2000,01:10:35.69,21.35,-58.07,-991.86,96.25,-665.0,-323.75,1,94.193,
01/01/2000,01:10:35.71,21.23,-57.95,-991.98,87.50,-691.25,-236.25,1,94.200,
01/01/2000,01:10:35.72,21.23,-58.32,-991.86,297.50,-682.50,-315.0,1,94.206,
01/01/2000,01:10:35.73,21.23,-58.32,-991.74,236.25,-682.50,-341.25,1,94.213,
01/01/2000,01:10:35.74,21.23,-58.32,-991.62,87.50,-682.50,-306.25,1,94.220,
01/01/2000,01:10:35.75,21.23,-58.19,-991.62,52.50,-787.50,-420.0,1,94.226,
01/01/2000,01:10:35.76,21.23,-58.19,-991.74,96.25,-603.75,-227.50,1,94.233,
01/01/2000,01:10:35.77,21.23,-58.19,-991.86,262.50,-726.25,-297.50,1,94.240,
01/01/2000,01:10:35.78,21.23,-58.44,-991.86,148.75,-735.0,-271.25,1,94.246,
01/01/2000,01:10:35.79,21.47,-58.32,-991.86,140.0,-700.0,-323.75,1,94.145,
01/01/2000,01:10:35.81,21.35,-58.32,-991.74,166.25,-665.0,-393.75,1,94.151,
01/01/2000,01:10:35.82,21.23,-58.19,-991.86,87.50,-691.25,-341.25,1,94.158,
01/01/2000,01:10:35.83,21.35,-58.19,-991.86,175.0,-778.75,-323.75,1,94.165,
01/01/2000,01:10:35.84,21.23,-58.32,-992.10,236.25,-621.25,-227.50,1,94.171,
01/01/2000,01:10:35.85,21.23,-58.19,-992.10,148.75,-603.75,-446.25,1,94.178,
01/01/2000,01:10:35.86,21.35,-58.32,-991.98,245.0,-647.50,-420.0,1,94.185,
01/01/2000,01:10:35.87,21.35,-58.19,-991.86,183.75,-761.25,-402.50,1,94.191,
01/01/2000,01:10:35.88,21.35,-58.07,-991.86,96.25,-743.75,-262.50,1,94.198,
01/01/2000,01:10:35.89,21.23,-58.19,-992.10,253.75,-691.25,-350.0,1,94.205,
01/01/2000,01:10:35.90,20.98,-57.83,-992.23,157.50,-603.75,-253.75,1,94.211,
01/01/2000,01:10:35.91,21.11,-57.58,-992.10,166.25,-708.75,-61.25,1,94.218,
01/01/2000,01:10:35.92,21.11,-56.49,-991.86,113.75,-682.50,542.50,1,94.224,
01/01/2000,01:10:35.93,20.98,-55.14,-991.86,-113.75,-761.25,1076.25,1,94.231,
01/01/2000,01:10:35.94,20.86,-53.92,-992.10,288.75,-673.75,1837.50,1,94.237,
01/01/2000,01:10:35.95,20.86,-53.92,-992.23,70.0,-560.0,3298.75,1,94.244,
01/01/2000,01:10:35.96,20.50,-54.66,-992.23,8.75,-533.75,4208.75,1,94.250,
01/01/2000,01:10:35.97,20.74,-57.58,-992.23,201.25,-437.50,4987.50,1,94.257,
01/01/2000,01:10:35.98,21.23,-58.68,-991.86,-52.50,-577.50,5223.75,1,94.263,
01/01/2000,01:10:35.99,21.59,-57.95,-991.62,-236.25,-743.75,5171.25,1,94.270,
01/01/2000,01:10:36.00,21.47,-55.75,-991.62,271.25,-551.25,5740.0,1,94.276,
01/01/2000,01:10:36.01,20.62,-53.80,-992.10,-8.75,-551.25,6781.25,1,94.283,
01/01/2000,01:10:36.02,20.25,-53.19,-992.59,218.75,-280.0,8881.25,1,94.289,
01/01/2000,01:10:36.03,20.25,-52.70,-992.96,-35.0,-236.25,12066.25,1,94.295,
01/01/2000,01:10:36.04,20.74,-53.56,-992.59,52.50,-262.50,13282.50,1,94.302,
01/01/2000,01:10:36.05,21.72,-55.75,-991.62,-52.50,-428.75,13895.0,1,94.203,
01/01/2000,01:10:36.06,21.59,-56.97,-991.37,131.25,-253.75,13422.50,1,94.209,
01/01/2000,01:10:36.08,21.35,-57.83,-991.74,-8.75,-358.75,12258.75,1,94.216,
01/01/2000,01:10:36.08,21.11,-57.58,-992.35,61.25,-446.25,10605.0,1,94.222,
01/01/2000,01:10:36.10,21.23,-56.61,-992.71,52.50,-542.50,8522.50,1,94.229,
01/01/2000,01:10:36.11,21.23,-54.90,-992.23,-43.75,-516.25,8522.50,1,94.235,
01/01/2000,01:10:36.12,21.11,-54.41,-991.86,96.25,-420.0,9843.75,1,94.241,
01/01/2000,01:10:36.13,20.98,-55.02,-991.86,-35.0,-271.25,13186.25,1,94.248,
01/01/2000,01:10:36.14,21.11,-55.88,-992.35,-113.75,-218.75,15190.0,1,94.254,
01/01/2000,01:10:36.15,21.23,-56.85,-992.47,-17.50,-52.50,16668.75,1,94.260,
01/01/2000,01:10:36.16,21.11,-58.32,-992.10,-78.75,-122.50,16572.50,1,94.267,
01/01/2000,01:10:36.17,21.23,-59.54,-991.74,-43.75,-210.0,15627.50,1,94.273,
01/01/2000,01:10:36.18,21.23,-60.39,-991.74,96.25,-271.25,13956.25,1,94.279,
01/01/2000,01:10:36.19,21.23,-60.76,-991.86,35.0,-341.25,10027.50,1,94.286,
01/01/2000,01:10:36.20,21.23,-60.02,-992.23,52.50,-472.50,7210.0,1,94.189,
01/01/2000,01:10:36.21,21.11,-59.54,-992.35,183.75,-446.25,6851.25,1,94.195,
01/01/2000,01:10:36.22,20.86,-58.56,-992.35,0.0,-306.25,7883.75,1,94.201,
01/01/2000,01:10:36.23,20.98,-58.07,-992.35,70.0,-367.50,9432.50,1,94.208,
01/01/2000,01:10:36.24,21.23,-58.32,-992.35,52.50,-332.50,10368.75,1,94.214,
01/01/2000,01:10:36.25,21.23,-59.17,-992.23,87.50,-472.50,8776.25,1,94.220,
01/01/2000,01:10:36.27,21.23,-61.49,-992.23,43.75,-586.25,5600.0,1,94.227,
01/01/2000,01:10:36.28,21.11,-63.44,-991.98,78.75,-516.25,3430.0,1,94.233,
01/01/2000,01:10:36.29,21.23,-64.17,-991.86,140.0,-630.0,1951.25,1,94.239,
01/01/2000,01:10:36.30,21.47,-61.85,-992.10,-43.75,-752.50,831.25,1,94.143,
01/01/2000,01:10:36.32,21.47,-59.90,-992.10,271.25,-630.0,1610.0,1,94.150,
01/01/2000,01:10:36.33,20.98,-58.32,-992.23,140.0,-551.25,3281.25,1,94.156,
01/01/2000,01:10:36.34,20.62,-58.44,-992.71,157.50,-481.25,4156.25,1,94.162,
01/01/2000,01:10:36.35,20.74,-59.54,-992.84,192.50,-463.75,4340.0,1,94.168,
01/01/2000,01:10:36.36,20.98,-61.0,-992.59,148.75,-560.0,3167.50,1,94.175,
01/01/2000,01:10:36.37,21.35,-61.85,-991.86,-17.50,-691.25,1706.25,1,94.181,
01/01/2000,01:10:36.38,21.47,-61.85,-991.62,245.0,-726.25,665.0,1,94.187,
01/01/2000,01:10:36.39,21.11,-61.0,-991.98,61.25,-726.25,166.25,1,94.194,
01/01/2000,01:10:36.40,20.86,-60.27,-992.47,17.50,-708.75,166.25,1,94.200,
01/01/2000,01:10:36.41,20.74,-59.66,-992.59,122.50,-647.50,577.50,1,94.206,
01/01/2000,01:10:36.42,20.74,-59.54,-992.59,122.50,-700.0,665.0,1,94.212,
01/01/2000,01:10:36.43,20.98,-59.78,-992.10,113.75,-603.75,577.50,1,94.218,
01/01/2000,01:10:36.44,21.11,-60.02,-991.86,218.75,-752.50,61.25,1,94.225,
01/01/2000,01:10:36.45,20.98,-60.15,-992.10,140.0,-778.75,87.50,1,94.231,
01/01/2000,01:10:36.46,20.98,-59.66,-992.59,210.0,-691.25,-148.75,1,94.237,
01/01/2000,01:10:36.47,20.98,-59.29,-992.71,157.50,-665.0,-78.75,1,94.243,
01/01/2000,01:10:36.48,20.98,-58.56,-992.59,148.75,-673.75,-183.75,1,94.149,
01/01/2000,01:10:36.49,20.98,-58.56,-992.35,218.75,-621.25,35.0,1,94.155,
01/01/2000,01:10:36.50,21.23,-58.80,-992.10,183.75,-735.0,-35.0,1,94.161,
01/01/2000,01:10:36.51,21.23,-59.54,-992.23,140.0,-726.25,-113.75,1,94.168,
01/01/2000,01:10:36.52,21.11,-59.41,-992.35,218.75,-665.0,-113.75,1,94.174,
01/01/2000,01:10:36.53,21.11,-59.05,-992.47,218.75,-665.0,-306.25,1,94.180,
01/01/2000,01:10:36.54,20.98,-58.56,-992.35,192.50,-752.50,-236.25,1,94.186,
01/01/2000,01:10:36.56,20.98,-58.19,-992.35,35.0,-673.75,-166.25,1,94.192,
01/01/2000,01:10:36.57,21.11,-58.68,-992.35,227.50,-682.50,-297.50,1,94.198,
01/01/2000,01:10:36.58,21.11,-58.80,-992.35,35.0,-708.75,-175.0,1,94.204,
01/01/2000,01:10:36.59,21.23,-58.80,-992.23,183.75,-708.75,-341.25,1,94.211,
01/01/2000,01:10:36.60,21.23,-58.56,-992.23,113.75,-717.50,-332.50,1,94.217,
01/01/2000,01:10:36.61,21.23,-58.32,-992.23,227.50,-621.25,-218.75,1,94.223,
01/01/2000,01:10:36.62,21.11,-58.07,-992.35,131.25,-560.0,-236.25,1,94.229,
01/01/2000,01:10:36.63,21.23,-58.07,-992.35,87.50,-752.50,-306.25,1,94.235,
01/01/2000,01:10:36.64,21.23,-58.56,-992.35,210.0,-665.0,-245.0,1,94.241,
01/01/2000,01:10:36.65,21.23,-58.68,-992.35,96.25,-682.50,-420.0,1,94.247,
01/01/2000,01:10:36.66,21.23,-58.68,-992.23,210.0,-673.75,-306.25,1,94.154,
01/01/2000,01:10:36.67,21.35,-58.19,-992.10,96.25,-708.75,-332.50,1,94.259,
01/01/2000,01:10:36.68,21.23,-58.19,-992.10,166.25,-735.0,-288.75,1,94.167,
01/01/2000,01:10:36.70,21.11,-58.19,-992.23,253.75,-647.50,-376.25,1,94.173,
01/01/2000,01:10:36.71,21.11,-58.32,-992.35,350.0,-752.50,-472.50,1,94.179,
01/01/2000,01:10:36.72,21.47,-58.32,-992.23,201.25,-682.50,-437.50,1,94.185,
01/01/2000,01:10:36.73,21.35,-58.44,-991.98,218.75,-796.25,-262.50,1,94.191,
01/01/2000,01:10:36.74,20.98,-58.32,-991.98,96.25,-752.50,-411.25,1,94.197,
01/01/2000,01:10:36.75,20.98,-58.44,-992.35,183.75,-638.75,-420.0,1,94.203,
01/01/2000,01:10:36.76,20.98,-58.07,-992.59,210.0,-656.25,-323.75,1,94.209,
01/01/2000,01:10:36.77,20.98,-58.19,-992.59,183.75,-735.0,-420.0,1,94.215,
01/01/2000,01:10:36.78,20.98,-58.32,-992.35,166.25,-805.0,-236.25,1,94.221,
01/01/2000,01:10:36.79,21.11,-58.44,-992.23,113.75,-586.25,-376.25,1,94.227,
01/01/2000,01:10:36.80,21.23,-58.56,-992.35,140.0,-612.50,-341.25,1,94.233,
01/01/2000,01:10:36.81,21.23,-58.32,-992.47,253.75,-708.75,-455.0,1,94.142,
01/01/2000,01:10:36.83,21.11,-58.07,-992.35,131.25,-656.25,-148.75,1,94.148,
01/01/2000,01:10:36.84,21.11,-57.95,-992.35,78.75,-735.0,-481.25,1,94.154,
01/01/2000,01:10:36.85,21.23,-58.19,-992.35,192.50,-796.25,-376.25,1,94.160,
01/01/2000,01:10:36.86,21.23,-58.32,-992.35,70.0,-743.75,-376.25,1,94.166,
01/01/2000,01:10:36.87,21.11,-58.44,-992.35,192.50,-761.25,-393.75,1,94.172,
01/01/2000,01:10:36.88,21.23,-58.32,-992.35,183.75,-866.25,-577.50,1,94.178,
01/01/2000,01:10:36.89,21.23,-58.19,-992.35,131.25,-813.75,-420.0,1,94.184,
01/01/2000,01:10:36.90,21.23,-58.07,-992.10,148.75,-560.0,-227.50,1,94.190,
01/01/2000,01:10:36.91,21.23,-58.07,-992.23,218.75,-700.0,-297.50,1,94.196,
01/01/2000,01:10:36.92,21.23,-58.07,-992.35,-35.0,-691.25,-306.25,1,94.201,
01/01/2000,01:10:36.93,21.35,-58.32,-992.23,297.50,-752.50,-385.0,1,94.207,
01/01/2000,01:10:36.94,21.23,-58.32,-992.35,175.0,-717.50,-288.75,1,94.213,
01/01/2000,01:10:36.95,21.11,-58.07,-992.23,87.50,-621.25,-227.50,1,94.219,
01/01/2000,01:10:36.96,21.23,-58.19,-992.35,253.75,-665.0,-455.0,1,94.225,
01/01/2000,01:10:36.97,21.23,-58.19,-992.47,61.25,-708.75,-367.50,1,94.231,
01/01/2000,01:10:36.98,21.11,-58.32,-992.59,297.50,-717.50,-367.50,1,94.237,
01/01/2000,01:10:36.99,20.98,-58.56,-992.47,210.0,-691.25,-227.50,1,94.242,
01/01/2000,01:10:37.00,20.98,-58.32,-992.35,192.50,-498.75,-490.0,1,94.248,
01/01/2000,01:10:37.01,21.11,-58.44,-992.23,166.25,-726.25,-245.0,1,94.254,
01/01/2000,01:10:37.02,21.23,-58.32,-992.23,87.50,-813.75,-393.75,1,94.260,
01/01/2000,01:10:37.03,21.23,-58.44,-992.35,227.50,-726.25,-332.50,1,94.266,
01/01/2000,01:10:37.04,21.11,-58.19,-992.35,61.25,-560.0,-332.50,1,94.177,
01/01/2000,01:10:37.05,21.11,-58.32,-992.23,148.75,-656.25,-455.0,1,94.183,
01/01/2000,01:10:37.06,21.11,-58.07,-992.35,166.25,-743.75,-446.25,1,94.188,
01/01/2000,01:10:37.07,21.47,-58.19,-992.10,87.50,-770.0,-297.50,1,94.194,
01/01/2000,01:10:37.08,21.23,-58.44,-992.35,175.0,-638.75,-306.25,1,94.200,
01/01/2000,01:10:37.09,21.11,-58.56,-992.23,166.25,-717.50,-411.25,1,94.206,
01/01/2000,01:10:37.10,20.98,-58.32,-992.23,166.25,-656.25,-297.50,1,94.212,
01/01/2000,01:10:37.12,21.11,-58.19,-992.10,105.0,-638.75,-367.50,1,94.217,
01/01/2000,01:10:37.13,20.98,-58.32,-992.35,52.50,-682.50,0.0,1,94.223,
01/01/2000,01:10:37.14,20.98,-58.32,-992.10,140.0,-621.25,-472.50,1,94.229,
01/01/2000,01:10:37.15,21.96,-58.32,-991.86,96.25,-717.50,-420.0,1,94.235,
01/01/2000,01:10:37.16,21.72,-58.80,-991.74,253.75,-691.25,-140.0,1,94.240,
01/01/2000,01:10:37.17,20.98,-58.80,-992.10,192.50,-682.50,-245.0,1,94.246,
01/01/2000,01:10:37.18,20.62,-58.93,-992.59,227.50,-638.75,-621.25,1,94.252,
01/01/2000,01:10:37.19,21.59,-58.07,-992.35,253.75,-630.0,-376.25,1,94.164,
01/01/2000,01:10:37.20,21.47,-58.07,-992.10,113.75,-840.0,105.0,1,94.170,
01/01/2000,01:10:37.21,21.11,-58.44,-992.10,8.75,-682.50,-8.75,1,94.176,
01/01/2000,01:10:37.22,21.11,-58.93,-991.98,148.75,-717.50,-577.50,1,94.181,
01/01/2000,01:10:37.23,21.23,-58.93,-992.10,96.25,-708.75,-350.0,1,94.187,
01/01/2000,01:10:37.24,21.11,-58.32,-992.35,122.50,-638.75,-280.0,1,94.193,
01/01/2000,01:10:37.25,20.98,-58.19,-992.23,210.0,-691.25,-367.50,1,94.199,
01/01/2000,01:10:37.27,21.11,-58.07,-991.98,183.75,-691.25,-87.50,1,94.204,
01/01/2000,01:10:37.28,20.98,-58.56,-991.98,157.50,-761.25,-358.75,1,94.210,
01/01/2000,01:10:37.29,20.86,-58.80,-991.86,280.0,-726.25,-455.0,1,94.216,
01/01/2000,01:10:37.30,21.11,-59.05,-991.98,192.50,-638.75,-350.0,1,94.221,
01/01/2000,01:10:37.31,21.23,-58.56,-991.86,113.75,-708.75,-367.50,1,94.227,
01/01/2000,01:10:37.32,20.98,-58.32,-991.62,288.75,-770.0,-332.50,1,94.233,
01/01/2000,01:10:37.33,21.11,-58.56,-991.86,148.75,-621.25,-288.75,1,94.146,
01/01/2000,01:10:37.34,21.23,-58.68,-991.98,122.50,-673.75,-271.25,1,94.152,
01/01/2000,01:10:37.35,21.23,-58.80,-992.23,192.50,-630.0,-446.25,1,94.158,
01/01/2000,01:10:37.36,21.47,-58.80,-992.10,236.25,-665.0,-306.25,1,94.163,
01/01/2000,01:10:37.37,21.47,-58.56,-991.74,122.50,-735.0,-376.25,1,94.169,
01/01/2000,01:10:37.38,21.23,-58.44,-991.86,201.25,-691.25,-297.50,1,94.175,
01/01/2000,01:10:37.39,21.23,-58.44,-992.23,201.25,-752.50,-280.0,1,94.180,
01/01/2000,01:10:37.41,21.23,-58.44,-992.35,166.25,-735.0,-367.50,1,94.186,
01/01/2000,01:10:37.42,21.23,-58.56,-992.23,341.25,-621.25,-253.75,1,94.192,
01/01/2000,01:10:37.43,21.11,-58.56,-991.98,201.25,-770.0,-393.75,1,94.197,
01/01/2000,01:10:37.44,21.11,-58.44,-991.86,297.50,-840.0,-227.50,1,94.203,
01/01/2000,01:10:37.45,21.23,-58.32,-991.98,96.25,-717.50,-385.0,1,94.208,
01/01/2000,01:10:37.46,21.23,-58.32,-992.35,140.0,-743.75,-280.0,1,94.214,
01/01/2000,01:10:37.47,21.11,-58.44,-992.35,87.50,-761.25,-367.50,1,94.220,
01/01/2000,01:10:37.48,21.23,-58.32,-991.86,201.25,-551.25,-420.0,1,94.225,
01/01/2000,01:10:37.49,21.35,-58.32,-991.86,61.25,-708.75,-323.75,1,94.231,
01/01/2000,01:10:37.50,21.23,-58.44,-991.86,236.25,-700.0,-245.0,1,94.236,
01/01/2000,01:10:37.51,21.23,-58.44,-992.10,210.0,-743.75,-280.0,1,94.242,
01/01/2000,01:10:37.52,21.23,-58.44,-992.23,61.25,-735.0,-358.75,1,94.247,
01/01/2000,01:10:37.53,20.98,-58.56,-992.10,52.50,-673.75,-262.50,1,94.253,
01/01/2000,01:10:37.54,20.98,-58.44,-991.98,61.25,-638.75,-192.50,1,94.168,
01/01/2000,01:10:37.55,21.11,-58.56,-991.86,210.0,-682.50,-253.75,1,94.174,
01/01/2000,01:10:37.56,21.11,-58.56,-991.86,227.50,-708.75,-271.25,1,94.179,
01/01/2000,01:10:37.57,20.98,-58.68,-992.35,105.0,-560.0,-306.25,1,94.185,
01/01/2000,01:10:37.58,20.98,-58.56,-992.35,183.75,-700.0,-393.75,1,94.190,
01/01/2000,01:10:37.59,21.11,-58.44,-992.35,113.75,-822.50,-367.50,1,94.196,
01/01/2000,01:10:37.60,20.98,-58.44,-992.10,245.0,-752.50,-341.25,1,94.202,
01/01/2000,01:10:37.62,21.23,-58.56,-992.23,341.25,-735.0,-402.50,1,94.207,
01/01/2000,01:10:37.63,21.35,-58.32,-992.10,70.0,-735.0,-358.75,1,94.213,
01/01/2000,01:10:37.64,21.23,-58.32,-992.10,253.75,-752.50,-341.25,1,94.218,
01/01/2000,01:10:37.65,20.98,-58.32,-992.23,26.25,-630.0,-376.25,1,94.223,
01/01/2000,01:10:37.66,20.98,-58.44,-992.23,122.50,-542.50,-367.50,1,94.229,
01/01/2000,01:10:37.67,21.11,-58.32,-992.10,140.0,-673.75,-262.50,1,94.234,
01/01/2000,01:10:37.68,21.35,-58.32,-991.98,166.25,-656.25,-315.0,1,94.151,
01/01/2000,01:10:37.69,21.23,-58.32,-992.23,148.75,-840.0,-367.50,1,94.156,
01/01/2000,01:10:37.70,21.23,-58.56,-992.10,271.25,-665.0,-367.50,1,94.162,
01/01/2000,01:10:37.71,21.23,-58.56,-992.10,280.0,-735.0,-376.25,1,94.167,
01/01/2000,01:10:37.72,21.23,-58.07,-992.35,140.0,-673.75,-262.50,1,94.173,
01/01/2000,01:10:37.73,21.47,-58.32,-992.23,96.25,-691.25,-306.25,1,94.178,
01/01/2000,01:10:37.74,21.35,-58.32,-992.35,183.75,-682.50,-367.50,1,94.184,
01/01/2000,01:10:37.76,21.35,-58.56,-992.23,113.75,-603.75,-332.50,1,94.189,
01/01/2000,01:10:37.77,21.47,-58.56,-992.35,140.0,-717.50,-446.25,1,94.195,
01/01/2000,01:10:37.78,21.23,-58.56,-992.35,166.25,-603.75,-341.25,1,94.200,
01/01/2000,01:10:37.79,21.35,-58.44,-992.35,78.75,-708.75,-385.0,1,94.206,
01/01/2000,01:10:37.80,21.47,-58.19,-992.10,52.50,-656.25,-288.75,1,94.211,
01/01/2000,01:10:37.81,21.47,-58.32,-991.86,105.0,-682.50,-253.75,1,94.216,
01/01/2000,01:10:37.82,21.35,-58.32,-991.98,78.75,-761.25,-367.50,1,94.222,
01/01/2000,01:10:37.84,21.35,-58.32,-992.10,166.25,-708.75,-393.75,1,94.140,
01/01/2000,01:10:37.85,21.47,-58.19,-992.10,140.0,-805.0,-262.50,1,94.145,
01/01/2000,01:10:37.86,21.35,-58.19,-992.10,113.75,-621.25,-253.75,1,94.150,
01/01/2000,01:10:37.87,21.23,-58.19,-992.10,253.75,-796.25,-385.0,1,94.156,
01/01/2000,01:10:37.88,21.35,-58.07,-992.23,183.75,-691.25,-376.25,1,94.161,
01/01/2000,01:10:37.89,21.47,-58.07,-992.10,105.0,-752.50,-332.50,1,94.167,
01/01/2000,01:10:37.90,21.35,-58.07,-992.10,175.0,-787.50,-306.25,1,94.172,
01/01/2000,01:10:37.91,21.35,-58.19,-991.86,175.0,-630.0,-306.25,1,94.177,
01/01/2000,01:10:37.92,21.47,-58.07,-991.74,253.75,-700.0,-245.0,1,94.183,
01/01/2000,01:10:37.93,21.23,-58.32,-991.86,227.50,-717.50,-358.75,1,94.188,
01/01/2000,01:10:37.94,21.23,-58.32,-991.98,8.75,-717.50,-367.50,1,94.194,
01/01/2000,01:10:37.95,21.11,-58.32,-991.98,262.50,-673.75,-402.50,1,94.199,
01/01/2000,01:10:37.96,21.23,-58.32,-991.86,157.50,-577.50,-376.25,1,94.204,
01/01/2000,01:10:37.97,21.11,-58.32,-991.98,183.75,-621.25,-411.25,1,94.210,
01/01/2000,01:10:37.98,21.11,-58.56,-992.10,227.50,-761.25,-306.25,1,94.215,
01/01/2000,01:10:37.99,21.23,-58.32,-992.23,183.75,-673.75,-376.25,1,94.220,
01/01/2000,01:10:38.00,21.47,-58.56,-992.23,271.25,-673.75,-332.50,1,94.225,
01/01/2000,01:10:38.01,21.23,-58.44,-991.86,166.25,-743.75,-367.50,1,94.231,
01/01/2000,01:10:38.02,21.23,-58.44,-991.86,105.0,-717.50,-420.0,1,94.236,
01/01/2000,01:10:38.03,21.23,-58.56,-991.86,140.0,-656.25,-341.25,1,94.241,
01/01/2000,01:10:38.04,21.47,-58.56,-992.35,157.50,-778.75,-332.50,1,94.161,
01/01/2000,01:10:38.05,21.23,-58.56,-992.35,35.0,-691.25,-376.25,1,94.166,
01/01/2000,01:10:38.06,21.11,-58.44,-992.10,105.0,-665.0,-315.0,1,94.171,
01/01/2000,01:10:38.07,21.23,-58.44,-991.86,78.75,-813.75,-323.75,1,94.177,
01/01/2000,01:10:38.08,21.11,-58.19,-991.98,70.0,-682.50,-323.75,1,94.182,
01/01/2000,01:10:38.09,21.11,-58.32,-992.10,245.0,-656.25,-271.25,1,94.187,
01/01/2000,01:10:38.11,21.11,-58.44,-992.23,218.75,-752.50,-376.25,1,94.192,
01/01/2000,01:10:38.12,21.23,-58.44,-992.10,131.25,-551.25,-323.75,1,94.198,
01/01/2000,01:10:38.13,21.11,-58.32,-991.98,236.25,-743.75,-367.50,1,94.203,
01/01/2000,01:10:38.14,21.23,-58.32,-991.98,166.25,-743.75,-358.75,1,94.208,
01/01/2000,01:10:38.15,21.23,-58.19,-992.10,78.75,-726.25,-297.50,1,94.213,
01/01/2000,01:10:38.16,21.47,-58.32,-992.35,35.0,-726.25,-323.75,1,94.219,
01/01/2000,01:10:38.17,21.35,-58.44,-992.10,122.50,-761.25,-411.25,1,94.224,
01/01/2000,01:10:38.18,21.35,-58.44,-991.86,61.25,-717.50,-306.25,1,94.144,
01/01/2000,01:10:38.19,21.23,-58.32,-991.86,227.50,-691.25,-271.25,1,94.149,
01/01/2000,01:10:38.20,21.23,-58.07,-991.86,262.50,-612.50,-367.50,1,94.155,
01/01/2000,01:10:38.21,21.23,-58.32,-991.98,26.25,-691.25,-402.50,1,94.160,
01/01/2000,01:10:38.22,21.11,-58.32,-991.98,35.0,-647.50,-288.75,1,94.165,
01/01/2000,01:10:38.23,21.11,-58.44,-991.98,140.0,-805.0,-385.0,1,94.170,
01/01/2000,01:10:38.24,21.11,-58.32,-991.86,70.0,-673.75,-437.50,1,94.176,
01/01/2000,01:10:38.26,21.23,-58.32,-992.10,201.25,-630.0,-393.75,1,94.181,
01/01/2000,01:10:38.27,21.23,-58.19,-992.23,17.50,-770.0,-385.0,1,94.186,
01/01/2000,01:10:38.28,21.23,-58.19,-992.35,105.0,-656.25,-297.50,1,94.191,
01/01/2000,01:10:38.29,21.23,-58.32,-992.23,236.25,-717.50,-341.25,1,94.196,
01/01/2000,01:10:38.30,21.23,-58.32,-991.98,113.75,-787.50,-306.25,1,94.202,
01/01/2000,01:10:38.31,21.23,-58.32,-992.10,113.75,-682.50,-385.0,1,94.207,
01/01/2000,01:10:38.32,21.47,-58.44,-992.10,218.75,-647.50,-376.25,1,94.212,
01/01/2000,01:10:38.33,21.23,-58.19,-992.10,210.0,-708.75,-262.50,1,94.217,
01/01/2000,01:10:38.35,20.98,-58.44,-991.86,218.75,-665.0,-306.25,1,94.139,
01/01/2000,01:10:38.36,21.23,-58.19,-992.10,43.75,-673.75,-393.75,1,94.060,
01/01/2000,01:10:38.37,20.98,-58.44,-992.10,183.75,-778.75,-323.75,1,94.066,
01/01/2000,01:10:38.38,21.11,-58.32,-992.10,122.50,-691.25,-385.0,1,94.071,
01/01/2000,01:10:38.39,21.23,-58.19,-992.10,166.25,-673.75,-306.25,1,94.076,
01/01/2000,01:10:38.40,21.23,-58.32,-991.98,148.75,-673.75,-315.0,1,94.081,
01/01/2000,01:10:38.41,21.23,-58.32,-992.10,148.75,-700.0,-402.50,1,94.086,
01/01/2000,01:10:38.42,21.23,-58.32,-992.10,192.50,-752.50,-315.0,1,94.092,
01/01/2000,01:10:38.44,21.23,-58.32,-992.10,131.25,-647.50,-376.25,1,94.097,
01/01/2000,01:10:38.44,21.35,-58.19,-992.10,131.25,-612.50,-402.50,1,94.102,
01/01/2000,01:10:38.46,21.35,-58.56,-992.10,288.75,-761.25,-315.0,1,94.107,
01/01/2000,01:10:38.47,21.35,-58.56,-992.10,-26.25,-708.75,-411.25,1,94.112,
01/01/2000,01:10:38.48,21.35,-58.56,-992.23,8.75,-621.25,-341.25,1,94.118,
01/01/2000,01:10:38.49,21.23,-58.44,-992.35,140.0,-708.75,-306.25,1,94.123,
01/01/2000,01:10:38.50,21.23,-58.19,-992.35,175.0,-577.50,-350.0,1,94.128,
01/01/2000,01:10:38.51,21.23,-58.07,-992.47,87.50,-586.25,-332.50,1,94.133,
01/01/2000,01:10:38.52,21.23,-58.07,-992.35,87.50,-822.50,-315.0,1,94.138,
01/01/2000,01:10:38.53,21.35,-58.44,-992.35,52.50,-595.0,-306.25,1,94.143,
01/01/2000,01:10:38.54,21.35,-58.68,-992.59,262.50,-647.50,-463.75,1,94.148,
01/01/2000,01:10:38.55,21.35,-58.56,-992.47,61.25,-647.50,-306.25,1,94.154,
01/01/2000,01:10:38.56,21.23,-58.44,-992.10,192.50,-805.0,-402.50,1,94.159,
01/01/2000,01:10:38.57,20.98,-57.95,-992.10,96.25,-630.0,-227.50,1,94.164,
01/01/2000,01:10:38.58,21.11,-58.19,-992.23,201.25,-752.50,-280.0,1,94.169,
01/01/2000,01:10:38.59,21.11,-58.19,-992.35,192.50,-717.50,-323.75,1,94.174,
01/01/2000,01:10:38.60,21.23,-58.44,-992.59,131.25,-778.75,-280.0,1,94.179,
01/01/2000,01:10:38.61,21.11,-58.56,-992.35,87.50,-708.75,-472.50,1,94.102,
01/01/2000,01:10:38.62,21.23,-58.44,-992.10,157.50,-647.50,-315.0,1,94.189,
01/01/2000,01:10:38.63,21.23,-58.32,-992.10,131.25,-743.75,-385.0,1,94.113,
01/01/2000,01:10:38.64,21.35,-58.19,-992.35,78.75,-630.0,-551.25,1,94.118,
01/01/2000,01:10:38.65,21.35,-58.07,-992.35,140.0,-656.25,-315.0,1,94.123,
01/01/2000,01:10:38.66,21.35,-58.07,-992.35,78.75,-665.0,-481.25,1,94.128,
01/01/2000,01:10:38.68,21.23,-58.07,-992.23,175.0,-700.0,-358.75,1,94.133,
01/01/2000,01:10:38.69,21.47,-58.07,-992.35,61.25,-647.50,-288.75,1,94.138,
01/01/2000,01:10:38.70,21.47,-58.19,-992.35,131.25,-717.50,-288.75,1,94.143,
01/01/2000,01:10:38.71,21.59,-58.19,-992.47,140.0,-656.25,-297.50,1,94.148,
01/01/2000,01:10:38.72,21.47,-58.19,-992.47,140.0,-647.50,-315.0,1,94.153,
01/01/2000,01:10:38.73,21.23,-58.19,-992.35,166.25,-682.50,-542.50,1,94.158,
01/01/2000,01:10:38.74,21.47,-58.32,-992.35,201.25,-673.75,-341.25,1,94.163,
01/01/2000,01:10:38.75,21.47,-58.07,-992.35,35.0,-726.25,-297.50,1,94.168,
01/01/2000,01:10:38.76,21.47,-58.32,-992.47,140.0,-665.0,-297.50,1,94.173,
01/01/2000,01:10:38.77,21.47,-58.32,-992.47,271.25,-665.0,-306.25,1,94.178,
01/01/2000,01:10:38.78,21.47,-58.44,-992.59,192.50,-673.75,-385.0,1,94.183,
01/01/2000,01:10:38.79,21.59,-58.32,-992.47,218.75,-848.75,-288.75,1,94.188,
01/01/2000,01:10:38.80,21.59,-58.19,-992.47,210.0,-796.25,-332.50,1,94.193,
01/01/2000,01:10:38.81,21.59,-58.07,-992.59,131.25,-630.0,-481.25,1,94.198,
01/01/2000,01:10:38.82,21.59,-58.19,-992.47,105.0,-717.50,-288.75,1,94.123,
01/01/2000,01:10:38.83,21.35,-58.32,-992.47,17.50,-691.25,-218.75,1,94.128,
01/01/2000,01:10:38.84,21.23,-58.44,-992.35,87.50,-665.0,-376.25,1,94.133,
01/01/2000,01:10:38.86,21.23,-58.07,-992.35,131.25,-700.0,-376.25,1,94.138,
01/01/2000,01:10:38.87,21.47,-57.95,-992.35,43.75,-708.75,-332.50,1,94.143,
01/01/2000,01:10:38.88,21.47,-58.32,-992.47,131.25,-778.75,-332.50,1,94.148,
01/01/2000,01:10:38.89,21.35,-58.44,-992.59,245.0,-647.50,-385.0,1,94.153,
01/01/2000,01:10:38.90,21.23,-58.44,-992.47,140.0,-708.75,-385.0,1,94.157,
01/01/2000,01:10:38.91,21.35,-58.32,-992.35,175.0,-691.25,-350.0,1,94.162,
01/01/2000,01:10:38.92,21.47,-58.19,-992.23,157.50,-708.75,-350.0,1,94.167,
01/01/2000,01:10:38.93,21.23,-58.19,-992.35,306.25,-656.25,-288.75,1,94.172,
01/01/2000,01:10:38.94,21.23,-58.32,-992.47,166.25,-665.0,-297.50,1,94.177,
01/01/2000,01:10:38.95,21.35,-58.44,-992.47,253.75,-560.0,-437.50,1,94.182,
01/01/2000,01:10:38.96,21.35,-58.32,-992.35,192.50,-700.0,-376.25,1,94.187,
01/01/2000,01:10:38.97,21.23,-58.32,-992.23,148.75,-761.25,-411.25,1,94.113,
01/01/2000,01:10:38.98,21.23,-58.44,-992.10,236.25,-743.75,-227.50,1,94.118,
01/01/2000,01:10:38.99,21.11,-58.32,-992.23,8.75,-700.0,-297.50,1,94.123,
01/01/2000,01:10:39.00,21.11,-58.44,-992.47,96.25,-708.75,-376.25,1,94.128,
01/01/2000,01:10:39.01,20.98,-58.44,-992.71,236.25,-691.25,-323.75,1,94.132,
01/01/2000,01:10:39.02,21.11,-58.32,-992.59,52.50,-647.50,-402.50,1,94.137,
01/01/2000,01:10:39.04,21.23,-58.32,-992.10,52.50,-665.0,-201.25,1,94.142,
01/01/2000,01:10:39.05,21.23,-58.32,-992.23,105.0,-726.25,-385.0,1,94.147,
01/01/2000,01:10:39.06,21.35,-58.32,-992.35,183.75,-805.0,-236.25,1,94.152,
01/01/2000,01:10:39.07,21.47,-58.32,-992.59,131.25,-700.0,-367.50,1,94.157,
01/01/2000,01:10:39.08,21.47,-58.44,-992.35,87.50,-656.25,-402.50,1,94.162,
01/01/2000,01:10:39.09,21.35,-58.32,-992.35,192.50,-770.0,-428.75,1,94.167,
01/01/2000,01:10:39.10,21.23,-58.32,-992.23,175.0,-770.0,-280.0,1,94.172,
01/01/2000,01:10:39.11,21.35,-58.44,-992.23,280.0,-656.25,-271.25,1,94.176,
01/01/2000,01:10:39.12,21.23,-58.32,-992.23,201.25,-586.25,-420.0,1,94.181,
01/01/2000,01:10:39.13,21.35,-58.19,-992.35,166.25,-682.50,-288.75,1,94.186,
01/01/2000,01:10:39.14,21.47,-58.19,-992.35,26.25,-647.50,-175.0,1,94.191,
01/01/2000,01:10:39.15,21.47,-58.07,-992.47,105.0,-848.75,-245.0,1,94.196,
01/01/2000,01:10:39.16,21.47,-58.19,-992.35,323.75,-647.50,-437.50,1,94.201,
01/01/2000,01:10:39.17,21.47,-58.44,-992.35,148.75,-638.75,-297.50,1,94.127,
01/01/2000,01:10:39.18,21.35,-58.56,-992.35,122.50,-796.25,-411.25,1,94.132,
01/01/2000,01:10:39.19,21.23,-58.44,-992.23,183.75,-656.25,-420.0,1,94.137,
01/01/2000,01:10:39.20,21.23,-58.32,-992.10,297.50,-621.25,-367.50,1,94.142,
01/01/2000,01:10:39.21,21.35,-58.07,-992.10,175.0,-586.25,-332.50,1,94.147,
01/01/2000,01:10:39.22,21.35,-58.32,-992.23,218.75,-665.0,-297.50,1,94.152,
01/01/2000,01:10:39.23,21.23,-58.32,-992.35,227.50,-735.0,-437.50,1,94.156,
01/01/2000,01:10:39.25,21.23,-58.44,-992.47,201.25,-682.50,-490.0,1,94.161,
01/01/2000,01:10:39.26,21.35,-58.32,-992.59,262.50,-568.75,-376.25,1,94.166,
01/01/2000,01:10:39.27,21.11,-58.32,-992.59,201.25,-726.25,-262.50,1,94.171,
01/01/2000,01:10:39.28,20.98,-58.07,-992.59,122.50,-603.75,-271.25,1,94.176,
01/01/2000,01:10:39.29,20.98,-58.32,-992.59,131.25,-691.25,-271.25,1,94.180,
01/01/2000,01:10:39.30,20.98,-58.44,-992.59,148.75,-770.0,-376.25,1,94.185,
01/01/2000,01:10:39.31,20.98,-58.68,-992.35,175.0,-691.25,-402.50,1,94.190,
01/01/2000,01:10:39.32,21.23,-58.80,-992.23,192.50,-717.50,-411.25,1,94.195,
01/01/2000,01:10:39.33,21.23,-58.44,-992.10,175.0,-673.75,-341.25,1,94.199,
01/01/2000,01:10:39.34,21.11,-58.44,-992.10,140.0,-691.25,-350.0,1,94.127,
01/01/2000,01:10:39.35,20.98,-58.44,-992.59,148.75,-735.0,-253.75,1,94.209,
01/01/2000,01:10:39.37,20.98,-58.56,-992.59,148.75,-665.0,-393.75,1,94.137,
01/01/2000,01:10:39.38,20.98,-58.56,-992.47,271.25,-691.25,-472.50,1,94.142,
01/01/2000,01:10:39.39,21.11,-58.68,-992.35,70.0,-665.0,-376.25,1,94.146,
01/01/2000,01:10:39.40,21.23,-58.44,-992.59,140.0,-630.0,-367.50,1,94.151,
01/01/2000,01:10:39.41,21.23,-58.32,-992.59,26.25,-682.50,-253.75,1,94.156,
01/01/2000,01:10:39.42,21.23,-58.44,-992.47,332.50,-743.75,-455.0,1,94.161,
01/01/2000,01:10:39.43,21.23,-58.44,-992.47,175.0,-708.75,-245.0,1,94.165,
01/01/2000,01:10:39.44,21.23,-58.44,-992.35,148.75,-673.75,-358.75,1,94.170,
01/01/2000,01:10:39.45,21.23,-58.56,-992.23,288.75,-630.0,-332.50,1,94.175,
01/01/2000,01:10:39.46,21.11,-58.56,-992.35,157.50,-700.0,-341.25,1,94.179,
01/01/2000,01:10:39.47,21.11,-58.80,-992.35,157.50,-691.25,-323.75,1,94.184,
01/01/2000,01:10:39.48,20.98,-58.68,-992.47,140.0,-647.50,-315.0,1,94.189,
01/01/2000,01:10:39.49,20.98,-58.56,-992.59,183.75,-665.0,-402.50,1,94.194,
01/01/2000,01:10:39.50,20.86,-58.32,-992.35,105.0,-691.25,-262.50,1,94.198,
01/01/2000,01:10:39.51,20.86,-58.44,-992.35,78.75,-770.0,-306.25,1,94.203,
01/01/2000,01:10:39.52,20.86,-58.56,-992.47,236.25,-656.25,-428.75,1,94.132,
01/01/2000,01:10:39.53,20.98,-58.68,-992.35,131.25,-682.50,-402.50,1,94.137,
01/01/2000,01:10:39.54,20.98,-58.68,-992.35,148.75,-700.0,-315.0,1,94.141,
01/01/2000,01:10:39.55,21.23,-58.56,-992.35,140.0,-621.25,-358.75,1,94.146,
01/01/2000,01:10:39.56,21.23,-58.56,-992.10,61.25,-708.75,-253.75,1,94.151,
01/01/2000,01:10:39.57,21.35,-58.56,-992.23,175.0,-638.75,-323.75,1,94.155,
01/01/2000,01:10:39.58,21.23,-58.68,-992.35,157.50,-656.25,-306.25,1,94.160,
01/01/2000,01:10:39.60,21.11,-58.80,-992.35,96.25,-691.25,-157.50,1,94.165,
01/01/2000,01:10:39.61,21.11,-58.80,-992.35,236.25,-647.50,-385.0,1,94.169,
01/01/2000,01:10:39.62,21.11,-58.56,-992.35,288.75,-656.25,-341.25,1,94.174,
01/01/2000,01:10:39.63,21.11,-58.32,-992.35,218.75,-656.25,-262.50,1,94.179,
01/01/2000,01:10:39.64,21.23,-58.56,-992.47,262.50,-638.75,-376.25,1,94.183,
01/01/2000,01:10:39.65,21.11,-58.44,-992.47,96.25,-586.25,-341.25,1,94.188,
01/01/2000,01:10:39.66,21.23,-58.44,-992.47,105.0,-630.0,-306.25,1,94.118,
01/01/2000,01:10:39.67,21.23,-58.44,-992.35,192.50,-700.0,-376.25,1,94.122,
01/01/2000,01:10:39.68,21.23,-58.44,-992.23,122.50,-708.75,-332.50,1,94.127,
01/01/2000,01:10:39.69,21.23,-58.44,-992.47,148.75,-778.75,-280.0,1,94.132,
01/01/2000,01:10:39.70,21.23,-58.44,-992.59,245.0,-638.75,-271.25,1,94.136,
01/01/2000,01:10:39.71,21.23,-58.32,-992.35,148.75,-735.0,-227.50,1,94.141,
01/01/2000,01:10:39.72,20.98,-58.32,-992.35,87.50,-673.75,-367.50,1,94.146,
01/01/2000,01:10:39.74,21.11,-58.44,-992.47,183.75,-700.0,-420.0,1,94.150,
01/01/2000,01:10:39.75,21.11,-58.56,-992.47,105.0,-656.25,-332.50,1,94.155,
01/01/2000,01:10:39.76,21.23,-58.44,-992.59,210.0,-673.75,-341.25,1,94.159,
01/01/2000,01:10:39.77,21.23,-58.44,-992.59,288.75,-630.0,-420.0,1,94.164,
01/01/2000,01:10:39.78,21.11,-58.19,-992.47,61.25,-726.25,-367.50,1,94.169,
01/01/2000,01:10:39.79,21.23,-58.07,-992.35,175.0,-682.50,-315.0,1,94.173,
01/01/2000,01:10:39.80,21.23,-58.32,-992.10,175.0,-682.50,-315.0,1,94.178,
01/01/2000,01:10:39.81,21.11,-58.56,-992.35,201.25,-743.75,-341.25,1,94.182,
01/01/2000,01:10:39.82,20.98,-58.56,-992.59,218.75,-656.25,-498.75,1,94.187,
01/01/2000,01:10:39.83,21.11,-58.44,-992.35,52.50,-726.25,-350.0,1,94.192,
01/01/2000,01:10:39.84,21.23,-58.07,-992.23,26.25,-726.25,-306.25,1,94.196,
01/01/2000,01:10:39.85,21.11,-58.07,-992.23,201.25,-586.25,-332.50,1,94.201,
01/01/2000,01:10:39.86,21.23,-58.19,-992.47,61.25,-603.75,-288.75,1,94.205,
01/01/2000,01:10:39.88,21.35,-58.44,-992.35,43.75,-682.50,-393.75,1,94.136,
01/01/2000,01:10:39.89,21.47,-58.44,-992.10,183.75,-848.75,-367.50,1,94.141,
01/01/2000,01:10:39.90,21.47,-58.32,-992.10,183.75,-621.25,-227.50,1,94.145,
01/01/2000,01:10:39.91,21.23,-58.44,-992.10,166.25,-752.50,-420.0,1,94.150,
01/01/2000,01:10:39.92,21.23,-58.32,-992.35,140.0,-700.0,-245.0,1,94.154,
01/01/2000,01:10:39.93,21.35,-58.32,-992.47,183.75,-700.0,-437.50,1,94.159,
01/01/2000,01:10:39.94,21.35,-58.44,-992.47,183.75,-708.75,-218.75,1,94.163,
01/01/2000,01:10:39.95,21.23,-58.44,-992.35,122.50,-708.75,-288.75,1,94.168,
01/01/2000,01:10:39.96,20.98,-58.32,-992.35,166.25,-717.50,-455.0,1,94.172,
01/01/2000,01:10:39.97,20.98,-58.32,-992.59,297.50,-700.0,-262.50,1,94.177,
01/01/2000,01:10:39.98,20.98,-58.56,-992.71,210.0,-577.50,-306.25,1,94.182,
01/01/2000,01:10:39.99,20.98,-58.68,-992.71,166.25,-761.25,-350.0,1,94.186,
01/01/2000,01:10:40.00,20.74,-58.80,-992.59,227.50,-656.25,-367.50,1,94.191,
01/01/2000,01:10:40.01,20.98,-58.44,-992.47,288.75,-726.25,-490.0,1,94.195,
01/01/2000,01:10:40.02,21.23,-58.56,-992.47,306.25,-673.75,-323.75,1,94.127,
01/01/2000,01:10:40.03,21.11,-58.44,-992.59,140.0,-665.0,-218.75,1,94.131,
01/01/2000,01:10:40.04,20.98,-58.32,-992.59,140.0,-665.0,-262.50,1,94.136,
01/01/2000,01:10:40.05,21.23,-58.32,-992.59,131.25,-682.50,-437.50,1,94.140,
01/01/2000,01:10:40.06,21.47,-58.32,-992.59,192.50,-595.0,-393.75,1,94.145,
01/01/2000,01:10:40.07,21.47,-58.32,-992.59,175.0,-726.25,-271.25,1,94.149,
01/01/2000,01:10:40.09,21.47,-58.56,-992.47,-8.75,-665.0,-367.50,1,94.154,
01/01/2000,01:10:40.10,21.47,-58.44,-992.59,131.25,-743.75,-385.0,1,94.158,
01/01/2000,01:10:40.11,21.35,-58.56,-992.59,175.0,-691.25,-210.0,1,94.163,
01/01/2000,01:10:40.12,21.23,-58.32,-992.47,210.0,-673.75,-341.25,1,94.167,
01/01/2000,01:10:40.13,21.23,-58.32,-992.35,201.25,-787.50,-271.25,1,94.172,
01/01/2000,01:10:40.14,21.47,-58.44,-992.35,148.75,-761.25,-358.75,1,94.176,
01/01/2000,01:10:40.15,21.35,-58.56,-992.35,210.0,-647.50,-288.75,1,94.181,
01/01/2000,01:10:40.16,21.35,-58.68,-992.47,175.0,-708.75,-288.75,1,94.113,
01/01/2000,01:10:40.17,21.23,-58.44,-992.47,157.50,-735.0,-402.50,1,94.118,
01/01/2000,01:10:40.18,21.35,-58.07,-992.35,105.0,-700.0,-332.50,1,94.122,
01/01/2000,01:10:40.19,21.23,-58.19,-992.35,157.50,-752.50,-350.0,1,94.127,
01/01/2000,01:10:40.20,21.23,-58.19,-992.47,201.25,-638.75,-332.50,1,94.131,
01/01/2000,01:10:40.21,21.23,-58.32,-992.84,96.25,-647.50,-437.50,1,94.136,
01/01/2000,01:10:40.22,21.35,-58.32,-992.59,245.0,-708.75,-455.0,1,94.140,
01/01/2000,01:10:40.24,21.35,-58.32,-992.59,148.75,-735.0,-393.75,1,94.144,
01/01/2000,01:10:40.25,21.23,-58.07,-992.35,183.75,-770.0,-280.0,1,94.149,
01/01/2000,01:10:40.26,21.23,-58.07,-992.23,236.25,-673.75,-367.50,1,94.153,
01/01/2000,01:10:40.27,21.23,-58.07,-992.23,87.50,-682.50,-332.50,1,94.158,
01/01/2000,01:10:40.28,21.23,-58.19,-992.10,271.25,-647.50,-420.0,1,94.162,
01/01/2000,01:10:40.29,21.35,-58.32,-992.23,157.50,-673.75,-376.25,1,94.167,
01/01/2000,01:10:40.30,21.35,-58.32,-992.23,131.25,-717.50,-446.25,1,94.171,
01/01/2000,01:10:40.31,21.47,-58.19,-992.23,105.0,-595.0,-245.0,1,94.175,
01/01/2000,01:10:40.32,21.47,-58.44,-992.10,253.75,-612.50,-341.25,1,94.180,
01/01/2000,01:10:40.33,21.35,-58.32,-992.35,201.25,-603.75,-393.75,1,94.184,
01/01/2000,01:10:40.34,21.47,-58.44,-992.35,140.0,-796.25,-411.25,1,94.189,
01/01/2000,01:10:40.35,21.47,-58.44,-992.35,236.25,-603.75,-271.25,1,94.193,
01/01/2000,01:10:40.36,21.35,-58.56,-992.23,113.75,-752.50,-236.25,1,94.197,
01/01/2000,01:10:40.38,21.23,-58.56,-992.35,280.0,-691.25,-420.0,1,94.131,
01/01/2000,01:10:40.39,21.23,-58.56,-992.59,192.50,-770.0,-332.50,1,94.135,
01/01/2000,01:10:40.40,21.23,-58.56,-992.47,210.0,-761.25,-376.25,1,94.140,
01/01/2000,01:10:40.41,21.11,-58.56,-992.35,-35.0,-717.50,-315.0,1,94.144,
01/01/2000,01:10:40.42,21.23,-58.56,-992.23,192.50,-673.75,-350.0,1,94.149,
01/01/2000,01:10:40.43,21.23,-58.56,-992.23,78.75,-717.50,-280.0,1,94.153,
01/01/2000,01:10:40.44,21.59,-58.68,-992.35,210.0,-656.25,-236.25,1,94.157,
01/01/2000,01:10:40.45,21.47,-58.56,-992.35,122.50,-673.75,-428.75,1,94.091,
01/01/2000,01:10:40.46,21.23,-58.44,-992.35,218.75,-735.0,-341.25,1,94.096,
01/01/2000,01:10:40.47,21.23,-58.32,-992.23,105.0,-691.25,-315.0,1,94.100,
01/01/2000,01:10:40.48,21.23,-58.32,-992.47,201.25,-560.0,-350.0,1,94.104,
01/01/2000,01:10:40.49,21.35,-58.32,-992.59,78.75,-595.0,-306.25,1,94.109,
01/01/2000,01:10:40.50,21.35,-58.44,-992.59,192.50,-560.0,-253.75,1,94.113,
01/01/2000,01:10:40.51,21.23,-58.56,-992.47,166.25,-700.0,-297.50,1,94.118,
01/01/2000,01:10:40.52,21.11,-58.44,-992.35,78.75,-533.75,-306.25,1,94.122,
01/01/2000,01:10:40.53,20.98,-58.32,-992.47,262.50,-813.75,-210.0,1,94.126,
01/01/2000,01:10:40.54,21.23,-58.32,-992.59,315.0,-673.75,-262.50,1,94.131,
01/01/2000,01:10:40.55,21.23,-58.32,-992.84,17.50,-691.25,-297.50,1,94.135,
01/01/2000,01:10:40.56,21.11,-58.56,-992.71,70.0,-673.75,-280.0,1,94.139,
01/01/2000,01:10:40.57,20.98,-58.80,-992.59,288.75,-717.50,-411.25,1,94.144,
01/01/2000,01:10:40.59,20.98,-58.56,-992.35,113.75,-796.25,-280.0,1,94.148,
01/01/2000,01:10:40.60,21.23,-58.32,-992.47,253.75,-708.75,-306.25,1,94.152,
01/01/2000,01:10:40.61,21.11,-58.32,-992.84,183.75,-717.50,-227.50,1,94.157,
01/01/2000,01:10:40.62,21.11,-58.56,-992.71,96.25,-717.50,-315.0,1,94.161,
01/01/2000,01:10:40.63,21.11,-58.56,-992.84,157.50,-621.25,-411.25,1,94.165,
01/01/2000,01:10:40.64,21.23,-58.44,-992.71,315.0,-630.0,-297.50,1,94.170,
01/01/2000,01:10:40.65,21.47,-58.44,-992.71,122.50,-831.25,-498.75,1,94.174,
01/01/2000,01:10:40.66,21.47,-58.32,-992.71,140.0,-665.0,-218.75,1,94.178,
01/01/2000,01:10:40.67,21.23,-58.44,-992.71,140.0,-726.25,-323.75,1,94.183,
01/01/2000,01:10:40.68,21.23,-58.32,-992.71,140.0,-700.0,-288.75,1,94.187,
01/01/2000,01:10:40.69,20.98,-58.19,-992.71,52.50,-630.0,-323.75,1,94.191,
01/01/2000,01:10:40.70,21.23,-58.44,-992.71,332.50,-665.0,-332.50,1,94.195,
01/01/2000,01:10:40.71,21.11,-58.32,-992.71,-17.50,-787.50,-341.25,1,94.200,
01/01/2000,01:10:40.72,20.98,-58.44,-992.71,52.50,-813.75,-253.75,1,94.135,
01/01/2000,01:10:40.73,20.86,-58.56,-992.71,236.25,-691.25,-315.0,1,94.139,
01/01/2000,01:10:40.74,20.86,-58.44,-992.71,218.75,-656.25,-393.75,1,94.143,
01/01/2000,01:10:40.75,20.98,-58.32,-992.84,218.75,-630.0,-262.50,1,94.148,
01/01/2000,01:10:40.76,20.98,-58.32,-992.84,105.0,-700.0,-332.50,1,94.152,
01/01/2000,01:10:40.77,20.98,-58.32,-992.84,70.0,-612.50,-332.50,1,94.156,
01/01/2000,01:10:40.78,20.98,-58.44,-992.96,183.75,-726.25,-393.75,1,94.161,
01/01/2000,01:10:40.80,21.11,-58.32,-992.71,166.25,-682.50,-358.75,1,94.165,
01/01/2000,01:10:40.81,21.11,-58.44,-992.71,218.75,-673.75,-253.75,1,94.169,
01/01/2000,01:10:40.82,21.23,-58.07,-992.84,236.25,-665.0,-393.75,1,94.173,
01/01/2000,01:10:40.83,21.35,-58.32,-992.59,271.25,-630.0,-367.50,1,94.178,
01/01/2000,01:10:40.84,21.35,-58.32,-992.47,166.25,-682.50,-411.25,1,94.182,
01/01/2000,01:10:40.85,21.35,-58.56,-992.47,201.25,-735.0,-358.75,1,94.186,
01/01/2000,01:10:40.86,21.35,-58.44,-992.59,113.75,-612.50,-402.50,1,94.190,
01/01/2000,01:10:40.87,21.23,-58.19,-992.84,78.75,-612.50,-253.75,1,94.194,
01/01/2000,01:10:40.88,21.23,-58.44,-992.84,262.50,-682.50,-411.25,1,94.199,
01/01/2000,01:10:40.90,21.23,-58.19,-992.71,201.25,-656.25,-262.50,1,94.135,
01/01/2000,01:10:40.91,21.23,-58.32,-992.84,175.0,-708.75,-201.25,1,94.139,
01/01/2000,01:10:40.92,21.23,-58.32,-992.84,218.75,-612.50,-262.50,1,94.143,
01/01/2000,01:10:40.93,21.35,-58.32,-992.84,183.75,-577.50,-358.75,1,94.147,
01/01/2000,01:10:40.94,20.98,-58.32,-992.71,131.25,-647.50,-315.0,1,94.152,
01/01/2000,01:10:40.95,21.11,-58.44,-992.84,201.25,-638.75,-358.75,1,94.156,
01/01/2000,01:10:40.96,21.11,-58.56,-992.71,280.0,-682.50,-446.25,1,94.160,
01/01/2000,01:10:40.97,21.11,-58.32,-992.47,61.25,-743.75,-192.50,1,94.164,
01/01/2000,01:10:40.98,21.23,-58.32,-992.47,122.50,-770.0,-341.25,1,94.168,
01/01/2000,01:10:40.99,21.11,-58.32,-992.35,271.25,-612.50,-428.75,1,94.173,
01/01/2000,01:10:41.00,21.11,-58.07,-992.35,105.0,-708.75,-455.0,1,94.177,
01/01/2000,01:10:41.01,20.98,-58.19,-992.47,140.0,-752.50,-288.75,1,94.113,
01/01/2000,01:10:41.02,21.23,-58.32,-992.35,288.75,-691.25,-306.25,1,94.118,
01/01/2000,01:10:41.03,21.23,-58.32,-992.35,183.75,-673.75,-428.75,1,94.122,
01/01/2000,01:10:41.04,21.35,-58.44,-992.35,192.50,-700.0,-245.0,1,94.126,
01/01/2000,01:10:41.05,21.23,-58.32,-992.35,140.0,-805.0,-411.25,1,94.130,
01/01/2000,01:10:41.06,21.23,-58.32,-992.35,122.50,-665.0,-306.25,1,94.134,
01/01/2000,01:10:41.08,21.23,-58.32,-992.35,166.25,-630.0,-306.25,1,94.139,
01/01/2000,01:10:41.09,21.23,-58.32,-992.10,175.0,-621.25,-367.50,1,94.143,
01/01/2000,01:10:41.10,21.23,-58.44,-992.23,218.75,-708.75,-332.50,1,94.147,
01/01/2000,01:10:41.11,21.23,-58.19,-992.23,271.25,-717.50,-332.50,1,94.151,
01/01/2000,01:10:41.12,21.11,-58.32,-992.35,0.0,-813.75,-350.0,1,94.155,
01/01/2000,01:10:41.13,21.23,-58.32,-992.35,183.75,-726.25,-323.75,1,94.160,
01/01/2000,01:10:41.14,20.98,-58.44,-992.47,297.50,-630.0,-341.25,1,94.164,
01/01/2000,01:10:41.15,21.11,-58.19,-992.35,236.25,-656.25,-420.0,1,94.168,
01/01/2000,01:10:41.16,21.23,-58.32,-992.35,140.0,-647.50,-358.75,1,94.172,
01/01/2000,01:10:41.17,21.23,-58.32,-992.23,70.0,-805.0,-306.25,1,94.176,
01/01/2000,01:10:41.18,21.23,-58.32,-992.23,140.0,-656.25,-498.75,1,94.180,
01/01/2000,01:10:41.19,21.23,-58.44,-992.23,70.0,-778.75,-323.75,1,94.184,
01/01/2000,01:10:41.20,21.35,-58.32,-992.10,78.75,-761.25,-175.0,1,94.189,
01/01/2000,01:10:41.21,21.23,-58.32,-992.35,78.75,-673.75,-367.50,1,94.193,
01/01/2000,01:10:41.22,21.23,-58.56,-992.47,253.75,-717.50,-463.75,1,94.130,
01/01/2000,01:10:41.23,21.23,-58.56,-992.59,96.25,-743.75,-367.50,1,94.134,
01/01/2000,01:10:41.25,20.98,-58.44,-992.47,315.0,-682.50,-376.25,1,94.138,
01/01/2000,01:10:41.25,20.98,-58.56,-992.35,166.25,-778.75,-367.50,1,94.143,
01/01/2000,01:10:41.27,20.98,-58.32,-992.47,192.50,-673.75,-350.0,1,94.147,
01/01/2000,01:10:41.28,21.23,-58.32,-992.47,78.75,-770.0,-350.0,1,94.151,
01/01/2000,01:10:41.29,21.11,-58.32,-992.71,78.75,-717.50,-455.0,1,94.155,
01/01/2000,01:10:41.30,21.11,-58.44,-992.59,140.0,-778.75,-262.50,1,94.159,
01/01/2000,01:10:41.31,21.11,-58.44,-992.59,78.75,-621.25,-402.50,1,94.163,
01/01/2000,01:10:41.32,21.23,-58.32,-992.59,78.75,-770.0,-367.50,1,94.167,
01/01/2000,01:10:41.33,21.23,-58.32,-992.59,210.0,-735.0,-280.0,1,94.171,
01/01/2000,01:10:41.34,21.35,-58.32,-992.35,122.50,-612.50,-393.75,1,94.175,
01/01/2000,01:10:41.35,21.23,-58.56,-992.35,201.25,-700.0,-446.25,1,94.180,
01/01/2000,01:10:41.36,21.47,-58.56,-992.35,96.25,-630.0,-350.0,1,94.118,
01/01/2000,01:10:41.37,21.47,-58.80,-992.10,201.25,-761.25,-332.50,1,94.122,
01/01/2000,01:10:41.38,21.35,-58.56,-992.23,52.50,-700.0,-218.75,1,94.126,
01/01/2000,01:10:41.39,21.35,-58.56,-991.98,96.25,-647.50,-332.50,1,94.130,
01/01/2000,01:10:41.41,21.23,-58.44,-991.98,35.0,-647.50,-376.25,1,94.134,
01/01/2000,01:10:41.42,21.23,-58.56,-992.10,96.25,-726.25,-315.0,1,94.138,
01/01/2000,01:10:41.43,21.35,-58.56,-992.10,140.0,-682.50,-402.50,1,94.142,
01/01/2000,01:10:41.44,21.35,-58.44,-991.98,122.50,-752.50,-420.0,1,94.146,
01/01/2000,01:10:41.45,21.23,-58.56,-991.98,175.0,-638.75,-201.25,1,94.150,
01/01/2000,01:10:41.46,21.23,-58.56,-991.98,131.25,-638.75,-367.50,1,94.154,
01/01/2000,01:10:41.47,21.47,-58.56,-992.23,140.0,-665.0,-341.25,1,94.159,
01/01/2000,01:10:41.48,21.35,-58.56,-992.35,166.25,-595.0,-367.50,1,94.163,
01/01/2000,01:10:41.49,21.35,-58.56,-992.10,105.0,-656.25,-306.25,1,94.167,
01/01/2000,01:10:41.50,21.35,-58.44,-992.10,148.75,-717.50,-437.50,1,94.171,
01/01/2000,01:10:41.51,21.23,-58.56,-991.98,280.0,-726.25,-367.50,1,94.175,
01/01/2000,01:10:41.52,21.23,-58.32,-992.10,105.0,-682.50,-420.0,1,94.179,
01/01/2000,01:10:41.53,21.23,-58.32,-992.23,35.0,-700.0,-218.75,1,94.183,
01/01/2000,01:10:41.54,21.35,-58.44,-992.10,105.0,-551.25,-455.0,1,94.187,
01/01/2000,01:10:41.55,21.35,-58.56,-991.98,271.25,-726.25,-288.75,1,94.191,
01/01/2000,01:10:41.56,21.11,-58.68,-991.86,183.75,-726.25,-350.0,1,94.195,
01/01/2000,01:10:41.57,21.23,-58.56,-992.10,122.50,-656.25,-393.75,1,94.134,
01/01/2000,01:10:41.58,21.23,-58.68,-992.23,183.75,-682.50,-315.0,1,94.138,
01/01/2000,01:10:41.59,21.35,-58.56,-992.47,271.25,-665.0,-280.0,1,94.142,
01/01/2000,01:10:41.60,21.35,-58.32,-992.47,140.0,-656.25,-236.25,1,94.146,
01/01/2000,01:10:41.61,21.23,-58.32,-992.35,61.25,-761.25,-350.0,1,94.150,
01/01/2000,01:10:41.62,21.23,-58.32,-992.23,253.75,-621.25,-428.75,1,94.154,
01/01/2000,01:10:41.63,21.35,-58.19,-992.35,166.25,-735.0,-411.25,1,94.158,
01/01/2000,01:10:41.65,21.47,-58.32,-992.35,87.50,-682.50,-271.25,1,94.162,
01/01/2000,01:10:41.66,21.35,-58.44,-992.35,183.75,-638.75,-288.75,1,94.166,
01/01/2000,01:10:41.67,21.23,-58.32,-992.35,271.25,-647.50,-411.25,1,94.170,
01/01/2000,01:10:41.68,21.23,-58.19,-992.35,192.50,-761.25,-385.0,1,94.174,
01/01/2000,01:10:41.69,21.35,-58.32,-992.47,78.75,-682.50,-428.75,1,94.178,
01/01/2000,01:10:41.70,21.23,-58.19,-992.59,131.25,-700.0,-253.75,1,94.182,
01/01/2000,01:10:41.71,21.23,-58.32,-992.59,131.25,-673.75,-420.0,1,94.186,
01/01/2000,01:10:41.72,21.23,-58.19,-992.35,43.75,-577.50,-315.0,1,94.190,
01/01/2000,01:10:41.73,21.23,-58.07,-992.35,157.50,-673.75,-236.25,1,94.194,
01/01/2000,01:10:41.74,21.35,-58.07,-992.35,105.0,-752.50,-341.25,1,94.198,
01/01/2000,01:10:41.75,21.35,-58.07,-992.47,105.0,-612.50,-350.0,1,94.202,
01/01/2000,01:10:41.76,21.23,-58.32,-992.35,140.0,-761.25,-323.75,1,94.206,
01/01/2000,01:10:41.77,21.23,-58.32,-992.35,183.75,-700.0,-385.0,1,94.210,
01/01/2000,01:10:41.78,21.23,-58.32,-992.35,218.75,-691.25,-385.0,1,94.150,
01/01/2000,01:10:41.79,21.23,-58.32,-992.35,113.75,-700.0,-393.75,1,94.154,
01/01/2000,01:10:41.80,21.23,-58.32,-992.35,201.25,-717.50,-323.75,1,94.158,
01/01/2000,01:10:41.81,21.23,-58.07,-992.59,105.0,-682.50,-192.50,1,94.162,
01/01/2000,01:10:41.82,21.23,-58.32,-992.47,61.25,-621.25,-393.75,1,94.166,
01/01/2000,01:10:41.83,21.23,-58.56,-992.35,332.50,-708.75,-280.0,1,94.169,
01/01/2000,01:10:41.84,21.23,-58.56,-992.35,113.75,-673.75,-385.0,1,94.173,
01/01/2000,01:10:41.86,21.23,-58.44,-992.47,157.50,-761.25,-262.50,1,94.177,
01/01/2000,01:10:41.87,21.23,-58.44,-992.59,280.0,-700.0,-367.50,1,94.181,
01/01/2000,01:10:41.88,21.23,-58.44,-992.71,43.75,-691.25,-420.0,1,94.185,
01/01/2000,01:10:41.89,21.23,-58.56,-992.71,131.25,-656.25,-350.0,1,94.189,
01/01/2000,01:10:41.90,21.11,-58.68,-992.71,96.25,-665.0,-385.0,1,94.193,
01/01/2000,01:10:41.91,21.11,-58.56,-992.59,166.25,-700.0,-315.0,1,94.134,
01/01/2000,01:10:41.92,21.11,-58.68,-992.59,61.25,-822.50,-306.25,1,94.137,
01/01/2000,01:10:41.93,20.98,-58.56,-992.59,131.25,-700.0,-393.75,1,94.141,
01/01/2000,01:10:41.94,20.98,-58.68,-992.59,201.25,-638.75,-332.50,1,94.145,
01/01/2000,01:10:41.96,21.11,-58.56,-992.59,236.25,-595.0,-376.25,1,94.149,
01/01/2000,01:10:41.96,21.23,-58.32,-992.47,140.0,-726.25,-350.0,1,94.153,
01/01/2000,01:10:41.98,21.23,-58.32,-992.23,201.25,-691.25,-236.25,1,94.157,
01/01/2000,01:10:41.99,21.23,-58.32,-992.10,280.0,-700.0,-323.75,1,94.161,
01/01/2000,01:10:42.00,21.23,-58.32,-992.35,26.25,-665.0,-297.50,1,94.165,
01/01/2000,01:10:42.01,21.23,-58.32,-992.59,175.0,-752.50,-358.75,1,94.169,
01/01/2000,01:10:42.02,21.35,-58.32,-992.59,122.50,-647.50,-455.0,1,94.173,
01/01/2000,01:10:42.03,21.23,-58.19,-992.47,105.0,-717.50,-323.75,1,94.177,
01/01/2000,01:10:42.04,21.23,-58.32,-992.35,26.25,-822.50,-376.25,1,94.181,
01/01/2000,01:10:42.05,21.23,-58.32,-992.35,192.50,-647.50,-367.50,1,94.184,
01/01/2000,01:10:42.06,21.11,-58.32,-992.35,131.25,-682.50,-262.50,1,94.188,
01/01/2000,01:10:42.07,21.23,-58.44,-992.47,166.25,-691.25,-455.0,1,94.192,
01/01/2000,01:10:42.08,21.23,-58.44,-992.35,183.75,-682.50,-411.25,1,94.196,
01/01/2000,01:10:42.09,21.11,-58.32,-992.59,192.50,-778.75,-315.0,1,94.200,
01/01/2000,01:10:42.10,21.11,-58.32,-992.59,148.75,-673.75,-332.50,1,94.204,
01/01/2000,01:10:42.11,20.98,-58.32,-992.59,245.0,-691.25,-306.25,1,94.208,
01/01/2000,01:10:42.12,21.11,-58.32,-992.71,218.75,-691.25,-315.0,1,94.212,
01/01/2000,01:10:42.13,21.11,-58.19,-992.47,157.50,-586.25,-332.50,1,94.153,
01/01/2000,01:10:42.14,20.98,-58.07,-992.35,17.50,-673.75,-376.25,1,94.157,
01/01/2000,01:10:42.15,21.11,-58.07,-992.10,122.50,-700.0,-358.75,1,94.161,
01/01/2000,01:10:42.16,20.98,-58.32,-992.35,157.50,-630.0,-271.25,1,94.164,
01/01/2000,01:10:42.17,21.11,-58.19,-992.59,157.50,-770.0,-367.50,1,94.168,
01/01/2000,01:10:42.18,21.23,-58.19,-992.84,87.50,-726.25,-385.0,1,94.172,
01/01/2000,01:10:42.19,21.23,-58.19,-992.59,183.75,-822.50,-393.75,1,94.176,
01/01/2000,01:10:42.21,20.98,-58.32,-992.47,201.25,-717.50,-350.0,1,94.180,
01/01/2000,01:10:42.22,20.98,-57.95,-992.35,175.0,-700.0,-350.0,1,94.184,
01/01/2000,01:10:42.23,21.23,-58.07,-992.59,113.75,-656.25,-358.75,1,94.188,
01/01/2000,01:10:42.24,21.23,-57.83,-992.59,113.75,-691.25,-227.50,1,94.191,
01/01/2000,01:10:42.25,21.23,-58.07,-992.59,288.75,-656.25,-393.75,1,94.195,
01/01/2000,01:10:42.26,21.23,-58.07,-992.47,131.25,-568.75,-376.25,1,94.199,
01/01/2000,01:10:42.27,20.98,-58.07,-992.47,157.50,-656.25,-297.50,1,94.203,
01/01/2000,01:10:42.28,21.23,-57.95,-992.59,157.50,-708.75,-236.25,1,94.145,
01/01/2000,01:10:42.29,21.23,-58.07,-992.59,131.25,-603.75,-341.25,1,94.149,
01/01/2000,01:10:42.30,21.23,-58.19,-992.59,70.0,-630.0,-210.0,1,94.152,
01/01/2000,01:10:42.31,21.11,-58.32,-992.35,271.25,-761.25,-367.50,1,94.156,
01/01/2000,01:10:42.32,21.11,-58.32,-992.23,192.50,-717.50,-323.75,1,94.160,
01/01/2000,01:10:42.33,20.98,-58.07,-992.23,148.75,-717.50,-385.0,1,94.164,
01/01/2000,01:10:42.35,21.11,-58.32,-992.47,280.0,-665.0,-271.25,1,94.168,
01/01/2000,01:10:42.36,21.11,-58.32,-992.35,262.50,-673.75,-385.0,1,94.172,
01/01/2000,01:10:42.37,21.11,-58.19,-992.35,70.0,-630.0,-367.50,1,94.175,
01/01/2000,01:10:42.38,21.23,-58.32,-992.35,140.0,-787.50,-376.25,1,94.179,
01/01/2000,01:10:42.39,21.23,-58.19,-992.35,210.0,-726.25,-236.25,1,94.183,
01/01/2000,01:10:42.40,21.23,-58.32,-992.59,210.0,-708.75,-385.0,1,94.187,
01/01/2000,01:10:42.41,21.11,-58.19,-992.59,236.25,-708.75,-297.50,1,94.191,
01/01/2000,01:10:42.42,21.23,-58.19,-992.59,297.50,-647.50,-315.0,1,94.133,
01/01/2000,01:10:42.44,21.23,-58.32,-992.35,113.75,-778.75,-280.0,1,94.137,
01/01/2000,01:10:42.45,21.23,-58.32,-992.35,122.50,-770.0,-367.50,1,94.141,
01/01/2000,01:10:42.46,21.23,-58.32,-992.47,131.25,-630.0,-341.25,1,94.144,
01/01/2000,01:10:42.47,21.23,-58.32,-992.71,166.25,-621.25,-253.75,1,94.148,
01/01/2000,01:10:42.48,21.47,-58.56,-992.59,306.25,-700.0,-306.25,1,94.152,
01/01/2000,01:10:42.49,21.35,-58.32,-992.47,122.50,-752.50,-420.0,1,94.156,
01/01/2000,01:10:42.50,21.35,-58.19,-992.47,87.50,-691.25,-245.0,1,94.160,
01/01/2000,01:10:42.51,21.23,-58.19,-992.59,262.50,-796.25,-402.50,1,94.163,
01/01/2000,01:10:42.52,21.23,-58.32,-992.71,192.50,-743.75,-297.50,1,94.167,
01/01/2000,01:10:42.53,21.23,-58.19,-992.59,201.25,-770.0,-350.0,1,94.171,
01/01/2000,01:10:42.54,21.35,-58.19,-992.47,245.0,-726.25,-376.25,1,94.175,
01/01/2000,01:10:42.55,21.23,-58.19,-992.59,218.75,-691.25,-376.25,1,94.179,
01/01/2000,01:10:42.56,21.35,-58.32,-992.59,297.50,-551.25,-350.0,1,94.182,
01/01/2000,01:10:42.57,21.47,-58.44,-992.59,105.0,-603.75,-393.75,1,94.186,
01/01/2000,01:10:42.58,21.23,-58.56,-992.59,245.0,-778.75,-280.0,1,94.190,
01/01/2000,01:10:42.59,21.23,-58.56,-992.47,227.50,-595.0,-253.75,1,94.194,
01/01/2000,01:10:42.60,21.23,-58.56,-992.35,166.25,-735.0,-393.75,1,94.197,
01/01/2000,01:10:42.61,21.23,-58.32,-992.23,148.75,-813.75,-315.0,1,94.201,
01/01/2000,01:10:42.62,21.11,-58.32,-992.35,175.0,-752.50,-376.25,1,94.205,
01/01/2000,01:10:42.63,20.98,-58.32,-992.59,157.50,-735.0,-315.0,1,94.208,
01/01/2000,01:10:42.64,20.98,-58.32,-992.59,245.0,-638.75,-376.25,1,94.212,
01/01/2000,01:10:42.65,20.98,-58.56,-992.47,96.25,-577.50,-332.50,1,94.216,
01/01/2000,01:10:42.66,21.23,-58.56,-992.59,192.50,-647.50,-271.25,1,94.220,
01/01/2000,01:10:42.67,21.11,-58.56,-992.71,218.75,-700.0,-367.50,1,94.223,
01/01/2000,01:10:42.68,21.11,-58.56,-992.59,227.50,-752.50,-446.25,1,94.227,
01/01/2000,01:10:42.69,20.98,-58.44,-992.35,148.75,-647.50,-280.0,1,94.170,
01/01/2000,01:10:42.70,20.74,-58.56,-992.35,78.75,-735.0,-411.25,1,94.174,
01/01/2000,01:10:42.71,20.86,-58.80,-992.59,201.25,-691.25,-376.25,1,94.178,
01/01/2000,01:10:42.72,20.86,-58.56,-992.59,26.25,-638.75,-323.75,1,94.182,
01/01/2000,01:10:42.73,20.86,-58.80,-992.59,218.75,-647.50,-350.0,1,94.185,
01/01/2000,01:10:42.74,20.86,-58.68,-992.47,35.0,-638.75,-358.75,1,94.189,
01/01/2000,01:10:42.75,20.86,-58.80,-992.35,166.25,-647.50,-393.75,1,94.193,
01/01/2000,01:10:42.77,20.98,-58.56,-992.35,166.25,-568.75,-306.25,1,94.196,
01/01/2000,01:10:42.78,20.98,-58.68,-992.23,166.25,-691.25,-262.50,1,94.200,
01/01/2000,01:10:42.79,20.98,-58.68,-992.10,175.0,-717.50,-306.25,1,94.204,
01/01/2000,01:10:42.80,20.98,-58.68,-992.23,140.0,-700.0,-288.75,1,94.208,
01/01/2000,01:10:42.81,21.11,-58.68,-992.35,148.75,-647.50,-280.0,1,94.211,
01/01/2000,01:10:42.82,21.11,-58.44,-992.35,183.75,-735.0,-332.50,1,94.215,
01/01/2000,01:10:42.83,21.11,-58.32,-992.23,166.25,-708.75,-280.0,1,94.219,
01/01/2000,01:10:42.84,21.72,-58.56,-992.35,210.0,-752.50,-498.75,1,94.162,
01/01/2000,01:10:42.85,23.42,-58.19,-992.59,192.50,-638.75,-708.75,1,94.166,
01/01/2000,01:10:42.86,26.23,-57.58,-993.57,113.75,-735.0,-376.25,1,94.170,
01/01/2000,01:10:42.87,27.69,-58.80,-993.08,271.25,-726.25,-96.25,1,94.174,
01/01/2000,01:10:42.88,28.30,-59.05,-992.23,218.75,-787.50,-227.50,1,94.177,
01/01/2000,01:10:42.89,27.82,-58.80,-991.86,-52.50,-805.0,-428.75,1,94.181,
01/01/2000,01:10:42.91,27.21,-58.93,-992.23,140.0,-761.25,-428.75,1,94.185,
01/01/2000,01:10:42.92,26.60,-58.32,-992.84,70.0,-761.25,-192.50,1,94.188,
01/01/2000,01:10:42.93,25.86,-57.95,-992.84,140.0,-673.75,-166.25,1,94.192,
01/01/2000,01:10:42.94,26.23,-58.07,-992.35,297.50,-735.0,-533.75,1,94.196,
01/01/2000,01:10:42.95,27.08,-57.95,-991.62,166.25,-665.0,-621.25,1,94.199,
01/01/2000,01:10:42.96,28.55,-58.56,-991.13,288.75,-796.25,-700.0,1,94.203,
01/01/2000,01:10:42.97,30.99,-58.56,-991.37,236.25,-673.75,-595.0,1,94.207,
01/01/2000,01:10:42.98,32.94,-58.32,-991.86,35.0,-673.75,-490.0,1,94.151,
01/01/2000,01:10:42.99,34.53,-58.32,-992.47,192.50,-586.25,-367.50,1,94.155,
01/01/2000,01:10:43.00,35.50,-57.95,-993.20,-8.75,-691.25,-131.25,1,94.158,
01/01/2000,01:10:43.01,35.14,-58.32,-993.08,70.0,-621.25,-52.50,1,94.162,
01/01/2000,01:10:43.02,33.55,-58.80,-992.84,227.50,-726.25,-122.50,1,94.166,
01/01/2000,01:10:43.03,31.35,-58.68,-992.47,70.0,-743.75,-420.0,1,94.169,
01/01/2000,01:10:43.04,29.16,-58.56,-992.10,280.0,-665.0,-525.0,1,94.173,
01/01/2000,01:10:43.05,26.96,-57.83,-991.86,201.25,-726.25,-358.75,1,94.177,
01/01/2000,01:10:43.06,26.60,-57.58,-992.10,148.75,-743.75,-498.75,1,94.180,
01/01/2000,01:10:43.07,26.96,-57.58,-992.10,175.0,-647.50,-472.50,1,94.184,
01/01/2000,01:10:43.08,28.55,-58.07,-992.35,0.0,-796.25,-332.50,1,94.188,
01/01/2000,01:10:43.09,29.16,-58.56,-992.47,96.25,-726.25,-402.50,1,94.191,
01/01/2000,01:10:43.10,29.04,-59.05,-992.23,61.25,-691.25,-367.50,1,94.195,
01/01/2000,01:10:43.12,28.06,-58.56,-992.23,131.25,-717.50,-393.75,1,94.198,
01/01/2000,01:10:43.13,26.84,-58.19,-992.23,113.75,-717.50,-376.25,1,94.202,
01/01/2000,01:10:43.14,25.38,-57.58,-992.35,105.0,-682.50,-105.0,1,94.206,
01/01/2000,01:10:43.15,23.79,-57.58,-992.35,140.0,-586.25,-358.75,1,94.209,
01/01/2000,01:10:43.16,23.79,-57.83,-992.47,140.0,-630.0,-323.75,1,94.213,
01/01/2000,01:10:43.17,24.28,-58.32,-992.47,148.75,-717.50,-358.75,1,94.216,
01/01/2000,01:10:43.18,24.77,-58.56,-992.35,8.75,-761.25,-323.75,1,94.220,
01/01/2000,01:10:43.19,24.40,-59.05,-991.74,192.50,-726.25,-350.0,1,94.224,
01/01/2000,01:10:43.20,23.42,-58.68,-991.37,122.50,-840.0,-358.75,1,94.169,
01/01/2000,01:10:43.21,21.72,-58.32,-991.86,175.0,-735.0,-227.50,1,94.172,
01/01/2000,01:10:43.22,20.50,-58.07,-992.47,227.50,-735.0,-175.0,1,94.176,
01/01/2000,01:10:43.23,19.64,-58.19,-992.71,358.75,-612.50,-437.50,1,94.180,
01/01/2000,01:10:43.24,19.28,-57.95,-992.71,0.0,-551.25,-411.25,1,94.183,
01/01/2000,01:10:43.25,20.50,-58.19,-992.10,183.75,-647.50,-551.25,1,94.187,
01/01/2000,01:10:43.27,22.45,-58.32,-991.98,271.25,-805.0,-612.50,1,94.190,
01/01/2000,01:10:43.28,23.42,-58.56,-992.10,105.0,-700.0,-402.50,1,94.194,
01/01/2000,01:10:43.29,23.91,-58.80,-992.47,122.50,-691.25,-358.75,1,94.198,
01/01/2000,01:10:43.30,23.67,-58.68,-992.96,166.25,-761.25,-175.0,1,94.201,
01/01/2000,01:10:43.31,23.06,-58.56,-993.08,358.75,-691.25,-367.50,1,94.205,
01/01/2000,01:10:43.32,22.08,-57.83,-993.08,26.25,-682.50,-350.0,1,94.208,
01/01/2000,01:10:43.33,21.72,-57.58,-992.47,227.50,-761.25,-402.50,1,94.212,
01/01/2000,01:10:43.34,21.72,-57.71,-992.10,148.75,-665.0,-236.25,1,94.215,
01/01/2000,01:10:43.35,22.20,-58.44,-991.98,236.25,-726.25,-332.50,1,94.219,
01/01/2000,01:10:43.36,22.69,-58.80,-991.98,183.75,-621.25,-358.75,1,94.222,
01/01/2000,01:10:43.37,22.45,-58.93,-992.35,131.25,-813.75,-376.25,1,94.226,
01/01/2000,01:10:43.38,21.84,-58.56,-992.35,131.25,-586.25,-227.50,1,94.230,
01/01/2000,01:10:43.39,20.98,-58.32,-992.23,183.75,-691.25,-245.0,1,94.233,
01/01/2000,01:10:43.40,19.52,-58.07,-991.86,306.25,-761.25,-192.50,1,94.179,
01/01/2000,01:10:43.41,19.15,-57.95,-991.86,87.50,-656.25,-341.25,1,94.182,
01/01/2000,01:10:43.42,19.28,-58.32,-992.10,131.25,-647.50,-376.25,1,94.186,
01/01/2000,01:10:43.43,20.62,-58.80,-992.35,87.50,-761.25,-463.75,1,94.190,
01/01/2000,01:10:43.45,22.20,-58.68,-992.71,96.25,-647.50,-533.75,1,94.193,
01/01/2000,01:10:43.46,22.94,-58.80,-992.59,288.75,-822.50,-236.25,1,94.197,
01/01/2000,01:10:43.47,22.94,-58.56,-992.47,52.50,-691.25,-131.25,1,94.200,
01/01/2000,01:10:43.48,22.08,-58.68,-992.10,218.75,-840.0,-323.75,1,94.204,
01/01/2000,01:10:43.49,21.47,-58.44,-992.10,192.50,-682.50,-218.75,1,94.207,
01/01/2000,01:10:43.50,20.98,-58.56,-992.35,148.75,-630.0,-437.50,1,94.211,
01/01/2000,01:10:43.51,20.74,-58.32,-992.84,166.25,-752.50,-323.75,1,94.214,
01/01/2000,01:10:43.52,21.35,-58.07,-992.84,113.75,-673.75,-297.50,1,94.218,
01/01/2000,01:10:43.53,21.96,-58.19,-992.84,201.25,-778.75,-385.0,1,94.221,
01/01/2000,01:10:43.54,22.57,-58.07,-992.59,105.0,-708.75,-350.0,1,94.168,
01/01/2000,01:10:43.55,22.81,-58.56,-992.10,140.0,-735.0,-227.50,1,94.171,
01/01/2000,01:10:43.56,22.33,-58.56,-991.98,35.0,-726.25,-385.0,1,94.175,
01/01/2000,01:10:43.57,21.23,-58.80,-991.86,201.25,-735.0,-315.0,1,94.178,
01/01/2000,01:10:43.58,20.13,-58.32,-992.10,8.75,-743.75,-385.0,1,94.182,
01/01/2000,01:10:43.59,19.03,-58.07,-992.10,218.75,-735.0,-367.50,1,94.185,
01/01/2000,01:10:43.60,19.15,-57.58,-992.59,157.50,-542.50,-332.50,1,94.189,
01/01/2000,01:10:43.61,19.76,-57.71,-992.71,105.0,-656.25,-306.25,1,94.192,
01/01/2000,01:10:43.62,20.86,-58.07,-992.84,192.50,-726.25,-367.50,1,94.196,
01/01/2000,01:10:43.63,22.33,-58.80,-992.59,192.50,-796.25,-367.50,1,94.199,
01/01/2000,01:10:43.64,22.94,-58.93,-992.35,148.75,-568.75,-402.50,1,94.203,
01/01/2000,01:10:43.65,22.94,-58.68,-992.23,166.25,-647.50,-428.75,1,94.206,
01/01/2000,01:10:43.66,22.45,-58.07,-991.98,70.0,-638.75,-210.0,1,94.210,
01/01/2000,01:10:43.67,21.59,-57.95,-992.23,87.50,-743.75,-253.75,1,94.213,
01/01/2000,01:10:43.69,20.50,-58.07,-992.35,166.25,-603.75,-227.50,1,94.217,
01/01/2000,01:10:43.70,20.25,-58.32,-992.59,78.75,-647.50,-428.75,1,94.220,
01/01/2000,01:10:43.71,20.62,-58.68,-992.84,148.75,-682.50,-271.25,1,94.224,
01/01/2000,01:10:43.72,21.11,-58.56,-992.71,96.25,-717.50,-385.0,1,94.227,
01/01/2000,01:10:43.73,21.72,-58.32,-992.10,122.50,-866.25,-253.75,1,94.231,
01/01/2000,01:10:43.74,21.59,-58.68,-991.74,245.0,-691.25,-350.0,1,94.234,
01/01/2000,01:10:43.75,20.98,-58.56,-992.10,122.50,-647.50,-262.50,1,94.238,
01/01/2000,01:10:43.76,20.25,-58.19,-992.10,70.0,-848.75,-297.50,1,94.241,
01/01/2000,01:10:43.77,19.52,-58.19,-992.10,227.50,-700.0,-218.75,1,94.245,
01/01/2000,01:10:43.78,19.28,-57.71,-992.35,52.50,-612.50,-306.25,1,94.192,
01/01/2000,01:10:43.79,19.15,-57.83,-993.08,175.0,-735.0,-306.25,1,94.251,
01/01/2000,01:10:43.80,20.01,-58.07,-993.20,166.25,-638.75,-385.0,1,94.199,
01/01/2000,01:10:43.81,20.62,-58.44,-992.84,288.75,-735.0,-280.0,1,94.202,
01/01/2000,01:10:43.83,21.72,-58.32,-992.23,122.50,-778.75,-446.25,1,94.205,
01/01/2000,01:10:43.84,22.08,-58.68,-991.62,280.0,-726.25,-253.75,1,94.209,
