rtcDate,rtcTime,aX,aY,aZ,gX,gY,gZ,dataRdy,output_Hz,
01/01/2000,01:14:18.20,17.93,-50.75,-854.12,87.50,-708.75,-420.0,1,0.0,
01/01/2000,01:14:18.22,18.54,-52.46,-885.72,26.25,-595.0,-315.0,1,100.0,
01/01/2000,01:14:18.23,18.79,-53.31,-898.90,297.50,-752.50,-271.25,1,100.0,
01/01/2000,01:14:18.24,19.03,-54.05,-910.49,105.0,-621.25,-350.0,1,100.0,
01/01/2000,01:14:18.25,19.52,-55.02,-925.13,122.50,-656.25,-411.25,1,100.0,
01/01/2000,01:14:18.26,19.76,-55.51,-933.18,35.0,-752.50,-323.75,1,100.0,
01/01/2000,01:14:18.27,19.89,-55.88,-940.38,87.50,-708.75,-323.75,1,100.0,
01/01/2000,01:14:18.28,20.01,-56.49,-949.65,218.75,-708.75,-385.0,1,100.0,
01/01/2000,01:14:18.29,20.13,-56.73,-955.14,183.75,-735.0,-341.25,1,100.0,
01/01/2000,01:14:18.30,20.25,-57.10,-960.02,175.0,-612.50,-358.75,1,100.0,
01/01/2000,01:14:18.31,20.37,-57.22,-964.04,52.50,-638.75,-367.50,1,100.0,
01/01/2000,01:14:18.32,20.37,-57.58,-967.46,131.25,-726.25,-341.25,1,100.0,
01/01/2000,01:14:18.33,20.50,-57.83,-972.10,183.75,-708.75,-253.75,1,100.0,
01/01/2000,01:14:18.34,20.37,-57.95,-974.78,192.50,-708.75,-315.0,1,100.0,
01/01/2000,01:14:18.35,20.50,-58.07,-977.22,218.75,-761.25,-385.0,1,100.0,
01/01/2000,01:14:18.36,20.74,-58.19,-980.15,210.0,-682.50,-323.75,1,100.0,
01/01/2000,01:14:18.37,20.74,-58.07,-981.98,183.75,-630.0,-367.50,1,100.0,
01/01/2000,01:14:18.38,20.74,-58.32,-983.32,140.0,-735.0,-245.0,1,100.0,
01/01/2000,01:14:18.39,20.74,-58.56,-984.30,157.50,-752.50,-385.0,1,100.0,
01/01/2000,01:14:18.40,20.74,-58.80,-985.64,157.50,-708.75,-385.0,1,100.0,
01/01/2000,01:14:18.41,20.74,-58.56,-986.37,192.50,-770.0,-376.25,1,95.455,
01/01/2000,01:14:18.42,20.98,-58.56,-987.47,210.0,-603.75,-297.50,1,100.0,
01/01/2000,01:14:18.43,20.98,-58.56,-988.44,183.75,-717.50,-358.75,1,95.833,
01/01/2000,01:14:18.44,20.98,-58.68,-989.42,210.0,-595.0,-358.75,1,96.0,
01/01/2000,01:14:18.45,20.98,-58.68,-989.91,166.25,-770.0,-446.25,1,96.154,
01/01/2000,01:14:18.46,21.23,-58.80,-990.15,201.25,-708.75,-358.75,1,96.296,
01/01/2000,01:14:18.47,21.35,-58.68,-990.52,227.50,-752.50,-262.50,1,96.429,
01/01/2000,01:14:18.49,21.23,-58.80,-990.88,52.50,-700.0,-323.75,1,96.552,
01/01/2000,01:14:18.50,21.11,-58.68,-991.37,218.75,-743.75,-245.0,1,96.667,
01/01/2000,01:14:18.51,20.98,-58.80,-991.74,192.50,-595.0,-341.25,1,96.774,
01/01/2000,01:14:18.52,21.11,-58.80,-992.23,236.25,-691.25,-288.75,1,96.875,
01/01/2000,01:14:18.53,21.23,-58.80,-992.23,157.50,-682.50,-297.50,1,96.970,
01/01/2000,01:14:18.54,21.35,-58.68,-992.10,113.75,-770.0,-288.75,1,97.059,
01/01/2000,01:14:18.55,21.11,-58.93,-992.10,70.0,-708.75,-323.75,1,97.143,
01/01/2000,01:14:18.56,21.11,-59.29,-992.59,166.25,-551.25,-446.25,1,97.222,
01/01/2000,01:14:18.57,21.23,-59.05,-992.96,210.0,-638.75,-358.75,1,97.297,
01/01/2000,01:14:18.58,21.23,-59.05,-992.96,271.25,-533.75,-385.0,1,97.368,
01/01/2000,01:14:18.59,21.23,-59.05,-992.84,192.50,-603.75,-227.50,1,97.436,
01/01/2000,01:14:18.60,20.98,-59.17,-992.71,192.50,-656.25,-332.50,1,97.500,
01/01/2000,01:14:18.61,21.11,-59.17,-992.84,157.50,-700.0,-385.0,1,97.561,
01/01/2000,01:14:18.62,21.23,-59.05,-992.96,166.25,-717.50,-288.75,1,95.349,
01/01/2000,01:14:18.63,21.11,-58.80,-993.08,192.50,-717.50,-245.0,1,95.455,
01/01/2000,01:14:18.64,20.98,-58.80,-992.84,227.50,-778.75,-288.75,1,95.556,
01/01/2000,01:14:18.65,20.98,-58.80,-992.84,218.75,-612.50,-411.25,1,95.652,
01/01/2000,01:14:18.66,21.23,-58.80,-993.08,227.50,-647.50,-297.50,1,95.745,
01/01/2000,01:14:18.67,21.11,-58.68,-993.08,148.75,-743.75,-437.50,1,95.833,
01/01/2000,01:14:18.68,20.98,-58.93,-993.08,131.25,-682.50,-420.0,1,95.918,
01/01/2000,01:14:18.70,20.74,-58.80,-992.84,166.25,-761.25,-332.50,1,96.0,
01/01/2000,01:14:18.71,20.74,-58.80,-992.84,105.0,-700.0,-280.0,1,96.078,
01/01/2000,01:14:18.72,20.74,-58.80,-992.84,183.75,-647.50,-297.50,1,94.340,
01/01/2000,01:14:18.73,20.98,-58.80,-992.84,131.25,-691.25,-350.0,1,94.444,
01/01/2000,01:14:18.74,20.98,-59.05,-992.84,175.0,-752.50,-437.50,1,94.545,
01/01/2000,01:14:18.75,20.98,-58.93,-992.84,52.50,-647.50,-411.25,1,94.643,
01/01/2000,01:14:18.77,20.98,-58.93,-993.08,175.0,-638.75,-437.50,1,94.737,
01/01/2000,01:14:18.78,21.11,-58.68,-993.08,245.0,-586.25,-271.25,1,94.828,
01/01/2000,01:14:18.79,20.98,-58.80,-993.08,201.25,-752.50,-288.75,1,94.915,
01/01/2000,01:14:18.80,20.98,-58.80,-993.08,148.75,-787.50,-306.25,1,95.0,
01/01/2000,01:14:18.81,20.98,-58.93,-992.84,166.25,-726.25,-376.25,1,95.082,
01/01/2000,01:14:18.82,20.98,-58.80,-992.84,192.50,-603.75,-280.0,1,95.161,
01/01/2000,01:14:18.83,20.98,-58.93,-992.84,183.75,-770.0,-341.25,1,95.238,
01/01/2000,01:14:18.84,21.11,-58.68,-992.96,122.50,-577.50,-280.0,1,95.313,
01/01/2000,01:14:18.85,20.98,-58.80,-993.08,297.50,-708.75,-245.0,1,95.385,
01/01/2000,01:14:18.86,20.98,-58.56,-992.84,245.0,-673.75,-446.25,1,95.455,
01/01/2000,01:14:18.87,21.11,-58.80,-992.96,227.50,-743.75,-411.25,1,95.522,
01/01/2000,01:14:18.88,21.11,-58.56,-992.96,113.75,-673.75,-262.50,1,95.588,
01/01/2000,01:14:18.89,21.23,-58.80,-992.84,201.25,-595.0,-402.50,1,95.652,
01/01/2000,01:14:18.90,21.11,-58.80,-992.84,201.25,-700.0,-323.75,1,95.714,
01/01/2000,01:14:18.91,20.98,-59.05,-992.96,210.0,-673.75,-297.50,1,95.775,
01/01/2000,01:14:18.92,20.98,-59.05,-992.96,140.0,-630.0,-358.75,1,95.833,
01/01/2000,01:14:18.93,20.98,-59.05,-992.96,210.0,-708.75,-358.75,1,95.890,
01/01/2000,01:14:18.94,20.98,-58.93,-992.84,96.25,-691.25,-280.0,1,95.946,
01/01/2000,01:14:18.95,20.86,-59.05,-992.84,227.50,-656.25,-315.0,1,96.0,
01/01/2000,01:14:18.96,20.98,-58.93,-992.96,113.75,-682.50,-297.50,1,96.053,
01/01/2000,01:14:18.98,20.86,-59.05,-993.08,227.50,-726.25,-420.0,1,94.872,
01/01/2000,01:14:18.99,20.98,-59.17,-993.08,201.25,-726.25,-297.50,1,94.937,
01/01/2000,01:14:19.00,21.11,-58.93,-993.08,201.25,-612.50,-341.25,1,95.0,
01/01/2000,01:14:19.01,20.98,-59.05,-993.08,175.0,-752.50,-280.0,1,95.062,
01/01/2000,01:14:19.02,20.98,-58.93,-992.96,87.50,-647.50,-358.75,1,95.122,
01/01/2000,01:14:19.03,21.11,-59.05,-992.96,166.25,-822.50,-385.0,1,95.181,
01/01/2000,01:14:19.04,21.11,-59.05,-993.08,210.0,-691.25,-323.75,1,95.238,
01/01/2000,01:14:19.05,20.98,-59.17,-993.08,245.0,-691.25,-323.75,1,95.294,
01/01/2000,01:14:19.06,20.86,-59.05,-993.08,122.50,-665.0,-306.25,1,95.349,
01/01/2000,01:14:19.07,20.98,-59.05,-993.08,148.75,-656.25,-323.75,1,95.402,
01/01/2000,01:14:19.08,20.98,-58.93,-993.20,113.75,-577.50,-332.50,1,95.455,
01/01/2000,01:14:19.09,21.11,-58.93,-993.20,183.75,-752.50,-262.50,1,95.506,
01/01/2000,01:14:19.10,21.11,-58.93,-993.20,210.0,-551.25,-341.25,1,95.556,
01/01/2000,01:14:19.11,20.98,-58.80,-992.84,113.75,-796.25,-323.75,1,94.565,
01/01/2000,01:14:19.12,20.98,-58.80,-992.84,148.75,-735.0,-315.0,1,94.624,
01/01/2000,01:14:19.13,20.98,-58.80,-992.96,288.75,-752.50,-315.0,1,94.681,
01/01/2000,01:14:19.14,20.98,-58.80,-993.08,70.0,-577.50,-271.25,1,94.737,
01/01/2000,01:14:19.15,20.98,-59.05,-993.08,131.25,-735.0,-376.25,1,94.792,
01/01/2000,01:14:19.16,20.86,-59.05,-992.96,148.75,-673.75,-262.50,1,94.845,
01/01/2000,01:14:19.17,20.86,-59.05,-992.96,157.50,-612.50,-446.25,1,94.898,
01/01/2000,01:14:19.19,20.98,-59.05,-992.96,253.75,-726.25,-271.25,1,94.949,
01/01/2000,01:14:19.20,20.98,-58.93,-993.08,183.75,-533.75,-402.50,1,95.0,
01/01/2000,01:14:19.21,20.86,-59.05,-993.08,253.75,-647.50,-455.0,1,95.050,
01/01/2000,01:14:19.22,20.86,-58.93,-993.20,175.0,-560.0,-332.50,1,95.098,
01/01/2000,01:14:19.23,20.98,-58.93,-993.08,8.75,-726.25,-306.25,1,95.146,
01/01/2000,01:14:19.24,21.11,-58.93,-993.08,8.75,-665.0,-332.50,1,94.286,
01/01/2000,01:14:19.25,21.11,-59.05,-993.08,113.75,-700.0,-376.25,1,94.340,
01/01/2000,01:14:19.26,20.98,-58.80,-992.96,122.50,-691.25,-306.25,1,94.393,
01/01/2000,01:14:19.27,20.98,-58.80,-992.96,288.75,-691.25,-315.0,1,94.444,
01/01/2000,01:14:19.28,21.11,-58.68,-993.08,96.25,-656.25,-332.50,1,94.495,
01/01/2000,01:14:19.29,21.11,-58.80,-992.96,148.75,-691.25,-437.50,1,94.545,
01/01/2000,01:14:19.30,20.98,-58.68,-992.84,78.75,-682.50,-280.0,1,94.595,
01/01/2000,01:14:19.31,20.98,-58.93,-992.84,148.75,-717.50,-402.50,1,94.643,
01/01/2000,01:14:19.33,20.98,-58.93,-992.84,148.75,-612.50,-280.0,1,94.690,
01/01/2000,01:14:19.34,20.98,-58.80,-992.84,253.75,-735.0,-428.75,1,94.737,
01/01/2000,01:14:19.35,20.98,-58.80,-992.59,245.0,-813.75,-315.0,1,94.783,
01/01/2000,01:14:19.36,20.98,-58.93,-992.59,61.25,-612.50,-262.50,1,94.828,
01/01/2000,01:14:19.37,20.98,-58.93,-992.84,122.50,-682.50,-420.0,1,94.872,
01/01/2000,01:14:19.38,21.23,-58.93,-992.96,175.0,-717.50,-402.50,1,94.915,
01/01/2000,01:14:19.39,21.23,-59.05,-993.08,131.25,-673.75,-350.0,1,94.958,
01/01/2000,01:14:19.40,20.98,-59.05,-992.96,148.75,-656.25,-428.75,1,95.0,
01/01/2000,01:14:19.41,20.74,-58.93,-992.84,157.50,-682.50,-411.25,1,95.041,
01/01/2000,01:14:19.42,20.98,-58.80,-993.08,52.50,-708.75,-350.0,1,95.082,
01/01/2000,01:14:19.43,21.11,-58.80,-993.32,105.0,-708.75,-245.0,1,95.122,
01/01/2000,01:14:19.44,21.11,-59.29,-993.20,157.50,-665.0,-367.50,1,95.161,
01/01/2000,01:14:19.45,20.86,-59.41,-992.71,131.25,-717.50,-367.50,1,95.200,
01/01/2000,01:14:19.46,20.74,-59.29,-992.59,253.75,-726.25,-315.0,1,95.238,
01/01/2000,01:14:19.47,21.23,-58.80,-992.71,61.25,-682.50,-393.75,1,94.531,
01/01/2000,01:14:19.48,21.47,-58.80,-992.84,131.25,-726.25,-183.75,1,94.574,
01/01/2000,01:14:19.49,21.11,-59.05,-992.84,43.75,-770.0,-157.50,1,94.615,
01/01/2000,01:14:19.50,20.50,-59.29,-992.59,253.75,-621.25,-402.50,1,94.656,
01/01/2000,01:14:19.51,20.62,-59.29,-992.84,148.75,-726.25,-568.75,1,94.697,
01/01/2000,01:14:19.52,21.35,-58.80,-993.08,96.25,-691.25,-586.25,1,94.737,
01/01/2000,01:14:19.54,21.23,-58.68,-992.84,218.75,-691.25,43.75,1,94.776,
01/01/2000,01:14:19.55,20.86,-58.80,-992.71,192.50,-787.50,-43.75,1,94.815,
01/01/2000,01:14:19.56,20.74,-59.17,-992.59,175.0,-787.50,-577.50,1,94.853,
01/01/2000,01:14:19.57,20.98,-59.05,-993.08,140.0,-717.50,-586.25,1,94.891,
01/01/2000,01:14:19.58,21.23,-58.80,-993.32,253.75,-647.50,-245.0,1,94.928,
01/01/2000,01:14:19.59,21.23,-58.80,-993.08,131.25,-752.50,-227.50,1,94.964,
01/01/2000,01:14:19.60,20.98,-58.93,-992.59,148.75,-638.75,-288.75,1,95.0,
01/01/2000,01:14:19.61,20.98,-59.17,-992.71,210.0,-708.75,-428.75,1,95.035,
01/01/2000,01:14:19.62,20.98,-59.41,-993.20,113.75,-700.0,-385.0,1,95.070,
01/01/2000,01:14:19.63,21.23,-59.17,-993.32,166.25,-805.0,-245.0,1,95.105,
01/01/2000,01:14:19.64,21.23,-58.80,-993.08,166.25,-665.0,-297.50,1,95.139,
01/01/2000,01:14:19.65,20.86,-58.80,-992.59,148.75,-630.0,-236.25,1,95.172,
01/01/2000,01:14:19.66,20.74,-58.93,-992.59,262.50,-708.75,-385.0,1,95.205,
01/01/2000,01:14:19.67,20.86,-59.05,-993.08,192.50,-717.50,-341.25,1,95.238,
01/01/2000,01:14:19.68,21.23,-59.05,-993.32,201.25,-542.50,-306.25,1,94.631,
01/01/2000,01:14:19.69,20.98,-58.93,-992.96,131.25,-743.75,-376.25,1,94.667,
01/01/2000,01:14:19.70,20.86,-58.93,-992.84,175.0,-708.75,-323.75,1,94.702,
01/01/2000,01:14:19.71,20.74,-58.93,-992.71,157.50,-761.25,-341.25,1,94.737,
01/01/2000,01:14:19.72,20.86,-59.05,-993.08,175.0,-665.0,-323.75,1,94.771,
01/01/2000,01:14:19.73,20.98,-59.17,-993.20,113.75,-787.50,-280.0,1,94.805,
01/01/2000,01:14:19.75,20.74,-59.41,-992.71,271.25,-752.50,-376.25,1,94.231,
01/01/2000,01:14:19.76,20.74,-59.05,-992.59,131.25,-700.0,-323.75,1,94.268,
01/01/2000,01:14:19.77,20.86,-59.05,-992.84,271.25,-743.75,-350.0,1,94.304,
01/01/2000,01:14:19.78,21.11,-58.93,-993.20,52.50,-612.50,-253.75,1,94.340,
01/01/2000,01:14:19.79,20.98,-59.29,-993.08,175.0,-595.0,-358.75,1,94.375,
01/01/2000,01:14:19.80,20.98,-59.29,-992.71,61.25,-621.25,-297.50,1,94.410,
01/01/2000,01:14:19.81,20.98,-59.17,-992.59,227.50,-717.50,-341.25,1,94.444,
01/01/2000,01:14:19.83,21.23,-58.80,-992.71,166.25,-612.50,-271.25,1,94.479,
01/01/2000,01:14:19.84,21.47,-58.93,-992.96,227.50,-656.25,-280.0,1,94.512,
01/01/2000,01:14:19.85,21.23,-58.93,-993.08,96.25,-691.25,-280.0,1,94.545,
01/01/2000,01:14:19.86,21.23,-59.05,-992.84,166.25,-621.25,-350.0,1,94.578,
01/01/2000,01:14:19.87,20.98,-59.05,-992.35,236.25,-700.0,-288.75,1,94.611,
01/01/2000,01:14:19.88,21.23,-59.05,-992.59,157.50,-630.0,-411.25,1,94.643,
01/01/2000,01:14:19.89,21.47,-59.05,-992.59,201.25,-656.25,-341.25,1,94.675,
01/01/2000,01:14:19.90,21.23,-59.29,-992.71,245.0,-752.50,-288.75,1,94.706,
01/01/2000,01:14:19.91,21.11,-59.29,-992.59,183.75,-691.25,-420.0,1,94.737,
01/01/2000,01:14:19.92,20.98,-59.29,-992.59,70.0,-682.50,-350.0,1,94.767,
01/01/2000,01:14:19.93,21.23,-59.05,-992.59,201.25,-665.0,-341.25,1,94.798,
01/01/2000,01:14:19.94,21.23,-58.93,-992.47,96.25,-761.25,-288.75,1,94.828,
01/01/2000,01:14:19.95,20.98,-59.29,-992.47,262.50,-752.50,-297.50,1,94.857,
01/01/2000,01:14:19.96,20.98,-59.29,-992.71,306.25,-735.0,-498.75,1,94.350,
01/01/2000,01:14:19.97,21.23,-58.93,-992.84,78.75,-717.50,-411.25,1,94.382,
01/01/2000,01:14:19.98,21.47,-58.80,-992.96,227.50,-700.0,-192.50,1,94.413,
01/01/2000,01:14:19.99,21.11,-58.80,-992.84,131.25,-743.75,-323.75,1,94.444,
01/01/2000,01:14:20.00,20.74,-59.17,-992.35,122.50,-787.50,-420.0,1,94.475,
01/01/2000,01:14:20.01,20.74,-59.05,-992.47,148.75,-761.25,-367.50,1,94.505,
01/01/2000,01:14:20.02,21.11,-58.93,-992.71,17.50,-612.50,-376.25,1,94.536,
01/01/2000,01:14:20.04,21.23,-58.93,-992.84,61.25,-735.0,-271.25,1,94.565,
01/01/2000,01:14:20.05,20.98,-58.93,-992.59,192.50,-665.0,-332.50,1,94.595,
01/01/2000,01:14:20.06,20.98,-59.05,-992.47,183.75,-831.25,-358.75,1,94.624,
01/01/2000,01:14:20.07,21.11,-58.93,-992.71,96.25,-665.0,-402.50,1,94.652,
01/01/2000,01:14:20.08,21.35,-58.80,-992.96,122.50,-717.50,-210.0,1,94.681,
01/01/2000,01:14:20.09,21.35,-59.05,-992.84,192.50,-726.25,-323.75,1,94.709,
01/01/2000,01:14:20.10,21.11,-59.05,-992.59,131.25,-656.25,-306.25,1,94.737,
01/01/2000,01:14:20.11,20.98,-59.17,-992.59,148.75,-840.0,-341.25,1,94.764,
01/01/2000,01:14:20.12,21.23,-59.17,-992.84,175.0,-778.75,-315.0,1,94.792,
01/01/2000,01:14:20.13,21.23,-59.05,-992.84,61.25,-673.75,-332.50,1,94.819,
01/01/2000,01:14:20.14,21.11,-59.05,-992.84,227.50,-717.50,-297.50,1,94.845,
01/01/2000,01:14:20.15,20.98,-59.17,-992.71,183.75,-647.50,-393.75,1,94.872,
01/01/2000,01:14:20.16,20.98,-59.17,-992.71,122.50,-691.25,-393.75,1,94.898,
01/01/2000,01:14:20.17,20.98,-59.05,-992.84,166.25,-717.50,-341.25,1,94.444,
01/01/2000,01:14:20.18,20.86,-58.93,-992.84,166.25,-691.25,-315.0,1,94.472,
01/01/2000,01:14:20.19,20.74,-58.93,-992.71,35.0,-647.50,-402.50,1,94.500,
01/01/2000,01:14:20.21,20.74,-59.05,-992.59,113.75,-656.25,-358.75,1,94.527,
01/01/2000,01:14:20.21,20.98,-59.05,-992.59,183.75,-743.75,-315.0,1,94.554,
01/01/2000,01:14:20.23,21.11,-59.05,-992.84,140.0,-752.50,-332.50,1,94.581,
01/01/2000,01:14:20.24,21.11,-59.05,-992.71,210.0,-708.75,-288.75,1,94.608,
01/01/2000,01:14:20.25,20.74,-59.17,-992.59,131.25,-682.50,-411.25,1,94.634,
01/01/2000,01:14:20.26,20.62,-59.05,-992.59,105.0,-761.25,-420.0,1,94.203,
01/01/2000,01:14:20.27,20.86,-59.05,-992.71,227.50,-735.0,-323.75,1,94.231,
01/01/2000,01:14:20.28,20.98,-59.05,-992.84,96.25,-691.25,-323.75,1,94.258,
01/01/2000,01:14:20.29,20.98,-59.05,-992.84,183.75,-673.75,-315.0,1,94.286,
01/01/2000,01:14:20.30,20.86,-59.17,-992.71,131.25,-665.0,-446.25,1,94.313,
01/01/2000,01:14:20.32,20.98,-58.93,-992.59,166.25,-726.25,-341.25,1,94.340,
01/01/2000,01:14:20.33,20.98,-58.80,-992.59,236.25,-656.25,-262.50,1,94.366,
01/01/2000,01:14:20.34,20.98,-58.80,-992.59,148.75,-700.0,-218.75,1,94.393,
01/01/2000,01:14:20.35,21.11,-58.93,-992.84,175.0,-691.25,-245.0,1,94.419,
01/01/2000,01:14:20.36,21.11,-59.05,-992.84,96.25,-735.0,-498.75,1,94.444,
01/01/2000,01:14:20.37,20.98,-59.05,-992.71,227.50,-700.0,-297.50,1,94.470,
01/01/2000,01:14:20.38,21.23,-58.80,-992.59,78.75,-691.25,-385.0,1,94.495,
01/01/2000,01:14:20.39,20.98,-58.93,-992.47,210.0,-691.25,-306.25,1,94.521,
01/01/2000,01:14:20.40,20.98,-58.80,-992.47,17.50,-577.50,-376.25,1,94.545,
01/01/2000,01:14:20.41,20.98,-59.05,-992.59,157.50,-682.50,-332.50,1,94.570,
01/01/2000,01:14:20.42,20.98,-59.05,-992.71,61.25,-726.25,-385.0,1,94.595,
01/01/2000,01:14:20.43,20.98,-59.17,-992.59,96.25,-770.0,-376.25,1,94.619,
01/01/2000,01:14:20.44,20.98,-59.05,-992.47,201.25,-691.25,-288.75,1,94.643,
01/01/2000,01:14:20.45,20.98,-58.93,-992.59,113.75,-778.75,-402.50,1,94.667,
01/01/2000,01:14:20.46,20.74,-59.05,-992.84,175.0,-630.0,-323.75,1,94.690,
01/01/2000,01:14:20.47,20.74,-58.93,-992.96,70.0,-813.75,-367.50,1,94.714,
01/01/2000,01:14:20.48,20.98,-58.80,-992.96,96.25,-612.50,-271.25,1,94.737,
01/01/2000,01:14:20.49,20.86,-59.05,-992.96,131.25,-638.75,-341.25,1,94.348,
01/01/2000,01:14:20.50,20.86,-59.05,-992.96,122.50,-708.75,-402.50,1,94.783,
01/01/2000,01:14:20.51,20.86,-59.17,-993.08,227.50,-682.50,-376.25,1,94.397,
01/01/2000,01:14:20.53,21.23,-59.05,-992.96,148.75,-673.75,-323.75,1,94.421,
01/01/2000,01:14:20.54,21.11,-59.05,-992.96,70.0,-665.0,-323.75,1,94.444,
01/01/2000,01:14:20.55,20.86,-59.29,-992.59,201.25,-691.25,-385.0,1,94.468,
01/01/2000,01:14:20.56,20.86,-59.29,-992.59,183.75,-647.50,-385.0,1,94.492,
01/01/2000,01:14:20.57,20.98,-59.29,-992.71,271.25,-586.25,-358.75,1,94.515,
01/01/2000,01:14:20.58,20.98,-59.17,-992.84,218.75,-673.75,-210.0,1,94.538,
01/01/2000,01:14:20.59,20.98,-59.05,-992.84,140.0,-630.0,-385.0,1,94.561,
01/01/2000,01:14:20.60,20.98,-59.05,-992.59,201.25,-726.25,-376.25,1,94.583,
01/01/2000,01:14:20.61,20.98,-59.05,-992.84,218.75,-700.0,-323.75,1,94.606,
01/01/2000,01:14:20.62,21.11,-59.05,-992.96,113.75,-691.25,-306.25,1,94.628,
01/01/2000,01:14:20.63,21.23,-59.05,-992.96,218.75,-691.25,-262.50,1,94.650,
01/01/2000,01:14:20.64,20.98,-59.05,-992.84,61.25,-682.50,-367.50,1,94.672,
01/01/2000,01:14:20.65,20.98,-59.05,-992.59,297.50,-577.50,-306.25,1,94.694,
01/01/2000,01:14:20.66,20.98,-59.05,-992.59,78.75,-691.25,-341.25,1,94.715,
01/01/2000,01:14:20.67,20.86,-59.05,-992.84,253.75,-630.0,-288.75,1,94.355,
01/01/2000,01:14:20.68,20.86,-59.17,-993.08,201.25,-542.50,-437.50,1,94.378,
01/01/2000,01:14:20.69,20.86,-59.29,-992.96,131.25,-638.75,-341.25,1,94.400,
01/01/2000,01:14:20.70,20.98,-59.29,-992.96,140.0,-665.0,-376.25,1,94.422,
01/01/2000,01:14:20.71,20.98,-59.05,-992.96,192.50,-586.25,-367.50,1,94.444,
01/01/2000,01:14:20.72,20.98,-59.05,-993.08,306.25,-735.0,-306.25,1,94.466,
01/01/2000,01:14:20.74,20.98,-58.93,-993.08,96.25,-848.75,-245.0,1,94.488,
01/01/2000,01:14:20.75,20.98,-59.05,-993.08,183.75,-717.50,-236.25,1,94.510,
01/01/2000,01:14:20.76,20.86,-59.05,-993.08,113.75,-787.50,-332.50,1,94.531,
01/01/2000,01:14:20.77,20.98,-58.80,-993.08,192.50,-682.50,-446.25,1,94.186,
01/01/2000,01:14:20.78,20.98,-58.80,-993.32,236.25,-656.25,-323.75,1,94.208,
01/01/2000,01:14:20.79,20.98,-58.93,-993.20,140.0,-630.0,-306.25,1,94.231,
01/01/2000,01:14:20.80,20.98,-59.05,-993.08,183.75,-630.0,-420.0,1,94.253,
01/01/2000,01:14:20.82,20.86,-59.05,-992.96,192.50,-665.0,-306.25,1,94.275,
01/01/2000,01:14:20.83,20.98,-59.05,-993.08,280.0,-691.25,-297.50,1,94.297,
01/01/2000,01:14:20.84,20.86,-59.05,-993.08,70.0,-621.25,-358.75,1,94.318,
01/01/2000,01:14:20.85,20.74,-59.05,-993.08,35.0,-603.75,-420.0,1,94.340,
01/01/2000,01:14:20.86,20.74,-59.05,-993.08,218.75,-700.0,-411.25,1,94.361,
01/01/2000,01:14:20.87,20.74,-59.05,-993.08,157.50,-726.25,-201.25,1,94.382,
01/01/2000,01:14:20.88,20.98,-59.05,-993.20,43.75,-603.75,-428.75,1,94.403,
01/01/2000,01:14:20.89,20.98,-59.05,-993.20,175.0,-717.50,-253.75,1,94.424,
01/01/2000,01:14:20.90,20.98,-59.05,-993.08,166.25,-787.50,-367.50,1,94.444,
01/01/2000,01:14:20.91,20.98,-59.29,-993.08,148.75,-743.75,-393.75,1,94.465,
01/01/2000,01:14:20.92,20.86,-59.29,-993.20,122.50,-700.0,-297.50,1,94.485,
01/01/2000,01:14:20.93,21.23,-59.17,-993.45,210.0,-630.0,-323.75,1,94.505,
01/01/2000,01:14:20.94,21.23,-59.05,-993.32,87.50,-673.75,-297.50,1,94.526,
01/01/2000,01:14:20.95,21.23,-59.17,-993.08,78.75,-717.50,-367.50,1,94.545,
01/01/2000,01:14:20.96,20.98,-59.17,-992.96,113.75,-726.25,-280.0,1,94.565,
01/01/2000,01:14:20.97,21.11,-59.29,-993.20,288.75,-630.0,-402.50,1,94.585,
01/01/2000,01:14:20.98,21.11,-59.29,-993.45,131.25,-857.50,-358.75,1,94.604,
01/01/2000,01:14:20.99,20.98,-59.41,-993.45,131.25,-577.50,-341.25,1,94.624,
01/01/2000,01:14:21.00,20.86,-59.54,-993.32,113.75,-638.75,-271.25,1,94.643,
01/01/2000,01:14:21.01,20.74,-59.54,-993.32,271.25,-743.75,-306.25,1,94.662,
01/01/2000,01:14:21.03,20.98,-59.29,-993.32,113.75,-735.0,-358.75,1,94.346,
01/01/2000,01:14:21.04,20.98,-59.29,-993.57,192.50,-621.25,-253.75,1,94.366,
01/01/2000,01:14:21.05,20.86,-59.17,-993.45,87.50,-735.0,-280.0,1,94.386,
01/01/2000,01:14:21.06,20.86,-59.17,-993.45,131.25,-717.50,-411.25,1,94.406,
01/01/2000,01:14:21.07,20.86,-59.05,-993.57,166.25,-577.50,-376.25,1,94.425,
01/01/2000,01:14:21.08,20.74,-59.05,-993.57,175.0,-673.75,-280.0,1,94.444,
01/01/2000,01:14:21.09,20.86,-59.05,-993.69,122.50,-638.75,-315.0,1,94.464,
01/01/2000,01:14:21.10,20.86,-59.29,-993.32,148.75,-673.75,-376.25,1,94.483,
01/01/2000,01:14:21.11,20.86,-59.29,-993.20,122.50,-770.0,-271.25,1,94.502,
01/01/2000,01:14:21.12,20.98,-59.17,-993.20,218.75,-761.25,-367.50,1,94.521,
01/01/2000,01:14:21.13,20.98,-59.05,-993.32,122.50,-691.25,-332.50,1,94.539,
01/01/2000,01:14:21.14,20.74,-58.93,-993.57,201.25,-682.50,-315.0,1,94.558,
01/01/2000,01:14:21.15,20.50,-59.05,-993.32,192.50,-726.25,-411.25,1,94.576,
01/01/2000,01:14:21.16,20.74,-59.17,-993.32,52.50,-717.50,-306.25,1,94.276,
01/01/2000,01:14:21.17,20.86,-59.05,-993.45,236.25,-770.0,-245.0,1,94.295,
01/01/2000,01:14:21.18,20.74,-59.05,-993.57,157.50,-682.50,-262.50,1,94.314,
01/01/2000,01:14:21.19,20.74,-59.05,-993.45,210.0,-647.50,-367.50,1,94.333,
01/01/2000,01:14:21.20,20.74,-58.93,-993.45,183.75,-708.75,-385.0,1,94.352,
01/01/2000,01:14:21.21,20.86,-58.93,-993.45,175.0,-761.25,-411.25,1,94.371,
01/01/2000,01:14:21.22,20.98,-58.93,-993.45,122.50,-647.50,-498.75,1,94.389,
01/01/2000,01:14:21.24,20.98,-59.17,-993.45,122.50,-717.50,-288.75,1,94.408,
01/01/2000,01:14:21.25,20.98,-59.17,-993.32,157.50,-708.75,-341.25,1,94.426,
01/01/2000,01:14:21.26,20.98,-59.29,-993.32,96.25,-726.25,-428.75,1,94.444,
01/01/2000,01:14:21.27,20.98,-59.29,-993.57,271.25,-638.75,-245.0,1,94.463,
01/01/2000,01:14:21.28,20.98,-59.29,-993.45,8.75,-708.75,-385.0,1,94.175,
01/01/2000,01:14:21.29,20.98,-59.17,-993.20,17.50,-691.25,-472.50,1,94.194,
01/01/2000,01:14:21.30,20.74,-59.05,-993.20,192.50,-656.25,-297.50,1,94.212,
01/01/2000,01:14:21.31,20.74,-59.17,-993.32,166.25,-586.25,-332.50,1,94.231,
01/01/2000,01:14:21.33,20.86,-59.17,-993.45,210.0,-656.25,-376.25,1,94.249,
01/01/2000,01:14:21.33,20.98,-59.29,-993.20,157.50,-700.0,-332.50,1,94.268,
01/01/2000,01:14:21.35,20.86,-59.17,-993.08,157.50,-735.0,-306.25,1,94.286,
01/01/2000,01:14:21.36,20.86,-59.05,-993.08,61.25,-761.25,-332.50,1,94.304,
01/01/2000,01:14:21.37,20.98,-59.17,-993.20,140.0,-717.50,-350.0,1,94.322,
01/01/2000,01:14:21.38,21.23,-59.17,-993.32,122.50,-770.0,-420.0,1,94.340,
01/01/2000,01:14:21.39,21.11,-59.29,-993.08,183.75,-726.25,-280.0,1,94.357,
01/01/2000,01:14:21.40,20.98,-59.17,-993.08,140.0,-700.0,-332.50,1,94.375,
01/01/2000,01:14:21.41,20.98,-59.17,-993.08,113.75,-770.0,-280.0,1,94.393,
01/01/2000,01:14:21.42,20.98,-59.05,-993.08,148.75,-726.25,-245.0,1,94.410,
01/01/2000,01:14:21.43,20.98,-59.05,-993.08,148.75,-735.0,-280.0,1,94.427,
01/01/2000,01:14:21.44,20.98,-59.05,-993.20,236.25,-805.0,-393.75,1,94.444,
01/01/2000,01:14:21.45,21.11,-59.05,-993.08,131.25,-638.75,-358.75,1,94.462,
01/01/2000,01:14:21.46,21.11,-58.93,-992.84,140.0,-647.50,-341.25,1,94.479,
01/01/2000,01:14:21.47,21.23,-58.93,-992.96,122.50,-673.75,-332.50,1,94.495,
01/01/2000,01:14:21.48,21.23,-58.93,-992.96,140.0,-770.0,-332.50,1,94.512,
01/01/2000,01:14:21.49,21.23,-58.80,-992.96,236.25,-647.50,-358.75,1,94.529,
01/01/2000,01:14:21.50,21.11,-58.93,-992.96,192.50,-752.50,-367.50,1,94.545,
01/01/2000,01:14:21.51,20.98,-58.68,-993.08,61.25,-595.0,-315.0,1,94.277,
01/01/2000,01:14:21.52,20.86,-58.68,-992.96,122.50,-726.25,-315.0,1,94.294,
01/01/2000,01:14:21.54,20.86,-58.80,-992.84,131.25,-673.75,-420.0,1,94.311,
01/01/2000,01:14:21.54,20.86,-58.80,-992.84,140.0,-717.50,-455.0,1,94.328,
01/01/2000,01:14:21.56,20.86,-58.80,-992.84,192.50,-787.50,-315.0,1,94.345,
01/01/2000,01:14:21.57,20.74,-58.80,-992.84,157.50,-726.25,-393.75,1,94.362,
01/01/2000,01:14:21.58,20.86,-58.80,-992.59,140.0,-595.0,-262.50,1,94.379,
01/01/2000,01:14:21.59,20.74,-59.05,-992.47,35.0,-691.25,-315.0,1,94.395,
01/01/2000,01:14:21.60,20.98,-59.17,-992.59,297.50,-787.50,-393.75,1,94.412,
01/01/2000,01:14:21.61,21.11,-58.93,-992.59,140.0,-525.0,-306.25,1,94.428,
01/01/2000,01:14:21.62,21.23,-58.80,-992.59,52.50,-656.25,-288.75,1,94.444,
01/01/2000,01:14:21.63,21.11,-58.68,-992.71,131.25,-778.75,-437.50,1,94.461,
01/01/2000,01:14:21.64,21.11,-58.80,-992.84,113.75,-682.50,-385.0,1,94.477,
01/01/2000,01:14:21.65,21.23,-58.93,-992.96,183.75,-568.75,-332.50,1,94.493,
01/01/2000,01:14:21.66,21.47,-59.05,-993.08,148.75,-700.0,-350.0,1,94.236,
01/01/2000,01:14:21.67,21.35,-58.80,-992.84,122.50,-717.50,-306.25,1,94.253,
01/01/2000,01:14:21.68,21.23,-58.93,-992.84,175.0,-630.0,-455.0,1,94.269,
01/01/2000,01:14:21.69,21.23,-58.80,-992.96,8.75,-787.50,-315.0,1,94.286,
01/01/2000,01:14:21.70,21.35,-59.05,-992.84,201.25,-691.25,-358.75,1,94.302,
01/01/2000,01:14:21.71,21.35,-58.93,-992.84,201.25,-673.75,-315.0,1,94.318,
01/01/2000,01:14:21.73,21.23,-58.93,-992.71,131.25,-673.75,-271.25,1,94.334,
01/01/2000,01:14:21.74,21.23,-58.80,-992.59,122.50,-708.75,-376.25,1,94.350,
01/01/2000,01:14:21.75,21.35,-58.80,-992.71,175.0,-726.25,-393.75,1,94.366,
01/01/2000,01:14:21.76,21.23,-59.05,-992.71,105.0,-840.0,-227.50,1,94.382,
01/01/2000,01:14:21.77,21.23,-58.80,-992.71,183.75,-638.75,-341.25,1,94.398,
01/01/2000,01:14:21.78,21.23,-58.93,-992.71,70.0,-586.25,-341.25,1,94.413,
01/01/2000,01:14:21.79,21.23,-58.68,-992.84,35.0,-665.0,-315.0,1,94.167,
01/01/2000,01:14:21.81,21.23,-58.80,-992.84,113.75,-761.25,-350.0,1,94.183,
01/01/2000,01:14:21.82,21.23,-58.80,-992.84,78.75,-682.50,-323.75,1,94.199,
01/01/2000,01:14:21.83,21.23,-58.93,-992.84,157.50,-630.0,-358.75,1,94.215,
01/01/2000,01:14:21.84,21.23,-59.05,-992.96,140.0,-516.25,-288.75,1,94.231,
01/01/2000,01:14:21.85,21.11,-59.05,-993.08,122.50,-691.25,-385.0,1,94.247,
01/01/2000,01:14:21.86,21.23,-58.93,-992.96,105.0,-726.25,-297.50,1,94.262,
01/01/2000,01:14:21.87,21.11,-58.80,-992.84,297.50,-717.50,-288.75,1,94.278,
01/01/2000,01:14:21.88,21.11,-58.80,-992.71,140.0,-708.75,-358.75,1,94.293,
01/01/2000,01:14:21.89,20.98,-59.05,-992.84,113.75,-735.0,-533.75,1,94.309,
01/01/2000,01:14:21.90,20.98,-58.93,-992.96,61.25,-708.75,-253.75,1,94.324,
01/01/2000,01:14:21.91,21.23,-59.05,-992.84,166.25,-673.75,-306.25,1,94.340,
01/01/2000,01:14:21.92,21.11,-59.05,-992.71,-8.75,-700.0,-358.75,1,94.355,
01/01/2000,01:14:21.93,20.98,-59.29,-992.59,148.75,-665.0,-455.0,1,94.370,
01/01/2000,01:14:21.94,21.23,-59.05,-992.71,87.50,-595.0,-253.75,1,94.133,
01/01/2000,01:14:21.95,21.35,-59.29,-992.84,288.75,-787.50,-332.50,1,94.149,
01/01/2000,01:14:21.96,20.98,-59.29,-992.59,192.50,-717.50,-280.0,1,94.164,
01/01/2000,01:14:21.97,20.74,-59.29,-992.23,70.0,-726.25,-411.25,1,94.180,
01/01/2000,01:14:21.98,20.74,-59.29,-992.23,227.50,-726.25,-358.75,1,94.195,
01/01/2000,01:14:21.99,20.98,-58.80,-992.71,35.0,-752.50,-280.0,1,94.211,
01/01/2000,01:14:22.00,21.11,-59.05,-992.84,26.25,-805.0,-87.50,1,94.226,
01/01/2000,01:14:22.02,20.74,-59.17,-992.47,166.25,-621.25,-385.0,1,94.241,
01/01/2000,01:14:22.03,20.74,-59.17,-992.23,113.75,-691.25,-358.75,1,94.256,
01/01/2000,01:14:22.04,20.98,-59.05,-992.35,166.25,-735.0,-332.50,1,94.271,
01/01/2000,01:14:22.05,21.23,-58.93,-992.59,78.75,-682.50,-315.0,1,94.286,
01/01/2000,01:14:22.06,21.23,-58.93,-992.47,131.25,-612.50,-306.25,1,94.301,
01/01/2000,01:14:22.07,20.86,-58.93,-992.23,122.50,-638.75,-315.0,1,94.315,
01/01/2000,01:14:22.08,20.74,-59.05,-992.10,140.0,-691.25,-350.0,1,94.330,
01/01/2000,01:14:22.09,21.23,-58.80,-992.47,140.0,-761.25,-367.50,1,94.344,
01/01/2000,01:14:22.10,21.47,-58.56,-992.71,43.75,-665.0,-227.50,1,94.359,
01/01/2000,01:14:22.11,21.23,-58.93,-992.23,210.0,-656.25,-323.75,1,94.373,
01/01/2000,01:14:22.12,20.74,-59.05,-991.86,166.25,-673.75,-393.75,1,94.388,
01/01/2000,01:14:22.13,20.86,-59.05,-992.10,-17.50,-700.0,-507.50,1,94.402,
01/01/2000,01:14:22.14,21.23,-58.80,-992.59,87.50,-778.75,-271.25,1,94.416,
01/01/2000,01:14:22.15,21.47,-58.80,-992.84,218.75,-726.25,-306.25,1,94.192,
01/01/2000,01:14:22.16,20.98,-59.05,-992.23,210.0,-708.75,-218.75,1,94.207,
01/01/2000,01:14:22.17,20.86,-58.93,-991.74,218.75,-647.50,-463.75,1,94.221,
01/01/2000,01:14:22.19,21.11,-58.68,-992.10,70.0,-595.0,-455.0,1,94.236,
01/01/2000,01:14:22.19,21.47,-58.56,-992.59,140.0,-743.75,-288.75,1,94.250,
01/01/2000,01:14:22.21,21.35,-58.68,-992.59,87.50,-743.75,-271.25,1,94.264,
01/01/2000,01:14:22.22,20.98,-59.05,-991.98,113.75,-551.25,-341.25,1,94.279,
01/01/2000,01:14:22.23,20.74,-59.05,-991.86,87.50,-708.75,-393.75,1,94.293,
01/01/2000,01:14:22.24,21.11,-58.68,-992.47,183.75,-612.50,-402.50,1,94.307,
01/01/2000,01:14:22.25,21.47,-58.68,-992.71,218.75,-796.25,-280.0,1,94.321,
01/01/2000,01:14:22.26,21.11,-58.93,-992.59,201.25,-735.0,-271.25,1,94.335,
01/01/2000,01:14:22.27,20.74,-59.05,-991.86,131.25,-673.75,-428.75,1,94.349,
01/01/2000,01:14:22.28,20.74,-58.93,-992.10,192.50,-708.75,-533.75,1,94.363,
01/01/2000,01:14:22.29,21.23,-58.56,-992.47,61.25,-656.25,-367.50,1,94.377,
01/01/2000,01:14:22.31,20.86,-58.80,-992.84,-96.25,-621.25,140.0,1,94.161,
01/01/2000,01:14:22.32,21.23,-58.93,-992.35,-131.25,-691.25,-927.50,1,94.175,
01/01/2000,01:14:22.33,20.86,-59.41,-992.35,516.25,-971.25,-306.25,1,94.189,
01/01/2000,01:14:22.34,21.47,-58.68,-992.71,-227.50,-568.75,-437.50,1,94.203,
01/01/2000,01:14:22.35,20.98,-59.29,-993.32,385.0,-726.25,-96.25,1,94.217,
01/01/2000,01:14:22.36,21.59,-58.68,-993.20,78.75,-647.50,-393.75,1,94.231,
01/01/2000,01:14:22.37,21.23,-58.80,-992.59,245.0,-638.75,-131.25,1,94.245,
01/01/2000,01:14:22.38,20.74,-59.05,-992.59,-78.75,-638.75,-192.50,1,94.258,
01/01/2000,01:14:22.39,21.11,-59.05,-992.71,236.25,-691.25,-533.75,1,94.272,
01/01/2000,01:14:22.40,21.47,-59.29,-993.08,210.0,-735.0,-201.25,1,94.286,
01/01/2000,01:14:22.41,21.35,-59.05,-993.32,35.0,-691.25,-332.50,1,94.299,
01/01/2000,01:14:22.42,20.86,-59.05,-993.08,166.25,-735.0,-332.50,1,94.313,
01/01/2000,01:14:22.43,20.98,-58.80,-992.59,148.75,-630.0,-481.25,1,94.326,
01/01/2000,01:14:22.44,21.11,-58.80,-992.84,262.50,-647.50,-323.75,1,94.118,
01/01/2000,01:14:22.45,21.23,-58.93,-993.20,140.0,-752.50,-262.50,1,94.131,
01/01/2000,01:14:22.46,21.23,-59.17,-993.32,297.50,-656.25,-350.0,1,94.145,
01/01/2000,01:14:22.47,21.11,-59.29,-993.20,122.50,-726.25,-350.0,1,94.159,
01/01/2000,01:14:22.48,20.98,-59.17,-992.96,218.75,-691.25,-376.25,1,94.172,
01/01/2000,01:14:22.49,20.98,-59.05,-993.08,113.75,-743.75,-358.75,1,94.186,
01/01/2000,01:14:22.51,21.35,-58.93,-993.32,113.75,-717.50,-288.75,1,94.200,
01/01/2000,01:14:22.52,21.11,-59.05,-993.08,236.25,-586.25,-306.25,1,94.213,
01/01/2000,01:14:22.53,20.86,-59.29,-992.71,148.75,-717.50,-332.50,1,94.226,
01/01/2000,01:14:22.54,20.98,-59.05,-992.59,140.0,-726.25,-385.0,1,94.240,
01/01/2000,01:14:22.55,21.35,-58.93,-992.84,140.0,-708.75,-315.0,1,94.253,
01/01/2000,01:14:22.56,21.35,-58.93,-992.84,122.50,-770.0,-271.25,1,94.266,
01/01/2000,01:14:22.57,21.11,-59.05,-992.84,262.50,-665.0,-428.75,1,94.279,
01/01/2000,01:14:22.58,20.98,-59.05,-992.59,157.50,-638.75,-358.75,1,94.292,
01/01/2000,01:14:22.59,21.11,-59.17,-992.47,157.50,-673.75,-297.50,1,94.305,
01/01/2000,01:14:22.60,21.11,-59.05,-992.84,26.25,-743.75,-227.50,1,94.318,
01/01/2000,01:14:22.61,21.11,-59.05,-992.71,105.0,-691.25,-323.75,1,94.331,
01/01/2000,01:14:22.62,20.98,-59.05,-992.59,227.50,-665.0,-323.75,1,94.344,
01/01/2000,01:14:22.63,20.98,-59.05,-992.59,8.75,-665.0,-332.50,1,94.357,
01/01/2000,01:14:22.64,20.86,-59.17,-992.59,131.25,-708.75,-393.75,1,94.369,
01/01/2000,01:14:22.65,21.23,-59.05,-992.84,113.75,-761.25,-323.75,1,94.170,
01/01/2000,01:14:22.67,21.23,-59.17,-992.84,0.0,-700.0,-288.75,1,94.183,
01/01/2000,01:14:22.67,20.98,-59.29,-992.59,201.25,-665.0,-402.50,1,94.196,
01/01/2000,01:14:22.69,20.86,-59.17,-992.59,96.25,-638.75,-437.50,1,94.209,
01/01/2000,01:14:22.70,21.23,-59.05,-992.71,140.0,-848.75,-280.0,1,94.222,
01/01/2000,01:14:22.71,21.23,-58.80,-992.84,175.0,-735.0,-341.25,1,94.235,
01/01/2000,01:14:22.72,20.86,-59.29,-992.59,17.50,-577.50,-411.25,1,94.248,
01/01/2000,01:14:22.73,20.86,-59.29,-992.59,122.50,-796.25,-420.0,1,94.260,
01/01/2000,01:14:22.74,20.98,-59.17,-992.84,113.75,-726.25,-385.0,1,94.273,
01/01/2000,01:14:22.75,21.11,-58.93,-992.96,131.25,-787.50,-280.0,1,94.286,
01/01/2000,01:14:22.76,21.11,-58.93,-992.84,227.50,-708.75,-271.25,1,94.298,
01/01/2000,01:14:22.77,20.98,-58.93,-992.59,148.75,-647.50,-297.50,1,94.311,
01/01/2000,01:14:22.78,20.86,-59.17,-992.59,78.75,-691.25,-297.50,1,94.323,
01/01/2000,01:14:22.79,20.98,-58.93,-992.71,210.0,-621.25,-253.75,1,94.130,
01/01/2000,01:14:22.80,21.23,-58.93,-992.84,218.75,-726.25,-315.0,1,94.143,
01/01/2000,01:14:22.82,21.11,-58.93,-992.71,218.75,-708.75,-192.50,1,94.156,
01/01/2000,01:14:22.83,20.98,-58.80,-992.59,227.50,-700.0,-376.25,1,94.168,
01/01/2000,01:14:22.84,21.23,-58.80,-992.84,157.50,-778.75,-271.25,1,94.181,
01/01/2000,01:14:22.85,21.35,-58.68,-993.08,201.25,-656.25,-358.75,1,94.194,
01/01/2000,01:14:22.86,21.23,-58.80,-993.08,157.50,-586.25,-411.25,1,94.206,
01/01/2000,01:14:22.87,20.98,-58.80,-992.84,96.25,-691.25,-393.75,1,94.017,
01/01/2000,01:14:22.88,20.98,-58.80,-992.71,192.50,-708.75,-323.75,1,94.030,
01/01/2000,01:14:22.89,20.98,-58.80,-992.59,122.50,-603.75,-455.0,1,94.043,
01/01/2000,01:14:22.90,21.11,-58.80,-992.71,332.50,-691.25,-385.0,1,94.055,
01/01/2000,01:14:22.91,21.23,-58.80,-992.59,122.50,-647.50,-306.25,1,94.068,
01/01/2000,01:14:22.92,20.98,-59.05,-992.59,218.75,-717.50,-385.0,1,94.080,
01/01/2000,01:14:22.93,20.98,-59.05,-992.47,192.50,-787.50,-376.25,1,94.093,
01/01/2000,01:14:22.94,21.11,-58.93,-992.47,105.0,-665.0,-402.50,1,94.105,
01/01/2000,01:14:22.96,21.11,-58.80,-992.84,157.50,-630.0,-280.0,1,94.118,
01/01/2000,01:14:22.96,20.86,-58.93,-992.84,140.0,-656.25,-455.0,1,94.130,
01/01/2000,01:14:22.98,20.86,-59.05,-992.84,271.25,-673.75,-358.75,1,94.142,
01/01/2000,01:14:22.99,20.98,-58.80,-992.47,183.75,-700.0,-358.75,1,94.154,
01/01/2000,01:14:23.00,21.11,-58.80,-992.59,105.0,-735.0,-245.0,1,94.167,
01/01/2000,01:14:23.01,21.23,-59.05,-992.71,140.0,-665.0,-350.0,1,94.179,
01/01/2000,01:14:23.02,21.23,-58.93,-992.84,183.75,-665.0,-428.75,1,94.191,
01/01/2000,01:14:23.03,21.11,-59.05,-992.84,140.0,-682.50,-420.0,1,94.203,
01/01/2000,01:14:23.04,20.98,-58.93,-992.84,17.50,-743.75,-402.50,1,94.215,
01/01/2000,01:14:23.05,21.11,-58.80,-993.08,78.75,-717.50,-350.0,1,94.227,
01/01/2000,01:14:23.06,21.23,-58.80,-993.08,262.50,-787.50,-332.50,1,94.239,
01/01/2000,01:14:23.07,21.23,-59.05,-993.08,201.25,-761.25,-358.75,1,94.251,
01/01/2000,01:14:23.08,21.23,-59.29,-993.08,218.75,-647.50,-411.25,1,94.262,
01/01/2000,01:14:23.09,21.23,-59.05,-992.84,96.25,-638.75,-376.25,1,94.274,
01/01/2000,01:14:23.10,21.35,-58.80,-992.84,105.0,-691.25,-315.0,1,94.286,
01/01/2000,01:14:23.11,21.35,-58.80,-992.84,140.0,-665.0,-332.50,1,94.297,
01/01/2000,01:14:23.12,21.23,-58.80,-992.71,236.25,-621.25,-306.25,1,94.309,
01/01/2000,01:14:23.13,21.11,-58.93,-992.59,271.25,-673.75,-411.25,1,94.320,
01/01/2000,01:14:23.14,21.11,-58.80,-992.59,8.75,-708.75,-183.75,1,94.141,
01/01/2000,01:14:23.15,21.11,-58.80,-992.71,96.25,-743.75,-446.25,1,94.153,
01/01/2000,01:14:23.17,21.11,-58.68,-992.71,218.75,-691.25,-236.25,1,94.165,
01/01/2000,01:14:23.17,20.98,-58.80,-992.59,183.75,-673.75,-385.0,1,94.177,
01/01/2000,01:14:23.19,20.98,-58.68,-992.47,0.0,-708.75,-385.0,1,94.188,
01/01/2000,01:14:23.20,21.23,-58.68,-992.47,227.50,-708.75,-315.0,1,94.200,
01/01/2000,01:14:23.21,21.11,-58.56,-992.47,227.50,-708.75,-341.25,1,94.212,
01/01/2000,01:14:23.22,20.98,-58.56,-992.35,61.25,-700.0,-367.50,1,94.223,
01/01/2000,01:14:23.23,20.98,-58.68,-992.35,210.0,-612.50,-332.50,1,94.235,
01/01/2000,01:14:23.24,21.11,-58.80,-992.23,26.25,-621.25,-350.0,1,94.246,
01/01/2000,01:14:23.25,21.23,-58.93,-992.35,113.75,-770.0,-393.75,1,94.257,
01/01/2000,01:14:23.26,21.35,-59.05,-992.59,175.0,-743.75,-367.50,1,94.269,
01/01/2000,01:14:23.27,21.35,-59.05,-992.35,148.75,-717.50,-393.75,1,94.280,
01/01/2000,01:14:23.28,21.23,-59.05,-992.10,131.25,-586.25,-323.75,1,94.291,
01/01/2000,01:14:23.29,20.98,-58.80,-991.98,131.25,-638.75,-393.75,1,94.118,
01/01/2000,01:14:23.30,21.23,-58.80,-992.35,227.50,-638.75,-288.75,1,94.129,
01/01/2000,01:14:23.31,21.47,-58.93,-992.59,148.75,-708.75,-402.50,1,94.141,
01/01/2000,01:14:23.33,21.11,-59.29,-992.47,96.25,-665.0,-341.25,1,94.152,
01/01/2000,01:14:23.34,20.98,-59.17,-992.35,105.0,-691.25,-332.50,1,94.163,
01/01/2000,01:14:23.35,21.23,-59.17,-992.35,236.25,-700.0,-323.75,1,94.175,
01/01/2000,01:14:23.36,21.23,-59.05,-992.47,183.75,-761.25,-315.0,1,94.186,
01/01/2000,01:14:23.37,21.11,-59.17,-992.59,245.0,-813.75,-420.0,1,94.197,
01/01/2000,01:14:23.38,20.98,-59.05,-992.47,157.50,-778.75,-323.75,1,94.208,
01/01/2000,01:14:23.39,20.86,-59.05,-992.35,201.25,-665.0,-297.50,1,94.220,
01/01/2000,01:14:23.40,20.86,-58.93,-992.47,17.50,-647.50,-306.25,1,94.231,
01/01/2000,01:14:23.41,20.98,-59.05,-992.59,148.75,-621.25,-428.75,1,94.242,
01/01/2000,01:14:23.42,20.98,-59.05,-992.59,122.50,-595.0,-262.50,1,94.253,
01/01/2000,01:14:23.43,20.86,-59.05,-992.59,227.50,-717.50,-332.50,1,94.084,
01/01/2000,01:14:23.44,20.98,-59.17,-992.35,70.0,-612.50,-280.0,1,94.275,
01/01/2000,01:14:23.45,20.98,-59.17,-992.47,323.75,-743.75,-341.25,1,94.106,
01/01/2000,01:14:23.46,21.23,-58.93,-992.59,0.0,-752.50,-341.25,1,94.118,
01/01/2000,01:14:23.47,21.11,-59.17,-992.47,227.50,-673.75,-288.75,1,94.129,
01/01/2000,01:14:23.48,20.98,-59.29,-992.59,210.0,-682.50,-297.50,1,94.140,
01/01/2000,01:14:23.50,20.98,-59.54,-992.59,192.50,-761.25,-367.50,1,94.151,
01/01/2000,01:14:23.51,21.11,-59.29,-992.59,140.0,-726.25,-253.75,1,94.162,
01/01/2000,01:14:23.52,21.11,-59.29,-992.59,105.0,-726.25,-428.75,1,94.173,
01/01/2000,01:14:23.53,20.98,-59.17,-992.59,61.25,-656.25,-288.75,1,94.184,
01/01/2000,01:14:23.54,20.86,-59.17,-992.59,227.50,-717.50,-393.75,1,94.195,
01/01/2000,01:14:23.55,20.98,-59.05,-992.59,157.50,-682.50,-253.75,1,94.206,
01/01/2000,01:14:23.56,20.98,-59.05,-992.71,26.25,-735.0,-411.25,1,94.216,
01/01/2000,01:14:23.57,20.98,-59.17,-992.71,201.25,-743.75,-288.75,1,94.227,
01/01/2000,01:14:23.58,20.86,-59.29,-992.59,131.25,-682.50,-367.50,1,94.238,
01/01/2000,01:14:23.59,20.86,-59.17,-992.59,183.75,-735.0,-306.25,1,94.249,
01/01/2000,01:14:23.60,20.98,-59.17,-992.59,175.0,-656.25,-297.50,1,94.259,
01/01/2000,01:14:23.61,20.98,-59.17,-992.59,70.0,-787.50,-315.0,1,94.270,
01/01/2000,01:14:23.62,20.74,-59.17,-992.59,183.75,-717.50,-341.25,1,94.280,
01/01/2000,01:14:23.63,20.74,-59.17,-992.47,78.75,-708.75,-271.25,1,94.291,
01/01/2000,01:14:23.64,20.86,-59.17,-992.47,87.50,-770.0,-350.0,1,94.128,
01/01/2000,01:14:23.65,20.98,-59.29,-992.47,113.75,-778.75,-253.75,1,94.139,
01/01/2000,01:14:23.66,20.86,-59.17,-992.47,122.50,-717.50,-280.0,1,94.150,
01/01/2000,01:14:23.67,20.74,-59.29,-992.35,131.25,-761.25,-332.50,1,94.161,
01/01/2000,01:14:23.68,20.62,-59.29,-992.59,148.75,-743.75,-376.25,1,94.171,
01/01/2000,01:14:23.69,20.74,-59.29,-992.59,166.25,-700.0,-358.75,1,94.182,
01/01/2000,01:14:23.71,20.86,-59.29,-992.71,61.25,-735.0,-341.25,1,94.192,
01/01/2000,01:14:23.72,20.98,-59.29,-992.71,157.50,-726.25,-341.25,1,94.203,
01/01/2000,01:14:23.73,20.98,-59.29,-992.84,78.75,-691.25,-350.0,1,94.213,
01/01/2000,01:14:23.74,20.98,-59.29,-992.71,166.25,-621.25,-297.50,1,94.224,
01/01/2000,01:14:23.75,20.98,-59.17,-992.59,253.75,-568.75,-402.50,1,94.234,
01/01/2000,01:14:23.76,20.98,-59.17,-992.59,201.25,-743.75,-332.50,1,94.245,
01/01/2000,01:14:23.77,20.98,-59.29,-992.59,245.0,-647.50,-315.0,1,94.255,
01/01/2000,01:14:23.78,20.86,-59.05,-992.59,96.25,-638.75,-411.25,1,94.097,
01/01/2000,01:14:23.79,20.74,-58.93,-992.47,315.0,-717.50,-367.50,1,94.107,
01/01/2000,01:14:23.80,20.74,-58.93,-992.47,52.50,-743.75,-376.25,1,94.118,
01/01/2000,01:14:23.81,20.86,-59.05,-992.47,201.25,-656.25,-402.50,1,94.128,
01/01/2000,01:14:23.82,20.86,-59.05,-992.59,148.75,-752.50,-376.25,1,94.139,
01/01/2000,01:14:23.84,20.86,-59.05,-992.59,227.50,-586.25,-367.50,1,94.149,
01/01/2000,01:14:23.85,20.86,-59.05,-992.59,166.25,-647.50,-218.75,1,94.159,
01/01/2000,01:14:23.86,20.98,-58.93,-992.59,87.50,-717.50,-332.50,1,94.170,
01/01/2000,01:14:23.87,20.98,-58.80,-992.59,157.50,-700.0,-227.50,1,94.180,
01/01/2000,01:14:23.88,20.98,-59.17,-992.59,148.75,-638.75,-315.0,1,94.190,
01/01/2000,01:14:23.89,20.98,-59.05,-992.59,183.75,-708.75,-446.25,1,94.200,
01/01/2000,01:14:23.90,20.86,-59.05,-992.47,175.0,-717.50,-472.50,1,94.211,
01/01/2000,01:14:23.91,20.86,-59.05,-992.47,140.0,-752.50,-297.50,1,94.221,
01/01/2000,01:14:23.92,20.98,-59.17,-992.59,262.50,-717.50,-490.0,1,94.231,
01/01/2000,01:14:23.93,20.86,-59.17,-992.59,17.50,-708.75,-367.50,1,94.077,
01/01/2000,01:14:23.94,20.86,-59.29,-992.59,175.0,-656.25,-376.25,1,94.251,
01/01/2000,01:14:23.95,20.74,-59.29,-992.59,78.75,-630.0,-420.0,1,94.097,
01/01/2000,01:14:23.96,20.98,-59.29,-992.59,192.50,-665.0,-376.25,1,94.107,
01/01/2000,01:14:23.97,20.74,-59.17,-992.71,-26.25,-638.75,-332.50,1,94.118,
01/01/2000,01:14:23.98,20.98,-59.29,-992.71,192.50,-787.50,-367.50,1,94.128,
01/01/2000,01:14:23.99,20.86,-59.17,-992.59,131.25,-603.75,-393.75,1,94.138,
01/01/2000,01:14:24.00,20.98,-59.05,-992.84,218.75,-708.75,-437.50,1,94.148,
01/01/2000,01:14:24.01,20.98,-59.29,-992.96,140.0,-778.75,-236.25,1,94.158,
01/01/2000,01:14:24.02,21.11,-59.29,-992.84,131.25,-700.0,-306.25,1,94.168,
01/01/2000,01:14:24.03,20.98,-58.93,-992.84,166.25,-761.25,-358.75,1,94.178,
01/01/2000,01:14:24.04,21.11,-59.05,-992.71,122.50,-726.25,-428.75,1,94.188,
01/01/2000,01:14:24.05,20.98,-58.93,-992.84,227.50,-682.50,-428.75,1,94.198,
01/01/2000,01:14:24.07,23.18,-59.17,-988.57,96.25,26.25,-918.75,1,94.208,
01/01/2000,01:14:24.08,12.57,-57.46,-958.55,-43.75,-507.50,4261.25,1,94.218,
01/01/2000,01:14:24.09,8.30,-56.12,-952.33,-446.25,-2266.25,-700.0,1,94.228,
01/01/2000,01:14:24.10,17.08,-61.24,-983.56,-227.50,-1855.0,-4383.75,1,94.237,
01/01/2000,01:14:24.11,27.08,-65.51,-1021.51,1041.25,-463.75,-2887.50,1,94.247,
01/01/2000,01:14:24.12,30.26,-63.44,-1043.83,-245.0,446.25,1758.75,1,94.257,
01/01/2000,01:14:24.13,28.79,-55.27,-1031.88,-52.50,-113.75,892.50,1,94.108,
01/01/2000,01:14:24.14,25.25,-53.44,-1006.13,743.75,-866.25,-1137.50,1,94.118,
01/01/2000,01:14:24.15,20.01,-55.27,-974.29,-420.0,-1041.25,1032.50,1,94.128,
01/01/2000,01:14:24.16,18.67,-62.22,-971.12,113.75,-1338.75,2266.25,1,94.137,
01/01/2000,01:14:24.17,20.50,-66.37,-982.47,-26.25,-1120.0,-1496.25,1,94.147,
01/01/2000,01:14:24.18,22.45,-66.49,-998.57,288.75,-577.50,-3307.50,1,94.157,
01/01/2000,01:14:24.19,23.55,-58.56,-1007.72,306.25,-315.0,-262.50,1,94.167,
01/01/2000,01:14:24.21,20.25,-50.75,-998.08,175.0,-385.0,945.0,1,94.176,
01/01/2000,01:14:24.22,19.28,-51.97,-988.93,43.75,-638.75,822.50,1,94.186,
01/01/2000,01:14:24.23,19.28,-57.22,-983.32,262.50,-778.75,761.25,1,94.196,
01/01/2000,01:14:24.24,20.50,-63.07,-983.93,61.25,-971.25,-280.0,1,94.205,
01/01/2000,01:14:24.25,22.08,-66.86,-989.18,148.75,-796.25,-1890.0,1,94.215,
01/01/2000,01:14:24.26,22.69,-63.56,-995.76,350.0,-726.25,-1793.75,1,94.224,
01/01/2000,01:14:24.27,20.74,-55.02,-994.06,210.0,-595.0,-218.75,1,94.234,
01/01/2000,01:14:24.28,19.28,-51.61,-991.13,105.0,-621.25,857.50,1,94.243,
01/01/2000,01:14:24.29,18.91,-53.56,-989.66,140.0,-595.0,1601.25,1,94.253,
01/01/2000,01:14:24.30,19.64,-58.07,-989.91,157.50,-647.50,157.50,1,94.262,
01/01/2000,01:14:24.31,21.96,-64.66,-992.59,306.25,-735.0,-1382.50,1,94.272,
01/01/2000,01:14:24.32,22.45,-64.66,-993.20,52.50,-813.75,-2030.0,1,94.281,
01/01/2000,01:14:24.33,21.84,-61.49,-992.35,87.50,-918.75,-1627.50,1,94.290,
01/01/2000,01:14:24.35,19.76,-54.29,-991.62,218.75,-516.25,735.0,1,94.146,
01/01/2000,01:14:24.36,19.40,-55.63,-992.84,131.25,-656.25,962.50,1,94.156,
01/01/2000,01:14:24.37,20.25,-59.17,-993.57,175.0,-647.50,105.0,1,94.165,
01/01/2000,01:14:24.38,21.11,-61.98,-993.08,-26.25,-691.25,-962.50,1,94.175,
01/01/2000,01:14:24.39,21.84,-62.83,-991.86,78.75,-735.0,-1312.50,1,94.184,
01/01/2000,01:14:24.40,21.96,-61.49,-990.88,236.25,-892.50,-630.0,1,94.194,
01/01/2000,01:14:24.41,20.98,-57.58,-991.49,122.50,-822.50,17.50,1,94.203,
01/01/2000,01:14:24.42,20.25,-56.36,-992.96,17.50,-647.50,446.25,1,94.061,
01/01/2000,01:14:24.43,19.89,-56.61,-994.06,148.75,-568.75,78.75,1,94.071,
01/01/2000,01:14:24.44,20.74,-59.17,-993.32,210.0,-595.0,-411.25,1,94.080,
01/01/2000,01:14:24.45,21.59,-60.76,-992.10,210.0,-770.0,-875.0,1,94.089,
01/01/2000,01:14:24.46,22.20,-61.24,-991.13,87.50,-700.0,-831.25,1,94.099,
01/01/2000,01:14:24.47,21.96,-60.63,-991.25,52.50,-787.50,-332.50,1,94.108,
01/01/2000,01:14:24.48,21.11,-58.68,-992.96,218.75,-630.0,8.75,1,94.118,
01/01/2000,01:14:24.49,20.50,-57.58,-993.93,210.0,-673.75,-183.75,1,94.127,
01/01/2000,01:14:24.50,20.37,-57.22,-994.06,201.25,-577.50,-227.50,1,94.136,
01/01/2000,01:14:24.51,20.74,-57.83,-993.20,192.50,-717.50,-315.0,1,94.146,
01/01/2000,01:14:24.52,21.72,-59.66,-991.74,-8.75,-770.0,-218.75,1,94.155,
01/01/2000,01:14:24.53,21.84,-60.39,-991.74,26.25,-691.25,-393.75,1,94.164,
01/01/2000,01:14:24.54,21.72,-60.63,-992.47,218.75,-700.0,-595.0,1,94.173,
01/01/2000,01:14:24.56,20.98,-58.93,-993.45,210.0,-691.25,-525.0,1,94.182,
01/01/2000,01:14:24.57,20.50,-57.71,-993.57,157.50,-560.0,-262.50,1,94.192,
01/01/2000,01:14:24.58,20.50,-57.34,-993.08,157.50,-542.50,-157.50,1,94.201,
01/01/2000,01:14:24.59,20.98,-57.71,-992.47,140.0,-682.50,-70.0,1,94.210,
01/01/2000,01:14:24.60,21.72,-59.05,-992.10,148.75,-752.50,-192.50,1,94.219,
01/01/2000,01:14:24.61,21.72,-60.51,-992.35,26.25,-761.25,-428.75,1,94.228,
01/01/2000,01:14:24.62,21.47,-60.39,-992.84,297.50,-691.25,-551.25,1,94.237,
01/01/2000,01:14:24.63,20.74,-58.80,-992.84,157.50,-647.50,-437.50,1,94.246,
01/01/2000,01:14:24.64,20.62,-57.58,-992.71,113.75,-568.75,-262.50,1,94.255,
01/01/2000,01:14:24.65,20.74,-57.46,-992.71,70.0,-700.0,70.0,1,94.264,
01/01/2000,01:14:24.66,21.11,-58.93,-992.71,166.25,-647.50,-227.50,1,94.272,
01/01/2000,01:14:24.67,21.23,-60.15,-992.59,175.0,-630.0,-437.50,1,94.281,
01/01/2000,01:14:24.68,21.23,-60.27,-992.59,105.0,-743.75,-551.25,1,94.290,
01/01/2000,01:14:24.69,20.98,-59.54,-992.59,140.0,-656.25,-533.75,1,94.154,
01/01/2000,01:14:24.70,20.74,-58.32,-992.47,70.0,-787.50,-201.25,1,94.163,
01/01/2000,01:14:24.71,20.74,-57.95,-992.71,148.75,-717.50,-105.0,1,94.172,
01/01/2000,01:14:24.72,20.74,-58.44,-992.71,61.25,-656.25,-61.25,1,94.181,
01/01/2000,01:14:24.73,20.98,-59.29,-992.71,192.50,-638.75,-227.50,1,94.190,
01/01/2000,01:14:24.74,21.23,-59.78,-992.47,227.50,-708.75,-542.50,1,94.198,
01/01/2000,01:14:24.75,21.23,-59.78,-992.23,105.0,-822.50,-402.50,1,94.207,
01/01/2000,01:14:24.77,21.11,-58.93,-992.10,61.25,-813.75,-341.25,1,94.216,
01/01/2000,01:14:24.78,20.74,-58.68,-992.59,245.0,-813.75,-192.50,1,94.225,
01/01/2000,01:14:24.79,20.62,-58.68,-992.84,122.50,-752.50,-253.75,1,94.234,
01/01/2000,01:14:24.80,20.86,-59.05,-992.84,131.25,-665.0,-358.75,1,94.242,
01/01/2000,01:14:24.81,20.98,-59.29,-992.59,-26.25,-708.75,-393.75,1,94.251,
01/01/2000,01:14:24.82,20.98,-59.41,-992.23,166.25,-743.75,-271.25,1,94.260,
01/01/2000,01:14:24.83,20.98,-59.54,-992.23,271.25,-630.0,-533.75,1,94.268,
01/01/2000,01:14:24.84,20.98,-58.93,-992.59,306.25,-761.25,-218.75,1,94.135,
01/01/2000,01:14:24.86,20.74,-58.80,-992.71,245.0,-717.50,-332.50,1,94.003,
01/01/2000,01:14:24.87,20.86,-59.29,-992.35,236.25,-682.50,-201.25,1,94.012,
01/01/2000,01:14:24.88,20.98,-59.41,-992.10,105.0,-682.50,-367.50,1,94.021,
01/01/2000,01:14:24.90,20.98,-59.66,-992.10,175.0,-752.50,-367.50,1,94.030,
01/01/2000,01:14:24.90,20.86,-59.29,-992.47,376.25,-700.0,-455.0,1,94.039,
01/01/2000,01:14:24.92,20.74,-58.68,-992.59,52.50,-656.25,-315.0,1,94.048,
01/01/2000,01:14:24.93,20.86,-58.68,-992.35,332.50,-630.0,-297.50,1,94.056,
01/01/2000,01:14:24.94,20.86,-58.93,-992.10,105.0,-761.25,-306.25,1,94.065,
01/01/2000,01:14:24.95,21.11,-59.05,-992.10,87.50,-638.75,-376.25,1,94.074,
01/01/2000,01:14:24.96,21.11,-59.41,-992.23,385.0,-717.50,-350.0,1,94.083,
01/01/2000,01:14:24.97,20.98,-59.17,-992.47,122.50,-647.50,-376.25,1,94.092,
01/01/2000,01:14:24.98,20.74,-59.17,-992.35,96.25,-717.50,-175.0,1,94.100,
01/01/2000,01:14:24.99,20.74,-58.56,-992.35,122.50,-752.50,-306.25,1,94.109,
01/01/2000,01:14:25.00,20.74,-58.44,-992.35,175.0,-743.75,-236.25,1,94.118,
01/01/2000,01:14:25.01,20.74,-58.56,-992.35,148.75,-770.0,-341.25,1,94.126,
01/01/2000,01:14:25.02,20.74,-59.17,-992.10,105.0,-831.25,-341.25,1,94.135,
01/01/2000,01:14:25.03,20.74,-59.29,-992.10,183.75,-770.0,-367.50,1,94.143,
01/01/2000,01:14:25.04,20.74,-59.17,-992.23,87.50,-673.75,-455.0,1,94.152,
01/01/2000,01:14:25.05,20.62,-58.80,-992.35,227.50,-700.0,-315.0,1,94.161,
01/01/2000,01:14:25.06,20.74,-58.56,-992.47,157.50,-647.50,-350.0,1,94.169,
01/01/2000,01:14:25.07,20.74,-58.68,-992.59,236.25,-560.0,-350.0,1,94.178,
01/01/2000,01:14:25.08,20.74,-59.05,-992.47,218.75,-752.50,-175.0,1,94.186,
01/01/2000,01:14:25.09,20.86,-59.29,-992.10,218.75,-647.50,-367.50,1,94.194,
01/01/2000,01:14:25.10,20.86,-59.17,-992.10,183.75,-778.75,-498.75,1,94.203,
01/01/2000,01:14:25.11,20.98,-59.05,-992.10,0.0,-630.0,-358.75,1,94.075,
01/01/2000,01:14:25.12,20.98,-58.80,-992.35,96.25,-656.25,-437.50,1,94.084,
01/01/2000,01:14:25.14,20.74,-58.80,-992.47,96.25,-726.25,-297.50,1,94.092,
01/01/2000,01:14:25.15,20.98,-59.05,-992.35,96.25,-586.25,-253.75,1,94.101,
01/01/2000,01:14:25.16,20.98,-59.05,-992.35,245.0,-700.0,-358.75,1,94.109,
01/01/2000,01:14:25.17,20.98,-59.05,-992.35,87.50,-700.0,-437.50,1,94.118,
01/01/2000,01:14:25.18,20.98,-59.05,-992.35,175.0,-665.0,-253.75,1,94.126,
01/01/2000,01:14:25.19,20.86,-58.93,-992.59,341.25,-577.50,-341.25,1,94.134,
01/01/2000,01:14:25.20,20.86,-58.93,-992.59,315.0,-743.75,-288.75,1,94.143,
01/01/2000,01:14:25.21,20.86,-58.93,-992.59,96.25,-761.25,-218.75,1,94.151,
01/01/2000,01:14:25.22,20.98,-59.05,-992.35,280.0,-708.75,-402.50,1,94.160,
01/01/2000,01:14:25.23,20.98,-59.17,-992.23,96.25,-691.25,-323.75,1,94.168,
01/01/2000,01:14:25.24,20.98,-59.41,-992.23,113.75,-831.25,-402.50,1,94.176,
01/01/2000,01:14:25.25,20.98,-59.29,-992.35,70.0,-691.25,-393.75,1,94.184,
01/01/2000,01:14:25.26,20.98,-59.05,-992.47,175.0,-630.0,-393.75,1,94.193,
01/01/2000,01:14:25.27,21.11,-58.80,-992.59,148.75,-682.50,-350.0,1,94.068,
01/01/2000,01:14:25.28,21.23,-58.93,-992.35,157.50,-700.0,-367.50,1,94.076,
01/01/2000,01:14:25.29,21.11,-59.05,-992.23,140.0,-717.50,-358.75,1,94.085,
01/01/2000,01:14:25.30,21.11,-59.17,-992.35,183.75,-708.75,-385.0,1,94.093,
01/01/2000,01:14:25.31,21.11,-58.93,-992.47,131.25,-743.75,-341.25,1,94.101,
01/01/2000,01:14:25.32,21.23,-58.80,-992.47,288.75,-743.75,-341.25,1,94.109,
01/01/2000,01:14:25.34,21.23,-58.80,-992.47,17.50,-813.75,-297.50,1,94.118,
01/01/2000,01:14:25.35,21.23,-58.93,-992.47,157.50,-673.75,-288.75,1,94.126,
01/01/2000,01:14:25.36,21.23,-59.17,-992.47,315.0,-551.25,-385.0,1,94.134,
01/01/2000,01:14:25.37,21.11,-59.29,-992.47,218.75,-691.25,-288.75,1,94.011,
01/01/2000,01:14:25.38,21.11,-59.17,-992.35,253.75,-682.50,-323.75,1,94.019,
01/01/2000,01:14:25.39,21.11,-58.93,-992.35,78.75,-656.25,-236.25,1,94.028,
01/01/2000,01:14:25.40,20.98,-58.93,-992.35,315.0,-752.50,-393.75,1,94.036,
01/01/2000,01:14:25.42,20.98,-58.93,-992.59,183.75,-656.25,-288.75,1,94.044,
01/01/2000,01:14:25.43,20.86,-58.93,-992.59,70.0,-743.75,-332.50,1,94.053,
01/01/2000,01:14:25.44,20.86,-59.05,-992.59,236.25,-656.25,-367.50,1,94.061,
01/01/2000,01:14:25.45,20.86,-58.93,-992.47,35.0,-638.75,-437.50,1,94.069,
01/01/2000,01:14:25.46,20.74,-58.80,-992.47,87.50,-752.50,-297.50,1,94.077,
01/01/2000,01:14:25.47,20.86,-58.56,-992.47,227.50,-621.25,-350.0,1,94.085,
01/01/2000,01:14:25.48,20.74,-58.80,-992.59,26.25,-700.0,-376.25,1,94.093,
01/01/2000,01:14:25.49,20.98,-58.80,-992.47,87.50,-726.25,-297.50,1,94.102,
01/01/2000,01:14:25.50,21.11,-59.05,-992.47,210.0,-700.0,-402.50,1,94.110,
01/01/2000,01:14:25.51,20.98,-58.80,-992.47,227.50,-700.0,-183.75,1,94.118,
01/01/2000,01:14:25.52,20.98,-58.80,-992.23,148.75,-673.75,-280.0,1,94.126,
01/01/2000,01:14:25.53,20.74,-58.56,-992.23,157.50,-673.75,-376.25,1,94.134,
01/01/2000,01:14:25.54,20.62,-58.68,-992.23,262.50,-577.50,-288.75,1,94.142,
01/01/2000,01:14:25.55,20.74,-58.56,-992.23,175.0,-665.0,-350.0,1,94.022,
01/01/2000,01:14:25.56,20.98,-58.93,-992.23,96.25,-638.75,-428.75,1,94.030,
01/01/2000,01:14:25.57,21.11,-59.05,-992.10,183.75,-708.75,-262.50,1,94.038,
01/01/2000,01:14:25.58,21.11,-59.17,-992.23,271.25,-682.50,-437.50,1,94.046,
01/01/2000,01:14:25.59,21.11,-58.80,-992.23,297.50,-621.25,-358.75,1,94.054,
01/01/2000,01:14:25.60,20.98,-58.56,-992.35,157.50,-735.0,-358.75,1,94.062,
01/01/2000,01:14:25.61,20.98,-58.68,-992.35,148.75,-673.75,-280.0,1,94.070,
01/01/2000,01:14:25.63,21.11,-58.80,-992.59,210.0,-630.0,-385.0,1,94.078,
01/01/2000,01:14:25.64,21.11,-59.05,-992.35,87.50,-787.50,-262.50,1,94.086,
01/01/2000,01:14:25.65,20.98,-59.05,-992.35,175.0,-796.25,-341.25,1,94.094,
01/01/2000,01:14:25.66,20.98,-59.17,-992.35,122.50,-726.25,-297.50,1,94.102,
01/01/2000,01:14:25.67,20.98,-59.17,-992.35,280.0,-796.25,-315.0,1,94.110,
01/01/2000,01:14:25.68,20.98,-58.80,-992.47,157.50,-691.25,-402.50,1,94.118,
01/01/2000,01:14:25.69,20.98,-58.93,-992.23,166.25,-638.75,-350.0,1,94.126,
01/01/2000,01:14:25.70,20.98,-59.05,-992.10,175.0,-726.25,-350.0,1,94.133,
01/01/2000,01:14:25.71,21.11,-59.05,-991.98,131.25,-726.25,-262.50,1,94.141,
01/01/2000,01:14:25.72,21.23,-59.05,-992.10,131.25,-708.75,-323.75,1,94.149,
01/01/2000,01:14:25.73,21.11,-59.05,-992.10,245.0,-770.0,-428.75,1,94.157,
01/01/2000,01:14:25.74,20.98,-59.05,-992.10,166.25,-673.75,-367.50,1,94.164,
01/01/2000,01:14:25.75,20.86,-58.80,-992.23,148.75,-638.75,-306.25,1,94.172,
01/01/2000,01:14:25.76,20.98,-58.93,-992.10,253.75,-700.0,-428.75,1,94.055,
01/01/2000,01:14:25.77,20.86,-58.56,-992.35,105.0,-743.75,-463.75,1,94.063,
01/01/2000,01:14:25.79,20.98,-58.93,-992.23,148.75,-621.25,-376.25,1,94.071,
01/01/2000,01:14:25.79,20.98,-58.93,-992.10,131.25,-586.25,-271.25,1,94.079,
01/01/2000,01:14:25.81,20.98,-59.05,-991.98,236.25,-691.25,-367.50,1,94.087,
01/01/2000,01:14:25.81,20.98,-58.93,-991.98,236.25,-708.75,-280.0,1,94.094,
01/01/2000,01:14:25.83,20.74,-58.93,-992.10,245.0,-665.0,-332.50,1,94.102,
01/01/2000,01:14:25.84,20.86,-58.93,-992.10,140.0,-761.25,-297.50,1,94.110,
01/01/2000,01:14:25.85,20.98,-59.05,-992.10,210.0,-770.0,-385.0,1,94.118,
01/01/2000,01:14:25.86,20.86,-59.05,-992.10,122.50,-708.75,-297.50,1,94.125,
01/01/2000,01:14:25.87,20.98,-58.93,-992.10,218.75,-595.0,-288.75,1,94.010,
01/01/2000,01:14:25.88,20.86,-59.05,-992.10,210.0,-665.0,-385.0,1,94.018,
01/01/2000,01:14:25.89,20.74,-59.05,-992.23,183.75,-673.75,-341.25,1,94.026,
01/01/2000,01:14:25.91,20.62,-58.80,-992.35,8.75,-805.0,-166.25,1,94.034,
01/01/2000,01:14:25.92,20.74,-58.80,-992.23,166.25,-743.75,-332.50,1,94.041,
01/01/2000,01:14:25.93,20.86,-58.93,-992.35,210.0,-761.25,-315.0,1,94.049,
01/01/2000,01:14:25.94,20.86,-58.93,-992.35,245.0,-682.50,-332.50,1,94.057,
01/01/2000,01:14:25.95,20.86,-59.05,-992.23,218.75,-603.75,-358.75,1,94.065,
01/01/2000,01:14:25.96,20.86,-59.05,-992.23,227.50,-673.75,-428.75,1,94.072,
01/01/2000,01:14:25.97,20.86,-58.93,-992.10,183.75,-638.75,-227.50,1,94.080,
01/01/2000,01:14:25.98,20.86,-58.93,-991.98,35.0,-735.0,-280.0,1,94.087,
01/01/2000,01:14:25.99,20.86,-58.80,-992.10,148.75,-700.0,-288.75,1,94.095,
01/01/2000,01:14:26.00,20.86,-58.93,-992.23,61.25,-691.25,-350.0,1,94.103,
01/01/2000,01:14:26.01,20.86,-59.05,-992.10,183.75,-787.50,-297.50,1,94.110,
01/01/2000,01:14:26.02,20.74,-58.93,-991.98,78.75,-621.25,-376.25,1,94.118,
01/01/2000,01:14:26.03,20.74,-58.93,-991.98,201.25,-630.0,-385.0,1,94.125,
01/01/2000,01:14:26.04,20.86,-59.05,-992.10,43.75,-630.0,-428.75,1,94.133,
01/01/2000,01:14:26.05,20.86,-59.05,-992.35,288.75,-673.75,-253.75,1,94.140,
01/01/2000,01:14:26.06,20.98,-59.17,-992.35,183.75,-761.25,-323.75,1,94.148,
01/01/2000,01:14:26.07,20.86,-59.29,-992.35,70.0,-743.75,-341.25,1,94.155,
01/01/2000,01:14:26.08,20.98,-59.29,-992.47,306.25,-673.75,-385.0,1,94.162,
01/01/2000,01:14:26.09,21.11,-59.29,-992.47,288.75,-665.0,-192.50,1,94.170,
01/01/2000,01:14:26.10,20.98,-59.17,-992.47,70.0,-717.50,-262.50,1,94.177,
01/01/2000,01:14:26.11,20.98,-59.05,-992.47,157.50,-682.50,-288.75,1,94.066,
01/01/2000,01:14:26.12,20.98,-59.41,-992.35,192.50,-717.50,-245.0,1,94.073,
01/01/2000,01:14:26.13,21.11,-59.29,-992.35,87.50,-708.75,-288.75,1,94.081,
01/01/2000,01:14:26.15,21.23,-59.29,-992.47,262.50,-656.25,-367.50,1,94.088,
01/01/2000,01:14:26.16,21.23,-59.29,-992.59,122.50,-700.0,-323.75,1,94.095,
01/01/2000,01:14:26.17,21.23,-59.17,-992.47,52.50,-647.50,-358.75,1,94.103,
01/01/2000,01:14:26.18,20.98,-59.17,-992.47,131.25,-630.0,-280.0,1,94.110,
01/01/2000,01:14:26.19,20.98,-59.17,-992.59,236.25,-586.25,-288.75,1,94.118,
01/01/2000,01:14:26.20,21.23,-59.05,-992.59,70.0,-708.75,-367.50,1,94.125,
01/01/2000,01:14:26.21,21.11,-59.05,-992.59,43.75,-673.75,-210.0,1,94.132,
01/01/2000,01:14:26.22,20.98,-59.05,-992.59,131.25,-761.25,-376.25,1,94.140,
01/01/2000,01:14:26.23,20.86,-59.17,-992.59,157.50,-682.50,-236.25,1,94.147,
01/01/2000,01:14:26.24,20.98,-59.05,-992.59,96.25,-866.25,-411.25,1,94.154,
01/01/2000,01:14:26.25,20.86,-58.93,-992.84,192.50,-673.75,-323.75,1,94.161,
01/01/2000,01:14:26.26,20.98,-58.93,-992.84,78.75,-752.50,-376.25,1,94.052,
01/01/2000,01:14:26.27,21.11,-59.05,-992.71,183.75,-673.75,-376.25,1,94.059,
01/01/2000,01:14:26.28,21.11,-59.05,-992.59,70.0,-770.0,-367.50,1,94.067,
01/01/2000,01:14:26.29,21.11,-59.05,-992.35,201.25,-813.75,-332.50,1,94.074,
01/01/2000,01:14:26.30,21.23,-58.93,-992.59,201.25,-621.25,-367.50,1,94.081,
01/01/2000,01:14:26.31,21.23,-58.93,-992.71,253.75,-700.0,-183.75,1,94.089,
01/01/2000,01:14:26.33,21.11,-58.93,-992.71,175.0,-586.25,-323.75,1,94.096,
01/01/2000,01:14:26.34,21.11,-59.05,-992.59,227.50,-682.50,-271.25,1,94.103,
01/01/2000,01:14:26.35,20.98,-58.80,-992.35,96.25,-612.50,-358.75,1,94.110,
01/01/2000,01:14:26.36,20.98,-58.93,-992.35,332.50,-708.75,-481.25,1,94.118,
01/01/2000,01:14:26.37,20.98,-59.05,-992.59,26.25,-700.0,-315.0,1,94.125,
01/01/2000,01:14:26.38,20.98,-58.93,-992.59,96.25,-743.75,-262.50,1,94.132,
01/01/2000,01:14:26.39,20.74,-59.05,-992.71,87.50,-726.25,-393.75,1,94.024,
01/01/2000,01:14:26.40,20.86,-59.17,-992.84,236.25,-673.75,-288.75,1,94.032,
01/01/2000,01:14:26.41,20.86,-59.05,-992.71,35.0,-595.0,-341.25,1,94.039,
01/01/2000,01:14:26.42,20.86,-59.29,-992.59,148.75,-630.0,-350.0,1,94.046,
01/01/2000,01:14:26.43,20.86,-59.29,-992.35,175.0,-700.0,-350.0,1,94.053,
01/01/2000,01:14:26.44,20.74,-59.17,-992.35,175.0,-682.50,-358.75,1,94.061,
01/01/2000,01:14:26.45,20.74,-59.17,-992.35,218.75,-682.50,-358.75,1,94.068,
01/01/2000,01:14:26.46,20.86,-58.93,-992.35,183.75,-700.0,-306.25,1,94.075,
01/01/2000,01:14:26.47,20.98,-59.05,-992.47,297.50,-612.50,-315.0,1,94.082,
01/01/2000,01:14:26.48,20.98,-59.29,-992.59,113.75,-796.25,-315.0,1,94.089,
01/01/2000,01:14:26.50,20.86,-59.29,-992.71,70.0,-735.0,-472.50,1,94.096,
01/01/2000,01:14:26.50,20.74,-59.17,-992.71,183.75,-638.75,-385.0,1,94.103,
01/01/2000,01:14:26.52,20.86,-59.05,-992.71,61.25,-691.25,-315.0,1,94.111,
01/01/2000,01:14:26.53,20.74,-59.05,-992.84,253.75,-726.25,-385.0,1,94.118,
01/01/2000,01:14:26.54,20.86,-59.29,-992.84,131.25,-665.0,-463.75,1,94.125,
01/01/2000,01:14:26.55,20.86,-59.29,-992.84,52.50,-673.75,-428.75,1,94.132,
01/01/2000,01:14:26.56,20.98,-59.41,-992.84,157.50,-630.0,-455.0,1,94.139,
01/01/2000,01:14:26.57,21.11,-59.54,-992.84,148.75,-682.50,-393.75,1,94.146,
01/01/2000,01:14:26.58,20.98,-59.29,-992.71,8.75,-752.50,-446.25,1,94.153,
01/01/2000,01:14:26.59,20.98,-59.17,-992.59,113.75,-726.25,-280.0,1,94.160,
01/01/2000,01:14:26.60,20.86,-59.05,-992.59,140.0,-735.0,-253.75,1,94.167,
01/01/2000,01:14:26.61,20.98,-59.05,-992.71,70.0,-595.0,-297.50,1,94.062,
01/01/2000,01:14:26.62,20.98,-59.29,-992.84,61.25,-778.75,-323.75,1,94.069,
01/01/2000,01:14:26.63,20.98,-59.29,-992.84,262.50,-682.50,-245.0,1,94.076,
01/01/2000,01:14:26.64,21.11,-59.29,-992.84,140.0,-665.0,-393.75,1,94.083,
01/01/2000,01:14:26.65,20.98,-59.05,-992.59,210.0,-717.50,-210.0,1,94.090,
01/01/2000,01:14:26.66,20.98,-59.17,-992.59,201.25,-743.75,-393.75,1,94.097,
01/01/2000,01:14:26.67,21.11,-59.05,-992.84,192.50,-630.0,-376.25,1,94.104,
01/01/2000,01:14:26.69,21.23,-59.17,-992.71,157.50,-743.75,-350.0,1,94.111,
01/01/2000,01:14:26.70,21.11,-59.05,-992.59,78.75,-700.0,-253.75,1,94.118,
01/01/2000,01:14:26.71,21.11,-59.05,-992.59,253.75,-735.0,-332.50,1,94.125,
01/01/2000,01:14:26.72,21.23,-59.05,-992.59,236.25,-603.75,-288.75,1,94.131,
01/01/2000,01:14:26.73,21.23,-59.05,-992.59,8.75,-656.25,-437.50,1,94.138,
01/01/2000,01:14:26.74,21.11,-59.05,-992.59,236.25,-647.50,-315.0,1,94.145,
01/01/2000,01:14:26.75,21.11,-59.05,-992.59,280.0,-761.25,-288.75,1,94.152,
01/01/2000,01:14:26.76,21.11,-59.05,-992.35,245.0,-673.75,-175.0,1,94.159,
01/01/2000,01:14:26.77,20.98,-58.56,-992.23,131.25,-682.50,-113.75,1,94.166,
01/01/2000,01:14:26.78,21.23,-57.95,-992.23,61.25,-691.25,350.0,1,94.172,
01/01/2000,01:14:26.79,21.23,-56.73,-992.35,113.75,-586.25,1216.25,1,94.179,
01/01/2000,01:14:26.80,20.98,-53.68,-992.59,70.0,-612.50,2135.0,1,94.186,
01/01/2000,01:14:26.81,20.86,-52.70,-992.59,367.50,-612.50,3176.25,1,94.193,
01/01/2000,01:14:26.82,20.25,-53.44,-992.96,87.50,-498.75,6256.25,1,94.090,
01/01/2000,01:14:26.83,20.50,-55.75,-992.96,148.75,-306.25,8268.75,1,94.097,
01/01/2000,01:14:26.84,20.98,-57.10,-993.20,70.0,-306.25,9773.75,1,94.104,
01/01/2000,01:14:26.85,21.35,-58.19,-992.84,113.75,-332.50,10036.25,1,94.111,
01/01/2000,01:14:26.86,21.35,-57.71,-992.47,52.50,-411.25,10053.75,1,94.118,
01/01/2000,01:14:26.87,20.86,-56.36,-992.59,52.50,-428.75,10421.25,1,94.124,
01/01/2000,01:14:26.88,20.37,-54.53,-992.96,-70.0,-385.0,10701.25,1,94.131,
01/01/2000,01:14:26.90,20.37,-53.19,-993.57,-122.50,-236.25,12162.50,1,94.030,
01/01/2000,01:14:26.91,20.74,-54.78,-992.84,-175.0,-288.75,13676.25,1,94.037,
01/01/2000,01:14:26.92,20.86,-56.85,-992.35,0.0,-192.50,14376.25,1,94.044,
01/01/2000,01:14:26.93,20.98,-58.68,-992.23,-43.75,-245.0,14122.50,1,94.050,
01/01/2000,01:14:26.94,20.98,-59.90,-992.35,8.75,-288.75,12853.75,1,94.057,
01/01/2000,01:14:26.95,20.98,-59.90,-992.59,26.25,-428.75,10080.0,1,94.064,
01/01/2000,01:14:26.97,20.62,-58.56,-992.96,210.0,-446.25,9065.0,1,94.071,
01/01/2000,01:14:26.98,20.37,-57.22,-992.96,96.25,-280.0,9485.0,1,94.077,
01/01/2000,01:14:26.99,20.25,-56.73,-992.96,183.75,-288.75,11208.75,1,94.084,
01/01/2000,01:14:27.00,20.25,-58.07,-992.84,96.25,-157.50,12162.50,1,94.091,
01/01/2000,01:14:27.01,20.50,-59.90,-992.84,148.75,-297.50,11182.50,1,94.098,
01/01/2000,01:14:27.02,20.62,-61.85,-992.59,43.75,-481.25,9100.0,1,94.104,
01/01/2000,01:14:27.03,20.74,-63.93,-992.47,96.25,-393.75,6562.50,1,94.111,
01/01/2000,01:14:27.04,20.62,-64.42,-992.10,218.75,-551.25,2747.50,1,94.118,
01/01/2000,01:14:27.05,20.62,-63.44,-992.10,87.50,-595.0,1155.0,1,94.124,
01/01/2000,01:14:27.06,20.62,-61.85,-992.35,280.0,-612.50,761.25,1,94.131,
01/01/2000,01:14:27.07,20.50,-60.51,-992.59,113.75,-586.25,2502.50,1,94.138,
01/01/2000,01:14:27.08,20.50,-59.90,-992.84,175.0,-551.25,3526.25,1,94.144,
01/01/2000,01:14:27.09,20.50,-60.88,-992.71,87.50,-516.25,4445.0,1,94.151,
01/01/2000,01:14:27.10,20.74,-62.46,-992.23,122.50,-586.25,4383.75,1,94.157,
01/01/2000,01:14:27.11,21.11,-62.95,-991.74,166.25,-708.75,3421.25,1,94.164,
01/01/2000,01:14:27.12,21.35,-62.46,-991.62,236.25,-595.0,2555.0,1,94.170,
01/01/2000,01:14:27.13,21.11,-61.37,-991.74,-52.50,-682.50,1268.75,1,94.177,
01/01/2000,01:14:27.14,20.74,-60.88,-992.35,192.50,-700.0,708.75,1,94.183,
01/01/2000,01:14:27.15,20.50,-60.76,-992.71,271.25,-603.75,542.50,1,94.190,
01/01/2000,01:14:27.16,20.62,-61.0,-992.59,192.50,-673.75,376.25,1,94.196,
01/01/2000,01:14:27.17,21.11,-61.24,-992.35,201.25,-656.25,96.25,1,94.098,
01/01/2000,01:14:27.18,21.11,-61.12,-992.23,8.75,-743.75,17.50,1,94.105,
01/01/2000,01:14:27.19,20.98,-61.0,-992.23,323.75,-586.25,-87.50,1,94.111,
01/01/2000,01:14:27.21,20.50,-60.02,-992.35,52.50,-735.0,-315.0,1,94.118,
01/01/2000,01:14:27.21,20.62,-59.54,-992.47,227.50,-630.0,-227.50,1,94.124,
01/01/2000,01:14:27.23,20.74,-59.29,-992.47,218.75,-586.25,-61.25,1,94.131,
01/01/2000,01:14:27.24,20.86,-59.41,-992.47,175.0,-717.50,-236.25,1,94.137,
01/01/2000,01:14:27.25,20.98,-60.02,-992.10,157.50,-691.25,-280.0,1,94.144,
01/01/2000,01:14:27.26,21.11,-60.02,-992.23,245.0,-638.75,-306.25,1,94.150,
01/01/2000,01:14:27.27,20.98,-59.54,-992.35,122.50,-717.50,-376.25,1,94.157,
01/01/2000,01:14:27.28,21.11,-59.05,-992.59,227.50,-787.50,-350.0,1,94.163,
01/01/2000,01:14:27.29,20.98,-58.68,-992.59,61.25,-796.25,-236.25,1,94.169,
01/01/2000,01:14:27.30,20.98,-58.68,-992.35,192.50,-743.75,-166.25,1,94.176,
01/01/2000,01:14:27.31,20.98,-59.17,-992.23,192.50,-796.25,-393.75,1,94.079,
01/01/2000,01:14:27.32,21.11,-59.41,-992.35,131.25,-665.0,-455.0,1,94.085,
01/01/2000,01:14:27.33,20.98,-59.29,-992.35,157.50,-700.0,-481.25,1,94.092,
01/01/2000,01:14:27.34,20.98,-59.17,-992.59,227.50,-770.0,-402.50,1,94.098,
01/01/2000,01:14:27.35,20.86,-58.68,-992.59,122.50,-866.25,-358.75,1,94.105,
01/01/2000,01:14:27.36,20.74,-58.80,-992.47,253.75,-770.0,-306.25,1,94.111,
01/01/2000,01:14:27.37,20.74,-58.93,-992.35,96.25,-778.75,-288.75,1,94.118,
01/01/2000,01:14:27.39,20.86,-59.29,-992.10,113.75,-656.25,-358.75,1,94.124,
01/01/2000,01:14:27.40,20.74,-59.54,-992.23,131.25,-700.0,-446.25,1,94.130,
01/01/2000,01:14:27.41,20.62,-59.05,-992.10,113.75,-778.75,-437.50,1,94.035,
01/01/2000,01:14:27.42,20.62,-58.80,-992.10,175.0,-717.50,-350.0,1,94.041,
01/01/2000,01:14:27.43,20.50,-58.80,-992.35,166.25,-717.50,-253.75,1,94.048,
01/01/2000,01:14:27.44,20.74,-59.29,-992.23,105.0,-700.0,-332.50,1,94.054,
01/01/2000,01:14:27.46,20.98,-59.29,-992.10,192.50,-612.50,-420.0,1,94.060,
01/01/2000,01:14:27.47,20.98,-59.29,-991.98,183.75,-805.0,-376.25,1,94.067,
01/01/2000,01:14:27.48,20.86,-58.93,-991.98,148.75,-700.0,-507.50,1,94.073,
01/01/2000,01:14:27.49,20.74,-58.80,-991.98,236.25,-647.50,-385.0,1,94.080,
01/01/2000,01:14:27.50,20.62,-58.56,-992.10,96.25,-708.75,-280.0,1,94.086,
01/01/2000,01:14:27.51,20.74,-58.68,-992.23,393.75,-691.25,-358.75,1,94.092,
01/01/2000,01:14:27.52,20.74,-58.80,-992.35,175.0,-770.0,-332.50,1,94.099,
01/01/2000,01:14:27.53,20.74,-59.05,-991.98,183.75,-647.50,-402.50,1,94.105,
01/01/2000,01:14:27.54,20.74,-58.80,-991.86,175.0,-778.75,-385.0,1,94.111,
01/01/2000,01:14:27.55,20.86,-58.80,-991.86,96.25,-717.50,-393.75,1,94.118,
01/01/2000,01:14:27.56,20.74,-58.80,-992.35,245.0,-726.25,-315.0,1,94.124,
01/01/2000,01:14:27.57,20.62,-58.80,-992.35,157.50,-638.75,-393.75,1,94.130,
01/01/2000,01:14:27.58,20.86,-58.80,-992.35,280.0,-700.0,-323.75,1,94.136,
01/01/2000,01:14:27.59,20.98,-58.93,-992.23,227.50,-603.75,-332.50,1,94.143,
01/01/2000,01:14:27.60,20.98,-59.17,-992.10,-61.25,-761.25,-446.25,1,94.149,
01/01/2000,01:14:27.61,20.98,-59.29,-992.10,148.75,-700.0,-341.25,1,94.155,
01/01/2000,01:14:27.62,20.86,-59.17,-992.23,105.0,-735.0,-358.75,1,94.161,
01/01/2000,01:14:27.63,20.98,-59.17,-992.23,157.50,-761.25,-411.25,1,94.168,
01/01/2000,01:14:27.64,20.98,-58.68,-992.10,140.0,-673.75,-332.50,1,94.174,
01/01/2000,01:14:27.65,20.98,-58.68,-992.10,122.50,-726.25,-323.75,1,94.180,
01/01/2000,01:14:27.66,20.98,-58.68,-992.23,113.75,-603.75,-367.50,1,94.186,
01/01/2000,01:14:27.67,20.86,-58.93,-992.35,122.50,-665.0,-306.25,1,94.093,
01/01/2000,01:14:27.68,20.86,-59.05,-992.35,175.0,-735.0,-385.0,1,94.099,
01/01/2000,01:14:27.69,20.86,-58.80,-992.47,210.0,-752.50,-297.50,1,94.105,
01/01/2000,01:14:27.70,20.98,-58.80,-992.35,253.75,-656.25,-358.75,1,94.111,
01/01/2000,01:14:27.71,20.98,-58.80,-992.47,262.50,-726.25,-262.50,1,94.118,
01/01/2000,01:14:27.72,20.98,-58.93,-992.59,140.0,-743.75,-385.0,1,94.124,
01/01/2000,01:14:27.74,21.11,-59.05,-992.59,262.50,-778.75,-367.50,1,94.130,
01/01/2000,01:14:27.75,21.11,-59.05,-992.35,131.25,-682.50,-437.50,1,94.136,
01/01/2000,01:14:27.76,20.98,-58.93,-992.23,78.75,-717.50,-385.0,1,94.142,
01/01/2000,01:14:27.77,20.98,-58.80,-992.10,61.25,-726.25,-315.0,1,94.148,
01/01/2000,01:14:27.78,20.98,-58.80,-992.35,78.75,-770.0,-376.25,1,94.154,
01/01/2000,01:14:27.79,20.98,-59.05,-992.23,166.25,-647.50,-393.75,1,94.161,
01/01/2000,01:14:27.80,20.98,-59.17,-992.23,166.25,-752.50,-288.75,1,94.167,
01/01/2000,01:14:27.81,20.98,-59.29,-992.10,157.50,-717.50,-358.75,1,94.173,
01/01/2000,01:14:27.82,21.11,-59.05,-991.86,148.75,-665.0,-306.25,1,94.179,
01/01/2000,01:14:27.83,21.11,-59.05,-991.86,253.75,-630.0,-437.50,1,94.185,
01/01/2000,01:14:27.84,20.98,-58.80,-991.98,78.75,-717.50,-323.75,1,94.191,
01/01/2000,01:14:27.85,20.98,-58.93,-992.10,218.75,-612.50,-385.0,1,94.197,
01/01/2000,01:14:27.86,20.98,-58.93,-992.10,201.25,-691.25,-420.0,1,94.203,
01/01/2000,01:14:27.87,20.98,-58.93,-991.98,227.50,-708.75,-358.75,1,94.209,
01/01/2000,01:14:27.89,20.98,-58.80,-992.10,166.25,-796.25,-420.0,1,94.118,
01/01/2000,01:14:27.90,20.98,-58.80,-991.98,140.0,-700.0,-358.75,1,94.124,
01/01/2000,01:14:27.91,20.86,-59.05,-992.10,175.0,-691.25,-253.75,1,94.130,
01/01/2000,01:14:27.92,20.74,-58.80,-991.98,78.75,-647.50,-271.25,1,94.136,
01/01/2000,01:14:27.93,20.98,-58.68,-991.86,175.0,-560.0,-332.50,1,94.142,
01/01/2000,01:14:27.94,21.11,-58.80,-991.86,43.75,-717.50,-271.25,1,94.148,
01/01/2000,01:14:27.95,20.98,-58.56,-991.86,192.50,-621.25,-280.0,1,94.057,
01/01/2000,01:14:27.96,20.86,-58.80,-992.10,-8.75,-682.50,-358.75,1,94.160,
01/01/2000,01:14:27.97,20.86,-58.80,-992.35,245.0,-647.50,-481.25,1,94.070,
01/01/2000,01:14:27.98,20.98,-58.93,-992.35,131.25,-708.75,-402.50,1,94.172,
01/01/2000,01:14:27.99,20.98,-58.56,-992.23,166.25,-770.0,-420.0,1,94.082,
01/01/2000,01:14:28.00,20.86,-58.80,-992.10,52.50,-638.75,-210.0,1,94.088,
01/01/2000,01:14:28.01,20.98,-58.80,-991.98,78.75,-717.50,-358.75,1,94.094,
01/01/2000,01:14:28.02,20.98,-58.93,-992.10,192.50,-673.75,-332.50,1,94.100,
01/01/2000,01:14:28.03,20.86,-59.05,-992.23,271.25,-586.25,-253.75,1,94.106,
01/01/2000,01:14:28.04,20.74,-58.80,-992.23,17.50,-761.25,-358.75,1,94.112,
01/01/2000,01:14:28.05,20.74,-58.93,-992.10,253.75,-656.25,-323.75,1,94.118,
01/01/2000,01:14:28.06,20.86,-58.68,-992.10,148.75,-665.0,-350.0,1,94.124,
01/01/2000,01:14:28.07,20.74,-58.80,-991.98,201.25,-612.50,-306.25,1,94.130,
01/01/2000,01:14:28.08,20.50,-58.80,-992.10,315.0,-717.50,-393.75,1,94.135,
01/01/2000,01:14:28.10,20.74,-58.68,-992.10,262.50,-796.25,-437.50,1,94.141,
01/01/2000,01:14:28.11,20.98,-58.80,-991.98,70.0,-787.50,-350.0,1,94.147,
01/01/2000,01:14:28.12,20.74,-58.93,-992.10,78.75,-717.50,-271.25,1,94.153,
01/01/2000,01:14:28.13,20.25,-59.17,-992.23,201.25,-717.50,-393.75,1,94.159,
01/01/2000,01:14:28.14,20.25,-59.05,-992.35,210.0,-752.50,-525.0,1,94.165,
01/01/2000,01:14:28.15,20.62,-58.56,-992.23,157.50,-673.75,-385.0,1,94.171,
01/01/2000,01:14:28.16,20.62,-58.80,-992.10,157.50,-700.0,-166.25,1,94.177,
01/01/2000,01:14:28.17,20.50,-59.17,-991.98,201.25,-761.25,-323.75,1,94.183,
01/01/2000,01:14:28.18,20.50,-59.29,-992.23,105.0,-603.75,-350.0,1,94.188,
01/01/2000,01:14:28.19,20.50,-59.29,-992.35,323.75,-656.25,-341.25,1,94.194,
01/01/2000,01:14:28.20,20.62,-59.05,-992.35,201.25,-673.75,-437.50,1,94.200,
01/01/2000,01:14:28.21,20.74,-58.68,-992.35,35.0,-691.25,-358.75,1,94.206,
01/01/2000,01:14:28.22,20.74,-58.56,-992.10,140.0,-761.25,-166.25,1,94.118,
01/01/2000,01:14:28.24,20.86,-58.80,-992.10,192.50,-603.75,-428.75,1,94.124,
01/01/2000,01:14:28.25,20.98,-59.05,-992.35,166.25,-787.50,-341.25,1,94.129,
01/01/2000,01:14:28.26,21.11,-59.05,-992.23,166.25,-708.75,-411.25,1,94.135,
01/01/2000,01:14:28.27,20.98,-58.93,-992.10,61.25,-743.75,-358.75,1,94.141,
01/01/2000,01:14:28.28,21.11,-58.80,-992.23,131.25,-700.0,-420.0,1,94.147,
01/01/2000,01:14:28.29,21.11,-58.80,-992.35,140.0,-586.25,-271.25,1,94.153,
01/01/2000,01:14:28.30,21.11,-58.93,-992.35,210.0,-673.75,-262.50,1,94.158,
01/01/2000,01:14:28.31,21.11,-59.17,-992.35,78.75,-735.0,-297.50,1,94.164,
01/01/2000,01:14:28.32,21.23,-59.29,-992.35,148.75,-708.75,-341.25,1,94.170,
01/01/2000,01:14:28.33,21.11,-59.29,-991.98,96.25,-630.0,-358.75,1,94.176,
01/01/2000,01:14:28.34,20.98,-58.93,-992.10,8.75,-673.75,-323.75,1,94.181,
01/01/2000,01:14:28.35,20.98,-58.80,-992.23,35.0,-673.75,-323.75,1,94.187,
01/01/2000,01:14:28.36,21.11,-58.68,-992.35,192.50,-621.25,-245.0,1,94.193,
01/01/2000,01:14:28.37,20.86,-59.05,-992.35,262.50,-708.75,-393.75,1,94.106,
01/01/2000,01:14:28.38,20.98,-59.17,-992.23,236.25,-673.75,-332.50,1,94.112,
01/01/2000,01:14:28.39,21.11,-59.05,-992.23,87.50,-708.75,-367.50,1,94.118,
01/01/2000,01:14:28.40,21.11,-59.05,-992.35,131.25,-621.25,-262.50,1,94.123,
01/01/2000,01:14:28.41,21.11,-59.17,-992.59,288.75,-691.25,-315.0,1,94.129,
01/01/2000,01:14:28.42,21.11,-59.17,-992.59,210.0,-770.0,-376.25,1,94.135,
01/01/2000,01:14:28.44,20.98,-59.05,-992.23,8.75,-682.50,-428.75,1,94.141,
01/01/2000,01:14:28.45,20.98,-59.17,-992.23,183.75,-700.0,-323.75,1,94.055,
01/01/2000,01:14:28.46,20.98,-59.05,-992.23,253.75,-630.0,-341.25,1,94.060,
01/01/2000,01:14:28.47,20.98,-59.05,-992.23,253.75,-630.0,-332.50,1,94.066,
01/01/2000,01:14:28.48,20.98,-59.05,-992.35,148.75,-700.0,-367.50,1,94.072,
01/01/2000,01:14:28.49,20.98,-59.05,-992.10,183.75,-726.25,-350.0,1,94.078,
01/01/2000,01:14:28.50,20.98,-58.93,-992.10,350.0,-647.50,-253.75,1,94.083,
01/01/2000,01:14:28.51,20.98,-58.80,-992.23,122.50,-822.50,-315.0,1,94.089,
01/01/2000,01:14:28.52,21.11,-59.05,-992.35,280.0,-577.50,-376.25,1,94.095,
01/01/2000,01:14:28.53,20.86,-58.80,-992.35,148.75,-577.50,-411.25,1,94.101,
01/01/2000,01:14:28.54,20.74,-58.93,-992.47,227.50,-647.50,-280.0,1,94.106,
01/01/2000,01:14:28.55,20.98,-58.93,-992.35,280.0,-743.75,-420.0,1,94.112,
01/01/2000,01:14:28.56,20.74,-58.80,-992.35,332.50,-691.25,-315.0,1,94.118,
01/01/2000,01:14:28.57,20.74,-59.05,-992.35,148.75,-813.75,-306.25,1,94.123,
01/01/2000,01:14:28.59,20.86,-59.05,-992.47,245.0,-665.0,-315.0,1,94.129,
01/01/2000,01:14:28.60,20.74,-59.05,-992.59,288.75,-726.25,-315.0,1,94.135,
01/01/2000,01:14:28.61,20.74,-58.93,-992.59,210.0,-726.25,-411.25,1,94.140,
01/01/2000,01:14:28.62,20.86,-58.80,-992.47,166.25,-770.0,-245.0,1,94.146,
01/01/2000,01:14:28.63,20.86,-58.80,-992.47,271.25,-638.75,-245.0,1,94.151,
01/01/2000,01:14:28.64,20.98,-59.05,-992.47,183.75,-805.0,-402.50,1,94.157,
01/01/2000,01:14:28.65,20.98,-59.05,-992.35,201.25,-735.0,-402.50,1,94.163,
01/01/2000,01:14:28.66,20.86,-59.05,-992.47,96.25,-638.75,-341.25,1,94.168,
01/01/2000,01:14:28.67,20.86,-58.93,-992.47,210.0,-647.50,-437.50,1,94.174,
01/01/2000,01:14:28.68,20.74,-58.80,-992.47,227.50,-691.25,-288.75,1,94.179,
01/01/2000,01:14:28.69,20.74,-58.56,-992.47,61.25,-682.50,-376.25,1,94.185,
01/01/2000,01:14:28.70,20.86,-58.93,-992.47,332.50,-577.50,-288.75,1,94.190,
01/01/2000,01:14:28.71,20.62,-59.17,-992.35,96.25,-586.25,-341.25,1,94.196,
01/01/2000,01:14:28.72,20.74,-59.29,-992.35,192.50,-647.50,-367.50,1,94.112,
01/01/2000,01:14:28.73,20.74,-59.29,-992.35,210.0,-691.25,-393.75,1,94.118,
01/01/2000,01:14:28.74,20.74,-58.93,-992.47,78.75,-700.0,-358.75,1,94.123,
01/01/2000,01:14:28.75,20.74,-58.93,-992.59,157.50,-770.0,-288.75,1,94.129,
01/01/2000,01:14:28.76,20.74,-58.93,-992.59,157.50,-708.75,-350.0,1,94.134,
01/01/2000,01:14:28.77,20.86,-59.05,-992.47,140.0,-595.0,-393.75,1,94.140,
01/01/2000,01:14:28.78,20.98,-59.29,-992.35,297.50,-665.0,-297.50,1,94.145,
01/01/2000,01:14:28.80,20.98,-59.05,-992.10,192.50,-708.75,-297.50,1,94.151,
01/01/2000,01:14:28.81,20.98,-59.05,-992.23,96.25,-630.0,-341.25,1,94.156,
01/01/2000,01:14:28.82,20.98,-58.93,-992.35,210.0,-735.0,-323.75,1,94.162,
01/01/2000,01:14:28.83,20.98,-58.93,-992.59,96.25,-717.50,-376.25,1,94.167,
01/01/2000,01:14:28.84,20.98,-58.93,-992.47,148.75,-787.50,-245.0,1,94.173,
01/01/2000,01:14:28.85,20.98,-59.05,-992.35,192.50,-822.50,-358.75,1,94.178,
01/01/2000,01:14:28.86,21.11,-58.93,-992.23,253.75,-691.25,-420.0,1,94.184,
01/01/2000,01:14:28.87,20.98,-58.93,-992.10,166.25,-630.0,-341.25,1,94.189,
01/01/2000,01:14:28.88,20.86,-58.93,-992.10,192.50,-682.50,-332.50,1,94.195,
01/01/2000,01:14:28.89,20.86,-58.93,-992.10,280.0,-691.25,-245.0,1,94.200,
01/01/2000,01:14:28.90,20.98,-58.80,-992.10,113.75,-770.0,-402.50,1,94.206,
01/01/2000,01:14:28.91,21.11,-59.05,-992.23,227.50,-700.0,-323.75,1,94.211,
01/01/2000,01:14:28.92,21.11,-58.80,-992.23,17.50,-787.50,-358.75,1,94.216,
01/01/2000,01:14:28.94,20.98,-59.05,-992.35,253.75,-630.0,-341.25,1,94.134,
01/01/2000,01:14:28.95,20.98,-58.80,-992.47,175.0,-621.25,-332.50,1,94.140,
01/01/2000,01:14:28.96,21.11,-58.56,-992.35,262.50,-700.0,-341.25,1,94.145,
01/01/2000,01:14:28.97,21.23,-58.80,-992.35,96.25,-743.75,-332.50,1,94.150,
01/01/2000,01:14:28.98,20.98,-58.68,-992.35,140.0,-700.0,-271.25,1,94.156,
01/01/2000,01:14:28.99,20.98,-58.93,-992.35,175.0,-770.0,-463.75,1,94.161,
01/01/2000,01:14:29.00,20.98,-58.93,-992.35,140.0,-665.0,-332.50,1,94.167,
01/01/2000,01:14:29.01,20.98,-58.68,-992.47,183.75,-717.50,-376.25,1,94.085,
01/01/2000,01:14:29.02,20.98,-58.56,-992.35,166.25,-673.75,-358.75,1,94.177,
01/01/2000,01:14:29.03,20.86,-58.68,-992.47,87.50,-638.75,-297.50,1,94.096,
01/01/2000,01:14:29.04,20.86,-58.93,-992.47,236.25,-691.25,-428.75,1,94.101,
01/01/2000,01:14:29.05,20.74,-59.17,-992.35,271.25,-612.50,-236.25,1,94.107,
01/01/2000,01:14:29.06,20.74,-59.17,-992.35,61.25,-603.75,-411.25,1,94.112,
01/01/2000,01:14:29.07,20.74,-59.05,-992.10,227.50,-682.50,-341.25,1,94.118,
01/01/2000,01:14:29.08,20.74,-58.80,-992.23,148.75,-595.0,-350.0,1,94.123,
01/01/2000,01:14:29.09,20.62,-58.93,-992.23,192.50,-708.75,-245.0,1,94.128,
01/01/2000,01:14:29.10,20.74,-59.05,-992.35,148.75,-621.25,-297.50,1,94.134,
01/01/2000,01:14:29.11,20.98,-59.29,-992.35,175.0,-752.50,-420.0,1,94.139,
01/01/2000,01:14:29.12,20.98,-59.05,-992.35,201.25,-726.25,-271.25,1,94.145,
01/01/2000,01:14:29.13,20.74,-59.17,-992.10,148.75,-708.75,-420.0,1,94.150,
01/01/2000,01:14:29.15,20.74,-59.05,-992.10,113.75,-726.25,-358.75,1,94.155,
01/01/2000,01:14:29.16,20.74,-58.93,-992.23,17.50,-577.50,-288.75,1,94.161,
01/01/2000,01:14:29.17,20.74,-58.93,-992.35,131.25,-708.75,-393.75,1,94.166,
01/01/2000,01:14:29.18,20.86,-59.05,-992.35,245.0,-708.75,-358.75,1,94.171,
01/01/2000,01:14:29.19,20.86,-58.80,-992.10,315.0,-682.50,-350.0,1,94.177,
01/01/2000,01:14:29.20,20.74,-58.80,-992.10,105.0,-656.25,-376.25,1,94.182,
01/01/2000,01:14:29.21,20.86,-58.56,-992.23,61.25,-708.75,-297.50,1,94.187,
01/01/2000,01:14:29.22,20.86,-58.80,-992.47,218.75,-717.50,-402.50,1,94.192,
01/01/2000,01:14:29.23,20.74,-59.05,-992.59,236.25,-665.0,-393.75,1,94.198,
01/01/2000,01:14:29.24,20.74,-59.05,-992.35,218.75,-630.0,-367.50,1,94.203,
01/01/2000,01:14:29.25,20.74,-58.93,-992.35,201.25,-717.50,-385.0,1,94.208,
01/01/2000,01:14:29.26,20.74,-58.93,-992.35,8.75,-665.0,-341.25,1,94.128,
01/01/2000,01:14:29.27,20.74,-58.93,-992.59,140.0,-647.50,-280.0,1,94.219,
01/01/2000,01:14:29.28,20.74,-59.05,-992.59,201.25,-691.25,-306.25,1,94.139,
01/01/2000,01:14:29.30,20.62,-59.05,-992.47,183.75,-761.25,-490.0,1,94.144,
01/01/2000,01:14:29.31,20.74,-58.80,-992.35,61.25,-735.0,-358.75,1,94.149,
01/01/2000,01:14:29.32,20.74,-58.80,-992.35,280.0,-630.0,-315.0,1,94.155,
01/01/2000,01:14:29.33,20.74,-58.93,-992.35,271.25,-656.25,-428.75,1,94.160,
01/01/2000,01:14:29.34,20.62,-58.93,-992.35,87.50,-770.0,-315.0,1,94.165,
01/01/2000,01:14:29.35,20.74,-58.93,-992.23,105.0,-630.0,-280.0,1,94.170,
01/01/2000,01:14:29.36,20.74,-58.80,-992.10,201.25,-665.0,-358.75,1,94.176,
01/01/2000,01:14:29.37,20.74,-58.68,-991.98,70.0,-665.0,-463.75,1,94.181,
01/01/2000,01:14:29.38,20.98,-58.80,-991.86,96.25,-770.0,-358.75,1,94.186,
01/01/2000,01:14:29.39,20.86,-58.80,-991.98,175.0,-708.75,-288.75,1,94.191,
01/01/2000,01:14:29.40,20.86,-59.05,-992.23,236.25,-743.75,-376.25,1,94.196,
01/01/2000,01:14:29.41,20.86,-58.93,-992.35,96.25,-770.0,-227.50,1,94.202,
01/01/2000,01:14:29.42,20.98,-59.17,-992.35,227.50,-717.50,-411.25,1,94.207,
01/01/2000,01:14:29.43,21.11,-59.05,-992.47,280.0,-770.0,-446.25,1,94.128,
01/01/2000,01:14:29.44,20.98,-59.05,-992.59,140.0,-735.0,-376.25,1,94.133,
01/01/2000,01:14:29.46,20.98,-59.05,-992.59,17.50,-621.25,-315.0,1,94.139,
01/01/2000,01:14:29.47,20.98,-59.05,-992.59,245.0,-796.25,-297.50,1,94.144,
01/01/2000,01:14:29.48,21.11,-59.05,-992.47,87.50,-612.50,-367.50,1,94.149,
01/01/2000,01:14:29.49,20.98,-59.05,-992.47,210.0,-621.25,-288.75,1,94.154,
01/01/2000,01:14:29.50,20.86,-58.80,-992.35,26.25,-630.0,-297.50,1,94.159,
01/01/2000,01:14:29.51,20.98,-58.93,-992.35,157.50,-787.50,-367.50,1,94.164,
01/01/2000,01:14:29.52,20.86,-59.05,-992.35,175.0,-726.25,-245.0,1,94.170,
01/01/2000,01:14:29.53,20.86,-59.05,-992.47,183.75,-770.0,-367.50,1,94.175,
01/01/2000,01:14:29.54,20.74,-59.05,-992.47,201.25,-665.0,-411.25,1,94.180,
01/01/2000,01:14:29.55,20.74,-58.93,-992.47,157.50,-735.0,-236.25,1,94.185,
01/01/2000,01:14:29.56,20.74,-59.17,-992.47,306.25,-603.75,-402.50,1,94.190,
01/01/2000,01:14:29.57,20.86,-59.05,-992.35,166.25,-708.75,-280.0,1,94.195,
01/01/2000,01:14:29.58,20.74,-58.93,-992.35,105.0,-673.75,-271.25,1,94.200,
01/01/2000,01:14:29.59,20.86,-59.17,-992.23,96.25,-603.75,-306.25,1,94.205,
01/01/2000,01:14:29.60,20.86,-58.80,-992.23,105.0,-778.75,-376.25,1,94.211,
01/01/2000,01:14:29.61,20.98,-58.93,-992.35,113.75,-691.25,-358.75,1,94.216,
01/01/2000,01:14:29.62,20.98,-58.80,-992.35,323.75,-507.50,-393.75,1,94.221,
01/01/2000,01:14:29.63,20.98,-58.80,-992.47,-26.25,-743.75,-210.0,1,94.143,
01/01/2000,01:14:29.64,20.98,-58.93,-992.47,113.75,-787.50,-280.0,1,94.148,
01/01/2000,01:14:29.65,20.98,-58.80,-992.47,166.25,-673.75,-306.25,1,94.154,
01/01/2000,01:14:29.66,20.98,-59.05,-992.35,271.25,-656.25,-393.75,1,94.159,
01/01/2000,01:14:29.67,21.11,-58.93,-992.59,96.25,-743.75,-358.75,1,94.164,
01/01/2000,01:14:29.68,20.98,-58.93,-992.47,78.75,-656.25,-253.75,1,94.169,
01/01/2000,01:14:29.69,21.11,-59.05,-992.35,52.50,-796.25,-393.75,1,94.174,
01/01/2000,01:14:29.70,20.86,-58.93,-992.35,280.0,-647.50,-288.75,1,94.179,
01/01/2000,01:14:29.72,21.11,-59.05,-992.35,43.75,-691.25,-201.25,1,94.184,
01/01/2000,01:14:29.73,21.23,-59.05,-992.35,166.25,-708.75,-463.75,1,94.189,
01/01/2000,01:14:29.74,21.11,-59.05,-992.35,105.0,-665.0,-315.0,1,94.194,
01/01/2000,01:14:29.75,21.11,-59.05,-992.47,122.50,-717.50,-297.50,1,94.199,
01/01/2000,01:14:29.76,21.11,-59.05,-992.35,271.25,-743.75,-341.25,1,94.204,
01/01/2000,01:14:29.77,21.11,-59.05,-992.10,183.75,-770.0,-297.50,1,94.209,
01/01/2000,01:14:29.78,21.11,-59.05,-992.35,227.50,-621.25,-385.0,1,94.214,
01/01/2000,01:14:29.79,20.98,-59.05,-992.47,218.75,-647.50,-262.50,1,94.219,
01/01/2000,01:14:29.80,21.11,-59.05,-992.35,218.75,-743.75,-411.25,1,94.224,
01/01/2000,01:14:29.81,21.11,-59.05,-992.35,218.75,-656.25,-315.0,1,94.229,
01/01/2000,01:14:29.82,20.98,-59.17,-992.23,78.75,-630.0,-315.0,1,94.234,
01/01/2000,01:14:29.83,20.86,-58.93,-992.23,87.50,-568.75,-350.0,1,94.239,
01/01/2000,01:14:29.84,20.98,-58.93,-992.35,148.75,-647.50,-315.0,1,94.244,
01/01/2000,01:14:29.85,20.98,-58.93,-992.47,157.50,-621.25,-428.75,1,94.168,
01/01/2000,01:14:29.87,20.86,-59.05,-992.47,87.50,-665.0,-376.25,1,94.173,
01/01/2000,01:14:29.87,20.86,-59.05,-992.23,61.25,-665.0,-393.75,1,94.178,
01/01/2000,01:14:29.89,20.98,-59.05,-992.23,210.0,-691.25,-306.25,1,94.183,
01/01/2000,01:14:29.90,20.98,-59.05,-992.35,105.0,-673.75,-428.75,1,94.188,
01/01/2000,01:14:29.91,20.98,-58.93,-992.47,183.75,-621.25,-245.0,1,94.193,
01/01/2000,01:14:29.92,21.11,-59.05,-992.35,183.75,-673.75,-297.50,1,94.198,
01/01/2000,01:14:29.93,21.11,-59.05,-992.59,87.50,-691.25,-315.0,1,94.203,
01/01/2000,01:14:29.94,20.98,-59.05,-992.35,87.50,-603.75,-393.75,1,94.208,
01/01/2000,01:14:29.95,20.86,-58.93,-992.35,288.75,-700.0,-271.25,1,94.213,
01/01/2000,01:14:29.96,20.74,-58.80,-992.23,140.0,-752.50,-341.25,1,94.138,
01/01/2000,01:14:29.97,20.62,-58.80,-992.10,175.0,-665.0,-358.75,1,94.143,
01/01/2000,01:14:29.98,20.86,-58.68,-992.35,183.75,-656.25,-428.75,1,94.148,
01/01/2000,01:14:30.00,20.86,-58.80,-992.47,166.25,-708.75,-306.25,1,94.153,
01/01/2000,01:14:30.01,20.98,-58.93,-992.59,122.50,-735.0,-271.25,1,94.157,
01/01/2000,01:14:30.02,20.74,-58.68,-992.35,122.50,-822.50,-341.25,1,94.162,
01/01/2000,01:14:30.03,20.74,-58.80,-992.35,280.0,-621.25,-463.75,1,94.167,
01/01/2000,01:14:30.04,20.86,-58.68,-992.35,131.25,-726.25,-385.0,1,94.172,
01/01/2000,01:14:30.05,20.86,-58.80,-992.47,227.50,-551.25,-157.50,1,94.177,
01/01/2000,01:14:30.06,20.86,-59.05,-992.47,166.25,-647.50,-332.50,1,94.182,
01/01/2000,01:14:30.07,20.74,-58.93,-992.35,70.0,-717.50,-350.0,1,94.187,
01/01/2000,01:14:30.08,20.86,-59.05,-992.35,210.0,-603.75,-376.25,1,94.192,
01/01/2000,01:14:30.09,20.98,-59.17,-992.23,245.0,-717.50,-297.50,1,94.197,
01/01/2000,01:14:30.10,20.98,-59.05,-992.35,96.25,-621.25,-358.75,1,94.202,
01/01/2000,01:14:30.11,20.86,-59.05,-992.59,166.25,-691.25,-227.50,1,94.207,
01/01/2000,01:14:30.12,20.86,-59.05,-992.47,288.75,-708.75,-437.50,1,94.211,
01/01/2000,01:14:30.13,20.98,-59.05,-992.35,262.50,-673.75,-446.25,1,94.216,
01/01/2000,01:14:30.14,20.98,-58.68,-992.35,148.75,-735.0,-262.50,1,94.221,
01/01/2000,01:14:30.15,20.98,-58.93,-992.35,140.0,-752.50,-280.0,1,94.226,
01/01/2000,01:14:30.16,21.11,-59.05,-992.47,105.0,-647.50,-288.75,1,94.152,
01/01/2000,01:14:30.17,21.11,-59.05,-992.47,183.75,-691.25,-332.50,1,94.236,
01/01/2000,01:14:30.18,20.98,-59.17,-992.35,52.50,-665.0,-411.25,1,94.162,
01/01/2000,01:14:30.19,20.98,-59.17,-992.35,271.25,-717.50,-446.25,1,94.167,
01/01/2000,01:14:30.21,20.98,-58.93,-992.47,140.0,-612.50,-262.50,1,94.172,
01/01/2000,01:14:30.22,20.98,-58.80,-992.35,131.25,-787.50,-323.75,1,94.176,
01/01/2000,01:14:30.23,20.86,-59.05,-992.35,113.75,-700.0,-358.75,1,94.181,
01/01/2000,01:14:30.24,20.98,-59.05,-992.35,166.25,-612.50,-411.25,1,94.186,
01/01/2000,01:14:30.25,20.98,-59.29,-992.35,280.0,-708.75,-428.75,1,94.191,
01/01/2000,01:14:30.26,21.23,-59.05,-992.35,87.50,-778.75,-455.0,1,94.196,
01/01/2000,01:14:30.27,21.23,-58.93,-992.35,166.25,-787.50,-306.25,1,94.201,
01/01/2000,01:14:30.28,21.23,-58.93,-992.59,61.25,-551.25,-358.75,1,94.205,
01/01/2000,01:14:30.29,21.23,-59.05,-992.59,140.0,-735.0,-306.25,1,94.210,
01/01/2000,01:14:30.30,21.11,-58.93,-992.59,140.0,-813.75,-323.75,1,94.215,
01/01/2000,01:14:30.31,21.23,-59.17,-992.59,271.25,-682.50,-288.75,1,94.220,
01/01/2000,01:14:30.32,21.35,-59.05,-992.35,140.0,-665.0,-376.25,1,94.224,
01/01/2000,01:14:30.33,21.23,-59.05,-992.47,157.50,-656.25,-280.0,1,94.229,
01/01/2000,01:14:30.34,20.98,-59.17,-992.23,175.0,-717.50,-245.0,1,94.156,
01/01/2000,01:14:30.35,20.86,-59.05,-992.35,148.75,-822.50,-402.50,1,94.161,
01/01/2000,01:14:30.36,20.98,-59.17,-992.35,140.0,-726.25,-332.50,1,94.166,
01/01/2000,01:14:30.37,20.98,-59.29,-992.35,210.0,-665.0,-507.50,1,94.171,
01/01/2000,01:14:30.38,20.98,-59.29,-992.23,0.0,-708.75,-201.25,1,94.176,
01/01/2000,01:14:30.39,20.98,-59.29,-992.10,166.25,-708.75,-393.75,1,94.180,
01/01/2000,01:14:30.40,20.98,-59.05,-992.35,140.0,-647.50,-280.0,1,94.185,
01/01/2000,01:14:30.42,21.23,-58.93,-992.59,227.50,-612.50,-341.25,1,94.190,
01/01/2000,01:14:30.43,21.23,-58.80,-992.59,140.0,-621.25,-402.50,1,94.195,
01/01/2000,01:14:30.44,21.23,-59.05,-992.35,210.0,-787.50,-218.75,1,94.199,
01/01/2000,01:14:30.45,21.11,-59.05,-992.35,35.0,-691.25,-280.0,1,94.204,
01/01/2000,01:14:30.46,21.11,-58.93,-992.35,218.75,-647.50,-280.0,1,94.209,
01/01/2000,01:14:30.47,21.23,-58.80,-992.35,157.50,-743.75,-358.75,1,94.214,
01/01/2000,01:14:30.48,21.11,-58.80,-992.35,175.0,-805.0,-367.50,1,94.142,
01/01/2000,01:14:30.49,21.23,-58.80,-992.35,166.25,-673.75,-332.50,1,94.146,
01/01/2000,01:14:30.50,21.23,-58.80,-992.47,218.75,-708.75,-350.0,1,94.151,
01/01/2000,01:14:30.51,21.11,-58.80,-992.47,350.0,-787.50,-385.0,1,94.156,
01/01/2000,01:14:30.52,21.23,-58.68,-992.47,87.50,-735.0,-367.50,1,94.161,
01/01/2000,01:14:30.53,21.11,-58.68,-992.47,131.25,-700.0,-341.25,1,94.165,
01/01/2000,01:14:30.54,21.11,-58.56,-992.47,140.0,-761.25,-428.75,1,94.170,
01/01/2000,01:14:30.56,20.98,-58.56,-992.59,122.50,-708.75,-402.50,1,94.175,
01/01/2000,01:14:30.57,21.11,-58.56,-992.59,61.25,-577.50,-218.75,1,94.179,
01/01/2000,01:14:30.58,21.11,-58.80,-992.47,227.50,-822.50,-297.50,1,94.184,
01/01/2000,01:14:30.59,20.98,-58.80,-992.47,218.75,-761.25,-367.50,1,94.189,
01/01/2000,01:14:30.60,21.11,-58.93,-992.35,166.25,-822.50,-455.0,1,94.194,
01/01/2000,01:14:30.61,21.23,-58.68,-992.47,78.75,-717.50,-332.50,1,94.198,
01/01/2000,01:14:30.62,21.11,-58.80,-992.59,105.0,-682.50,-350.0,1,94.203,
01/01/2000,01:14:30.63,21.11,-58.80,-992.59,183.75,-691.25,-262.50,1,94.208,
01/01/2000,01:14:30.64,20.98,-58.80,-992.59,288.75,-638.75,-455.0,1,94.212,
01/01/2000,01:14:30.65,20.98,-58.93,-992.59,113.75,-638.75,-253.75,1,94.217,
01/01/2000,01:14:30.66,20.86,-58.93,-992.59,61.25,-708.75,-350.0,1,94.222,
01/01/2000,01:14:30.67,20.98,-58.80,-992.59,140.0,-621.25,-393.75,1,94.226,
01/01/2000,01:14:30.68,20.98,-58.80,-992.59,140.0,-770.0,-393.75,1,94.231,
01/01/2000,01:14:30.69,20.86,-58.68,-992.59,148.75,-691.25,-332.50,1,94.235,
01/01/2000,01:14:30.70,20.98,-58.56,-992.47,192.50,-708.75,-323.75,1,94.240,
01/01/2000,01:14:30.71,21.11,-58.68,-992.47,262.50,-700.0,-358.75,1,94.245,
01/01/2000,01:14:30.72,21.11,-58.56,-992.47,113.75,-638.75,-358.75,1,94.249,
01/01/2000,01:14:30.73,21.23,-58.56,-992.35,87.50,-691.25,-332.50,1,94.254,
01/01/2000,01:14:30.74,21.11,-58.80,-992.23,140.0,-673.75,-210.0,1,94.258,
01/01/2000,01:14:30.75,20.98,-58.68,-992.10,131.25,-752.50,-393.75,1,94.263,
01/01/2000,01:14:30.77,20.98,-58.80,-991.98,166.25,-612.50,-323.75,1,94.193,
01/01/2000,01:14:30.78,20.98,-58.80,-992.10,210.0,-787.50,-271.25,1,94.197,
01/01/2000,01:14:30.79,21.11,-58.56,-992.10,-26.25,-743.75,-271.25,1,94.202,
01/01/2000,01:14:30.80,21.23,-58.80,-992.10,122.50,-647.50,-210.0,1,94.206,
01/01/2000,01:14:30.81,21.11,-58.80,-992.23,183.75,-612.50,-428.75,1,94.211,
01/01/2000,01:14:30.82,20.98,-58.68,-992.35,131.25,-840.0,-280.0,1,94.216,
01/01/2000,01:14:30.83,20.98,-58.80,-992.35,131.25,-647.50,-297.50,1,94.220,
01/01/2000,01:14:30.84,21.11,-58.68,-992.35,131.25,-708.75,-350.0,1,94.225,
01/01/2000,01:14:30.85,21.23,-58.80,-992.10,131.25,-761.25,-332.50,1,94.229,
01/01/2000,01:14:30.86,21.11,-58.80,-992.10,271.25,-638.75,-402.50,1,94.234,
01/01/2000,01:14:30.87,20.98,-59.05,-992.35,157.50,-708.75,-367.50,1,94.238,
01/01/2000,01:14:30.88,20.98,-58.93,-992.35,183.75,-691.25,-393.75,1,94.243,
01/01/2000,01:14:30.89,21.11,-58.93,-992.47,297.50,-673.75,-367.50,1,94.247,
01/01/2000,01:14:30.90,20.98,-58.93,-992.35,245.0,-682.50,-446.25,1,94.178,
01/01/2000,01:14:30.91,20.86,-59.05,-992.35,192.50,-691.25,-323.75,1,94.182,
01/01/2000,01:14:30.92,20.98,-59.29,-992.35,210.0,-918.75,-411.25,1,94.187,
01/01/2000,01:14:30.93,20.98,-59.41,-992.47,253.75,-778.75,-332.50,1,94.192,
01/01/2000,01:14:30.94,20.98,-59.17,-992.35,157.50,-700.0,-218.75,1,94.196,
01/01/2000,01:14:30.95,20.98,-59.05,-992.23,131.25,-656.25,-297.50,1,94.201,
01/01/2000,01:14:30.96,20.98,-59.05,-992.23,183.75,-796.25,-218.75,1,94.205,
01/01/2000,01:14:30.98,20.98,-59.17,-992.23,218.75,-630.0,-385.0,1,94.210,
01/01/2000,01:14:30.99,20.98,-59.17,-992.10,245.0,-735.0,-280.0,1,94.141,
01/01/2000,01:14:31.00,20.98,-59.17,-992.10,227.50,-551.25,-306.25,1,94.145,
01/01/2000,01:14:31.01,21.11,-59.05,-992.10,122.50,-621.25,-376.25,1,94.150,
01/01/2000,01:14:31.02,20.98,-59.17,-992.35,253.75,-621.25,-376.25,1,94.154,
01/01/2000,01:14:31.03,20.98,-58.93,-992.35,87.50,-682.50,-341.25,1,94.159,
01/01/2000,01:14:31.04,21.11,-59.17,-992.35,297.50,-630.0,-332.50,1,94.163,
01/01/2000,01:14:31.05,21.23,-58.93,-992.35,96.25,-612.50,-402.50,1,94.168,
01/01/2000,01:14:31.06,21.11,-59.05,-992.10,297.50,-656.25,-376.25,1,94.172,
01/01/2000,01:14:31.07,21.23,-58.80,-992.10,105.0,-630.0,-306.25,1,94.177,
01/01/2000,01:14:31.08,21.11,-58.80,-992.35,122.50,-778.75,-393.75,1,94.182,
01/01/2000,01:14:31.09,21.11,-58.80,-992.35,183.75,-735.0,-332.50,1,94.186,
01/01/2000,01:14:31.10,20.98,-58.80,-992.35,183.75,-717.50,-350.0,1,94.191,
01/01/2000,01:14:31.12,20.98,-58.56,-992.35,183.75,-700.0,-402.50,1,94.195,
01/01/2000,01:14:31.13,20.98,-58.68,-992.23,157.50,-726.25,-393.75,1,94.200,
01/01/2000,01:14:31.14,20.98,-58.56,-992.23,105.0,-673.75,-218.75,1,94.204,
01/01/2000,01:14:31.15,20.98,-58.56,-992.35,166.25,-691.25,-350.0,1,94.208,
01/01/2000,01:14:31.16,21.11,-58.68,-992.47,227.50,-717.50,-420.0,1,94.213,
01/01/2000,01:14:31.17,20.98,-58.68,-992.59,78.75,-630.0,-358.75,1,94.217,
01/01/2000,01:14:31.18,21.11,-58.68,-992.35,105.0,-761.25,-341.25,1,94.222,
01/01/2000,01:14:31.19,21.11,-58.68,-992.23,96.25,-682.50,-420.0,1,94.226,
01/01/2000,01:14:31.20,20.98,-58.56,-992.23,8.75,-656.25,-280.0,1,94.231,
01/01/2000,01:14:31.21,20.98,-58.80,-992.23,192.50,-700.0,-481.25,1,94.235,
01/01/2000,01:14:31.22,20.98,-58.68,-992.10,201.25,-708.75,-288.75,1,94.240,
01/01/2000,01:14:31.23,20.86,-58.56,-992.10,183.75,-726.25,-393.75,1,94.244,
01/01/2000,01:14:31.24,20.98,-58.56,-992.10,218.75,-691.25,-341.25,1,94.248,
01/01/2000,01:14:31.25,20.98,-58.80,-992.10,192.50,-647.50,-402.50,1,94.253,
01/01/2000,01:14:31.26,20.98,-58.80,-992.10,148.75,-691.25,-507.50,1,94.185,
01/01/2000,01:14:31.27,21.11,-58.56,-992.10,376.25,-630.0,-288.75,1,94.190,
01/01/2000,01:14:31.28,20.98,-58.56,-991.98,52.50,-708.75,-271.25,1,94.194,
01/01/2000,01:14:31.29,20.86,-58.32,-991.98,148.75,-726.25,-262.50,1,94.198,
01/01/2000,01:14:31.31,20.98,-58.68,-992.10,105.0,-700.0,-402.50,1,94.203,
01/01/2000,01:14:31.31,20.98,-58.56,-992.23,166.25,-630.0,-385.0,1,94.207,
01/01/2000,01:14:31.33,20.86,-58.68,-992.10,280.0,-656.25,-393.75,1,94.212,
01/01/2000,01:14:31.34,20.86,-58.68,-991.98,253.75,-708.75,-428.75,1,94.216,
01/01/2000,01:14:31.35,20.74,-58.56,-992.10,201.25,-665.0,-315.0,1,94.221,
01/01/2000,01:14:31.36,20.86,-58.56,-992.23,78.75,-665.0,-402.50,1,94.225,
01/01/2000,01:14:31.37,20.86,-58.68,-992.10,131.25,-752.50,-358.75,1,94.229,
01/01/2000,01:14:31.38,20.86,-58.56,-992.10,96.25,-735.0,-463.75,1,94.234,
01/01/2000,01:14:31.39,20.74,-58.68,-991.86,227.50,-691.25,-455.0,1,94.238,
01/01/2000,01:14:31.40,20.98,-58.68,-991.86,78.75,-743.75,-262.50,1,94.171,
01/01/2000,01:14:31.41,20.98,-58.68,-991.98,148.75,-708.75,-358.75,1,94.175,
01/01/2000,01:14:31.42,20.98,-58.80,-992.10,166.25,-691.25,-332.50,1,94.180,
01/01/2000,01:14:31.43,20.98,-58.80,-992.10,236.25,-638.75,-402.50,1,94.184,
01/01/2000,01:14:31.44,20.98,-58.80,-991.98,218.75,-700.0,-455.0,1,94.189,
01/01/2000,01:14:31.45,20.98,-58.80,-991.98,210.0,-726.25,-350.0,1,94.193,
01/01/2000,01:14:31.46,20.98,-58.80,-991.98,183.75,-717.50,-393.75,1,94.197,
01/01/2000,01:14:31.48,20.86,-58.80,-992.10,96.25,-717.50,-341.25,1,94.202,
01/01/2000,01:14:31.49,20.98,-58.80,-992.10,218.75,-630.0,-402.50,1,94.206,
01/01/2000,01:14:31.50,20.98,-58.80,-991.98,175.0,-656.25,-201.25,1,94.211,
01/01/2000,01:14:31.51,20.98,-58.56,-991.86,166.25,-735.0,-315.0,1,94.215,
01/01/2000,01:14:31.52,21.11,-58.56,-991.98,113.75,-708.75,-323.75,1,94.219,
01/01/2000,01:14:31.53,20.98,-58.80,-992.10,166.25,-621.25,-420.0,1,94.224,
01/01/2000,01:14:31.54,20.86,-58.80,-992.10,236.25,-638.75,-525.0,1,94.157,
01/01/2000,01:14:31.55,20.98,-58.80,-992.10,218.75,-621.25,-332.50,1,94.162,
01/01/2000,01:14:31.56,20.98,-58.56,-991.86,113.75,-682.50,-358.75,1,94.166,
01/01/2000,01:14:31.57,20.98,-58.56,-991.98,131.25,-630.0,-323.75,1,94.170,
01/01/2000,01:14:31.58,20.98,-58.68,-991.98,218.75,-665.0,-411.25,1,94.175,
01/01/2000,01:14:31.59,20.98,-59.05,-991.86,131.25,-656.25,-358.75,1,94.179,
01/01/2000,01:14:31.60,20.86,-59.17,-991.74,148.75,-735.0,-402.50,1,94.183,
01/01/2000,01:14:31.61,20.86,-58.80,-991.74,105.0,-638.75,-376.25,1,94.188,
01/01/2000,01:14:31.62,20.86,-58.80,-991.86,253.75,-717.50,-245.0,1,94.192,
01/01/2000,01:14:31.63,20.98,-58.68,-991.86,96.25,-752.50,-350.0,1,94.196,
01/01/2000,01:14:31.65,20.98,-58.80,-991.98,201.25,-796.25,-306.25,1,94.201,
01/01/2000,01:14:31.66,20.98,-59.17,-991.98,210.0,-673.75,-306.25,1,94.205,
01/01/2000,01:14:31.67,20.98,-58.93,-991.86,105.0,-787.50,-402.50,1,94.209,
01/01/2000,01:14:31.68,20.98,-59.05,-991.74,131.25,-735.0,-411.25,1,94.214,
01/01/2000,01:14:31.69,21.11,-58.80,-991.86,262.50,-796.25,-227.50,1,94.218,
01/01/2000,01:14:31.70,20.98,-58.80,-991.86,113.75,-682.50,-376.25,1,94.222,
01/01/2000,01:14:31.71,20.98,-58.93,-991.98,236.25,-787.50,-358.75,1,94.227,
01/01/2000,01:14:31.72,20.98,-59.05,-992.10,210.0,-621.25,-332.50,1,94.231,
01/01/2000,01:14:31.73,21.11,-59.05,-992.10,175.0,-638.75,-455.0,1,94.235,
01/01/2000,01:14:31.74,20.98,-58.93,-991.86,26.25,-595.0,-288.75,1,94.239,
01/01/2000,01:14:31.75,20.74,-58.68,-991.86,245.0,-708.75,-455.0,1,94.174,
01/01/2000,01:14:31.76,20.74,-58.56,-991.98,87.50,-673.75,-315.0,1,94.178,
01/01/2000,01:14:31.77,20.74,-58.56,-992.10,26.25,-673.75,-358.75,1,94.183,
01/01/2000,01:14:31.78,20.62,-58.80,-992.10,201.25,-735.0,-411.25,1,94.187,
01/01/2000,01:14:31.79,20.74,-58.80,-992.10,253.75,-638.75,-402.50,1,94.191,
01/01/2000,01:14:31.80,20.74,-58.80,-991.74,140.0,-665.0,-350.0,1,94.195,
01/01/2000,01:14:31.81,20.62,-58.56,-991.86,227.50,-752.50,-420.0,1,94.200,
01/01/2000,01:14:31.83,20.74,-58.56,-992.10,148.75,-726.25,-297.50,1,94.204,
01/01/2000,01:14:31.84,20.98,-58.68,-992.10,175.0,-656.25,-201.25,1,94.208,
01/01/2000,01:14:31.85,20.98,-58.80,-992.10,157.50,-717.50,-350.0,1,94.212,
01/01/2000,01:14:31.86,20.98,-58.93,-992.10,175.0,-647.50,-323.75,1,94.217,
01/01/2000,01:14:31.87,20.98,-59.05,-992.10,140.0,-726.25,-437.50,1,94.221,
01/01/2000,01:14:31.88,21.11,-58.93,-992.10,17.50,-691.25,-218.75,1,94.225,
01/01/2000,01:14:31.89,20.98,-58.80,-992.10,218.75,-743.75,-288.75,1,94.229,
01/01/2000,01:14:31.90,20.98,-58.80,-992.23,262.50,-691.25,-323.75,1,94.234,
01/01/2000,01:14:31.91,20.98,-58.56,-992.23,297.50,-752.50,-306.25,1,94.238,
01/01/2000,01:14:31.92,21.23,-58.80,-992.10,280.0,-691.25,-402.50,1,94.242,
01/01/2000,01:14:31.93,21.35,-58.80,-992.10,52.50,-700.0,-411.25,1,94.246,
01/01/2000,01:14:31.94,21.23,-58.93,-992.10,245.0,-796.25,-350.0,1,94.250,
01/01/2000,01:14:31.95,21.35,-58.68,-991.98,113.75,-770.0,-315.0,1,94.255,
01/01/2000,01:14:31.96,21.23,-58.68,-992.23,236.25,-831.25,-341.25,1,94.190,
01/01/2000,01:14:31.97,21.23,-58.68,-992.23,43.75,-787.50,-358.75,1,94.194,
01/01/2000,01:14:31.98,21.23,-58.80,-992.10,157.50,-717.50,-350.0,1,94.199,
01/01/2000,01:14:31.99,21.23,-59.05,-991.98,192.50,-700.0,-253.75,1,94.203,
01/01/2000,01:14:32.01,21.23,-58.93,-991.98,183.75,-743.75,-358.75,1,94.207,
01/01/2000,01:14:32.02,21.11,-58.68,-992.10,61.25,-700.0,-166.25,1,94.143,
01/01/2000,01:14:32.03,21.11,-58.80,-992.10,157.50,-656.25,-411.25,1,94.147,
01/01/2000,01:14:32.04,20.98,-58.56,-992.10,-70.0,-778.75,-306.25,1,94.152,
01/01/2000,01:14:32.05,21.23,-58.80,-992.10,236.25,-700.0,-341.25,1,94.156,
01/01/2000,01:14:32.06,21.23,-58.80,-992.10,166.25,-673.75,-376.25,1,94.160,
01/01/2000,01:14:32.07,21.35,-58.93,-992.10,157.50,-595.0,-367.50,1,94.164,
01/01/2000,01:14:32.08,21.23,-58.80,-992.23,105.0,-726.25,-367.50,1,94.168,
01/01/2000,01:14:32.09,21.23,-58.68,-992.10,262.50,-778.75,-315.0,1,94.173,
01/01/2000,01:14:32.11,21.35,-58.56,-992.10,52.50,-656.25,-332.50,1,94.177,
01/01/2000,01:14:32.12,21.23,-58.56,-992.10,140.0,-708.75,-323.75,1,94.181,
01/01/2000,01:14:32.13,21.11,-58.80,-992.10,96.25,-612.50,-367.50,1,94.185,
01/01/2000,01:14:32.14,21.11,-59.05,-992.10,183.75,-875.0,-297.50,1,94.189,
01/01/2000,01:14:32.15,21.11,-58.80,-992.10,166.25,-813.75,-516.25,1,94.194,
01/01/2000,01:14:32.16,21.23,-58.80,-992.10,253.75,-708.75,-393.75,1,94.198,
01/01/2000,01:14:32.17,21.11,-58.80,-991.98,192.50,-831.25,-350.0,1,94.202,
01/01/2000,01:14:32.18,21.11,-58.80,-991.98,113.75,-743.75,-315.0,1,94.206,
01/01/2000,01:14:32.19,21.23,-59.05,-991.86,183.75,-700.0,-315.0,1,94.210,
01/01/2000,01:14:32.20,21.23,-59.17,-991.86,175.0,-665.0,-288.75,1,94.214,
01/01/2000,01:14:32.21,21.11,-59.05,-992.10,148.75,-743.75,-376.25,1,94.218,
01/01/2000,01:14:32.22,21.11,-59.05,-992.10,245.0,-717.50,-332.50,1,94.223,
01/01/2000,01:14:32.23,21.11,-58.68,-992.10,43.75,-796.25,-96.25,1,94.227,
01/01/2000,01:14:32.24,20.98,-58.80,-992.10,166.25,-743.75,-420.0,1,94.231,
01/01/2000,01:14:32.25,20.98,-58.80,-992.23,201.25,-796.25,-350.0,1,94.235,
01/01/2000,01:14:32.26,21.11,-59.05,-992.47,245.0,-665.0,-472.50,1,94.239,
01/01/2000,01:14:32.27,21.35,-59.05,-992.35,201.25,-743.75,-306.25,1,94.243,
01/01/2000,01:14:32.28,21.23,-59.05,-992.23,140.0,-743.75,-341.25,1,94.247,
01/01/2000,01:14:32.29,21.23,-58.80,-992.35,0.0,-770.0,-376.25,1,94.251,
01/01/2000,01:14:32.30,20.98,-58.80,-992.59,140.0,-787.50,-376.25,1,94.255,
01/01/2000,01:14:32.32,20.98,-58.80,-992.59,122.50,-708.75,-332.50,1,94.193,
01/01/2000,01:14:32.33,21.11,-58.80,-992.47,113.75,-656.25,-341.25,1,94.197,
01/01/2000,01:14:32.34,21.11,-58.93,-992.35,192.50,-752.50,-446.25,1,94.201,
01/01/2000,01:14:32.35,21.11,-59.05,-992.35,227.50,-682.50,-367.50,1,94.205,
01/01/2000,01:14:32.36,21.11,-58.93,-992.47,183.75,-708.75,-315.0,1,94.209,
01/01/2000,01:14:32.37,20.98,-58.80,-992.47,122.50,-595.0,-376.25,1,94.213,
01/01/2000,01:14:32.38,21.11,-58.93,-992.23,96.25,-612.50,-350.0,1,94.217,
01/01/2000,01:14:32.39,20.98,-59.05,-992.10,96.25,-700.0,-227.50,1,94.221,
01/01/2000,01:14:32.40,20.98,-58.93,-992.10,96.25,-603.75,-341.25,1,94.225,
01/01/2000,01:14:32.41,20.98,-59.17,-992.23,262.50,-612.50,-367.50,1,94.229,
01/01/2000,01:14:32.42,20.86,-59.05,-992.35,201.25,-761.25,-280.0,1,94.233,
01/01/2000,01:14:32.43,20.74,-59.17,-992.23,157.50,-761.25,-446.25,1,94.238,
01/01/2000,01:14:32.44,20.98,-59.17,-992.10,253.75,-682.50,-332.50,1,94.242,
01/01/2000,01:14:32.45,20.98,-58.93,-992.10,183.75,-638.75,-350.0,1,94.246,
01/01/2000,01:14:32.46,21.11,-59.17,-991.98,218.75,-682.50,-367.50,1,94.184,
01/01/2000,01:14:32.47,20.98,-59.17,-992.23,192.50,-726.25,-376.25,1,94.188,
01/01/2000,01:14:32.48,20.98,-59.17,-992.23,192.50,-743.75,-323.75,1,94.192,
01/01/2000,01:14:32.49,21.11,-59.05,-992.35,157.50,-717.50,-367.50,1,94.196,
01/01/2000,01:14:32.50,21.23,-58.93,-992.35,271.25,-673.75,-367.50,1,94.200,
01/01/2000,01:14:32.52,21.23,-59.05,-992.23,183.75,-735.0,-245.0,1,94.204,
01/01/2000,01:14:32.53,21.23,-58.93,-992.23,0.0,-778.75,-323.75,1,94.208,
01/01/2000,01:14:32.54,21.23,-59.29,-992.23,183.75,-700.0,-420.0,1,94.212,
01/01/2000,01:14:32.55,21.11,-59.29,-992.10,105.0,-595.0,-350.0,1,94.216,
01/01/2000,01:14:32.56,21.11,-59.05,-992.10,245.0,-708.75,-376.25,1,94.220,
01/01/2000,01:14:32.57,21.11,-58.80,-992.10,113.75,-717.50,-376.25,1,94.224,
01/01/2000,01:14:32.58,20.98,-58.93,-991.98,175.0,-665.0,-280.0,1,94.228,
01/01/2000,01:14:32.59,21.11,-59.05,-992.10,26.25,-752.50,-376.25,1,94.232,
01/01/2000,01:14:32.60,21.23,-59.17,-992.10,280.0,-726.25,-367.50,1,94.236,
01/01/2000,01:14:32.61,21.23,-59.05,-992.10,78.75,-638.75,-262.50,1,94.175,
01/01/2000,01:14:32.62,21.23,-58.93,-992.10,218.75,-656.25,-376.25,1,94.244,
01/01/2000,01:14:32.63,21.23,-58.80,-992.10,306.25,-665.0,-411.25,1,94.183,
01/01/2000,01:14:32.64,20.98,-58.93,-992.23,245.0,-752.50,-358.75,1,94.187,
01/01/2000,01:14:32.65,20.98,-58.93,-992.35,245.0,-682.50,-358.75,1,94.191,
01/01/2000,01:14:32.67,21.23,-58.93,-992.47,183.75,-822.50,-288.75,1,94.195,
01/01/2000,01:14:32.68,21.23,-58.93,-992.35,157.50,-708.75,-437.50,1,94.199,
01/01/2000,01:14:32.69,21.23,-58.80,-992.23,131.25,-621.25,-210.0,1,94.203,
01/01/2000,01:14:32.70,21.23,-58.93,-992.10,148.75,-682.50,-288.75,1,94.207,
01/01/2000,01:14:32.71,21.11,-58.93,-992.23,61.25,-691.25,-280.0,1,94.211,
01/01/2000,01:14:32.72,21.11,-58.80,-992.35,35.0,-726.25,-341.25,1,94.215,
01/01/2000,01:14:32.73,21.23,-59.05,-992.35,157.50,-656.25,-236.25,1,94.219,
01/01/2000,01:14:32.74,21.23,-58.80,-992.35,175.0,-778.75,-192.50,1,94.223,
01/01/2000,01:14:32.75,21.23,-58.80,-992.35,157.50,-630.0,-306.25,1,94.227,
01/01/2000,01:14:32.76,21.11,-58.80,-992.59,105.0,-691.25,-297.50,1,94.231,
01/01/2000,01:14:32.77,21.11,-58.80,-992.59,271.25,-603.75,-323.75,1,94.235,
01/01/2000,01:14:32.78,21.23,-58.93,-992.47,253.75,-761.25,-376.25,1,94.239,
01/01/2000,01:14:32.79,21.23,-58.93,-992.59,236.25,-770.0,-350.0,1,94.243,
01/01/2000,01:14:32.80,21.23,-58.80,-992.59,183.75,-700.0,-385.0,1,94.247,
01/01/2000,01:14:32.81,21.23,-58.80,-992.59,245.0,-682.50,-367.50,1,94.186,
01/01/2000,01:14:32.82,21.23,-58.80,-992.47,61.25,-673.75,-420.0,1,94.190,
01/01/2000,01:14:32.83,21.11,-58.80,-992.47,131.25,-682.50,-201.25,1,94.194,
01/01/2000,01:14:32.84,21.23,-58.80,-992.35,227.50,-770.0,-402.50,1,94.198,
01/01/2000,01:14:32.85,21.35,-58.80,-992.35,227.50,-691.25,-175.0,1,94.202,
01/01/2000,01:14:32.86,21.23,-58.93,-992.10,210.0,-717.50,-402.50,1,94.206,
01/01/2000,01:14:32.88,21.23,-58.80,-992.10,245.0,-638.75,-446.25,1,94.210,
01/01/2000,01:14:32.89,21.23,-58.93,-992.10,131.25,-717.50,-315.0,1,94.214,
01/01/2000,01:14:32.90,21.23,-58.68,-992.23,166.25,-761.25,-385.0,1,94.218,
01/01/2000,01:14:32.91,21.23,-58.80,-992.10,236.25,-770.0,-306.25,1,94.222,
01/01/2000,01:14:32.92,20.98,-58.68,-992.10,96.25,-700.0,-315.0,1,94.226,
01/01/2000,01:14:32.93,21.11,-58.80,-991.98,87.50,-752.50,-437.50,1,94.229,
01/01/2000,01:14:32.94,21.11,-58.80,-992.10,192.50,-752.50,-393.75,1,94.233,
01/01/2000,01:14:32.95,21.11,-58.80,-992.23,175.0,-805.0,-420.0,1,94.237,
01/01/2000,01:14:32.96,21.11,-58.80,-992.35,210.0,-691.25,-140.0,1,94.241,
01/01/2000,01:14:32.97,20.98,-58.93,-992.10,105.0,-743.75,-341.25,1,94.181,
01/01/2000,01:14:32.98,20.98,-59.05,-992.23,70.0,-665.0,-367.50,1,94.249,
01/01/2000,01:14:32.99,20.98,-59.05,-992.23,262.50,-735.0,-376.25,1,94.189,
01/01/2000,01:14:33.00,20.98,-58.80,-992.10,183.75,-638.75,-420.0,1,94.193,
01/01/2000,01:14:33.01,20.98,-58.80,-992.10,157.50,-682.50,-341.25,1,94.197,
01/01/2000,01:14:33.03,20.74,-58.44,-992.10,218.75,-673.75,-280.0,1,94.201,
01/01/2000,01:14:33.04,20.74,-58.56,-992.10,183.75,-726.25,-385.0,1,94.205,
01/01/2000,01:14:33.05,20.98,-58.56,-992.35,148.75,-726.25,-367.50,1,94.209,
01/01/2000,01:14:33.06,20.98,-58.80,-992.23,253.75,-630.0,-323.75,1,94.213,
01/01/2000,01:14:33.07,20.98,-58.93,-992.10,315.0,-630.0,-525.0,1,94.217,
01/01/2000,01:14:33.08,21.11,-58.80,-992.10,175.0,-735.0,-236.25,1,94.220,
01/01/2000,01:14:33.09,21.11,-58.68,-992.10,175.0,-700.0,-358.75,1,94.161,
01/01/2000,01:14:33.10,20.98,-58.80,-992.23,105.0,-691.25,-245.0,1,94.165,
01/01/2000,01:14:33.11,20.98,-58.93,-992.23,131.25,-612.50,-463.75,1,94.169,
01/01/2000,01:14:33.12,20.98,-58.80,-991.98,175.0,-726.25,-297.50,1,94.173,
01/01/2000,01:14:33.13,20.98,-58.93,-991.86,201.25,-621.25,-402.50,1,94.177,
01/01/2000,01:14:33.14,20.98,-59.05,-991.86,105.0,-708.75,-280.0,1,94.181,
01/01/2000,01:14:33.15,20.98,-59.05,-991.98,201.25,-647.50,-446.25,1,94.184,
01/01/2000,01:14:33.16,21.11,-58.93,-991.86,306.25,-577.50,-358.75,1,94.188,
01/01/2000,01:14:33.17,20.98,-58.80,-991.86,148.75,-805.0,-341.25,1,94.192,
01/01/2000,01:14:33.18,20.98,-58.80,-991.74,140.0,-708.75,-393.75,1,94.196,
01/01/2000,01:14:33.19,20.86,-58.80,-991.62,192.50,-708.75,-358.75,1,94.200,
01/01/2000,01:14:33.20,20.98,-58.68,-991.62,166.25,-743.75,-402.50,1,94.204,
01/01/2000,01:14:33.21,21.23,-58.56,-991.86,17.50,-726.25,-393.75,1,94.208,
01/01/2000,01:14:33.23,21.23,-58.68,-991.86,183.75,-735.0,-516.25,1,94.212,
01/01/2000,01:14:33.24,20.98,-58.68,-991.86,245.0,-630.0,-385.0,1,94.215,
01/01/2000,01:14:33.25,20.98,-58.80,-991.74,87.50,-647.50,-323.75,1,94.219,
01/01/2000,01:14:33.26,20.98,-58.68,-991.86,148.75,-603.75,-420.0,1,94.223,
01/01/2000,01:14:33.27,20.98,-58.93,-991.98,253.75,-708.75,-236.25,1,94.227,
01/01/2000,01:14:33.28,21.23,-58.93,-991.98,236.25,-700.0,-332.50,1,94.231,
01/01/2000,01:14:33.29,20.98,-58.68,-991.98,183.75,-665.0,-358.75,1,94.235,
01/01/2000,01:14:33.30,20.98,-58.93,-992.10,131.25,-813.75,-367.50,1,94.176,
01/01/2000,01:14:33.31,20.98,-58.93,-992.10,201.25,-717.50,-271.25,1,94.180,
01/01/2000,01:14:33.32,21.11,-59.05,-991.98,201.25,-568.75,-358.75,1,94.184,
01/01/2000,01:14:33.33,21.11,-59.05,-991.98,166.25,-726.25,-323.75,1,94.188,
01/01/2000,01:14:33.34,21.23,-58.93,-991.98,192.50,-761.25,-280.0,1,94.191,
01/01/2000,01:14:33.35,20.98,-58.68,-991.86,131.25,-761.25,-428.75,1,94.195,
01/01/2000,01:14:33.36,20.98,-58.80,-991.98,105.0,-717.50,-288.75,1,94.199,
01/01/2000,01:14:33.38,20.98,-58.93,-992.10,131.25,-717.50,-385.0,1,94.203,
01/01/2000,01:14:33.39,20.98,-59.05,-992.10,43.75,-647.50,-402.50,1,94.207,
01/01/2000,01:14:33.40,20.98,-58.80,-992.10,148.75,-743.75,-315.0,1,94.211,
01/01/2000,01:14:33.41,20.98,-58.93,-992.10,157.50,-735.0,-323.75,1,94.214,
01/01/2000,01:14:33.42,20.98,-58.93,-992.10,148.75,-665.0,-428.75,1,94.218,
01/01/2000,01:14:33.43,20.98,-58.68,-992.10,166.25,-708.75,-271.25,1,94.222,
01/01/2000,01:14:33.44,20.98,-58.80,-992.10,192.50,-656.25,-358.75,1,94.226,
01/01/2000,01:14:33.45,20.98,-58.80,-992.35,148.75,-770.0,-323.75,1,94.230,
01/01/2000,01:14:33.46,20.86,-58.80,-992.23,113.75,-752.50,-428.75,1,94.233,
01/01/2000,01:14:33.47,20.86,-58.80,-992.10,192.50,-665.0,-341.25,1,94.237,
01/01/2000,01:14:33.48,20.74,-58.80,-992.23,175.0,-621.25,-402.50,1,94.241,
01/01/2000,01:14:33.49,20.98,-58.80,-992.23,236.25,-752.50,-323.75,1,94.245,
01/01/2000,01:14:33.50,20.86,-58.80,-992.10,122.50,-647.50,-271.25,1,94.248,
01/01/2000,01:14:33.51,20.86,-58.80,-991.98,131.25,-630.0,-341.25,1,94.191,
01/01/2000,01:14:33.52,20.98,-58.93,-991.98,-17.50,-682.50,-315.0,1,94.194,
01/01/2000,01:14:33.53,21.23,-59.05,-991.86,271.25,-647.50,-472.50,1,94.198,
01/01/2000,01:14:33.55,23.30,-58.80,-992.59,315.0,-778.75,-743.75,1,94.202,
01/01/2000,01:14:33.56,26.11,-58.19,-992.84,122.50,-612.50,-385.0,1,94.206,
01/01/2000,01:14:33.57,27.69,-58.80,-992.23,175.0,-630.0,-61.25,1,94.209,
01/01/2000,01:14:33.58,28.67,-59.05,-991.13,61.25,-708.75,-358.75,1,94.213,
01/01/2000,01:14:33.59,29.65,-59.29,-990.88,122.50,-682.50,-420.0,1,94.217,
01/01/2000,01:14:33.60,30.26,-59.17,-991.62,175.0,-708.75,-481.25,1,94.221,
01/01/2000,01:14:33.61,30.62,-58.93,-992.71,245.0,-682.50,-332.50,1,94.225,
01/01/2000,01:14:33.62,30.99,-58.44,-993.32,192.50,-621.25,-341.25,1,94.228,
01/01/2000,01:14:33.63,31.72,-58.19,-992.59,157.50,-647.50,-323.75,1,94.232,
01/01/2000,01:14:33.64,32.33,-58.32,-991.74,26.25,-726.25,-367.50,1,94.236,
01/01/2000,01:14:33.65,32.94,-58.68,-990.76,166.25,-743.75,-358.75,1,94.179,
01/01/2000,01:14:33.66,34.40,-59.05,-990.64,105.0,-647.50,-743.75,1,94.182,
01/01/2000,01:14:33.67,35.87,-58.80,-991.01,218.75,-638.75,-752.50,1,94.186,
01/01/2000,01:14:33.68,37.33,-58.68,-991.37,166.25,-673.75,-463.75,1,94.190,
01/01/2000,01:14:33.69,38.55,-58.32,-991.74,131.25,-638.75,-262.50,1,94.194,
01/01/2000,01:14:33.70,40.02,-58.32,-992.10,131.25,-638.75,-227.50,1,94.197,
01/01/2000,01:14:33.71,39.89,-58.56,-992.35,192.50,-726.25,-227.50,1,94.201,
01/01/2000,01:14:33.72,39.16,-58.93,-992.10,131.25,-840.0,-227.50,1,94.205,
01/01/2000,01:14:33.73,38.19,-59.05,-991.74,201.25,-743.75,-288.75,1,94.208,
01/01/2000,01:14:33.74,35.62,-58.68,-991.62,61.25,-665.0,-341.25,1,94.212,
01/01/2000,01:14:33.75,33.92,-58.07,-991.25,166.25,-743.75,-245.0,1,94.216,
01/01/2000,01:14:33.77,32.45,-58.07,-991.25,218.75,-717.50,-306.25,1,94.220,
01/01/2000,01:14:33.77,31.23,-58.19,-991.13,131.25,-682.50,-332.50,1,94.223,
01/01/2000,01:14:33.79,30.99,-58.56,-991.25,96.25,-673.75,-542.50,1,94.227,
01/01/2000,01:14:33.80,32.57,-58.68,-991.86,113.75,-752.50,-682.50,1,94.231,
01/01/2000,01:14:33.81,33.43,-58.56,-991.98,148.75,-726.25,-393.75,1,94.234,
01/01/2000,01:14:33.82,32.94,-59.05,-991.62,70.0,-752.50,105.0,1,94.238,
01/01/2000,01:14:33.83,31.35,-58.93,-991.25,236.25,-822.50,-17.50,1,94.242,
01/01/2000,01:14:33.84,28.43,-59.05,-991.13,122.50,-805.0,-245.0,1,94.246,
01/01/2000,01:14:33.85,24.28,-58.80,-991.37,306.25,-656.25,-577.50,1,94.249,
01/01/2000,01:14:33.86,22.33,-57.83,-991.86,297.50,-612.50,-691.25,1,94.193,
01/01/2000,01:14:33.87,22.69,-57.34,-992.10,-17.50,-595.0,-568.75,1,94.196,
01/01/2000,01:14:33.88,23.91,-58.07,-992.10,315.0,-673.75,-358.75,1,94.200,
01/01/2000,01:14:33.89,25.38,-58.56,-992.10,148.75,-656.25,-271.25,1,94.204,
01/01/2000,01:14:33.90,27.21,-59.41,-992.23,26.25,-778.75,-455.0,1,94.208,
01/01/2000,01:14:33.91,27.82,-59.66,-992.35,148.75,-595.0,-472.50,1,94.211,
01/01/2000,01:14:33.92,27.08,-59.29,-992.59,78.75,-805.0,-341.25,1,94.215,
01/01/2000,01:14:33.94,24.64,-58.32,-992.59,78.75,-840.0,-8.75,1,94.219,
01/01/2000,01:14:33.95,21.72,-58.44,-992.23,140.0,-682.50,122.50,1,94.222,
01/01/2000,01:14:33.96,19.28,-58.56,-991.86,131.25,-708.75,-463.75,1,94.226,
01/01/2000,01:14:33.97,17.32,-58.56,-991.86,105.0,-647.50,-752.50,1,94.230,
01/01/2000,01:14:33.98,18.18,-58.56,-991.86,210.0,-735.0,-848.75,1,94.233,
01/01/2000,01:14:33.99,19.76,-58.56,-991.98,245.0,-673.75,-621.25,1,94.237,
01/01/2000,01:14:34.00,21.72,-58.44,-992.10,61.25,-743.75,-175.0,1,94.241,
01/01/2000,01:14:34.01,24.16,-59.29,-992.59,140.0,-796.25,-253.75,1,94.244,
01/01/2000,01:14:34.02,24.89,-59.29,-992.84,61.25,-726.25,-315.0,1,94.248,
01/01/2000,01:14:34.03,24.64,-59.05,-993.08,192.50,-682.50,-341.25,1,94.251,
01/01/2000,01:14:34.04,24.16,-58.80,-992.96,70.0,-752.50,-297.50,1,94.255,
01/01/2000,01:14:34.05,21.84,-58.32,-992.10,183.75,-647.50,-43.75,1,94.199,
01/01/2000,01:14:34.07,20.01,-58.56,-991.74,122.50,-700.0,-192.50,1,94.203,
01/01/2000,01:14:34.08,18.30,-59.17,-991.62,262.50,-656.25,-525.0,1,94.207,
01/01/2000,01:14:34.09,18.06,-58.56,-991.86,122.50,-673.75,-717.50,1,94.210,
01/01/2000,01:14:34.10,19.03,-58.44,-991.98,70.0,-595.0,-621.25,1,94.214,
01/01/2000,01:14:34.11,21.47,-58.44,-992.23,253.75,-638.75,-271.25,1,94.217,
01/01/2000,01:14:34.12,22.94,-58.44,-992.47,78.75,-770.0,-192.50,1,94.221,
01/01/2000,01:14:34.13,23.79,-59.17,-992.10,218.75,-717.50,-280.0,1,94.225,
01/01/2000,01:14:34.14,24.28,-59.54,-992.10,306.25,-665.0,-455.0,1,94.228,
01/01/2000,01:14:34.15,23.42,-59.05,-992.35,61.25,-682.50,-271.25,1,94.232,
01/01/2000,01:14:34.16,22.57,-58.68,-992.23,-8.75,-787.50,-236.25,1,94.236,
01/01/2000,01:14:34.17,21.23,-58.44,-992.10,262.50,-700.0,-175.0,1,94.239,
01/01/2000,01:14:34.18,19.40,-57.95,-991.86,157.50,-761.25,-148.75,1,94.243,
01/01/2000,01:14:34.19,17.57,-58.32,-991.62,96.25,-656.25,-332.50,1,94.246,
01/01/2000,01:14:34.20,17.32,-58.44,-992.10,218.75,-717.50,-463.75,1,94.250,
01/01/2000,01:14:34.21,18.06,-58.44,-992.35,148.75,-673.75,-700.0,1,94.254,
01/01/2000,01:14:34.22,20.50,-58.32,-992.35,175.0,-682.50,-498.75,1,94.198,
01/01/2000,01:14:34.23,22.20,-58.44,-992.35,96.25,-743.75,-201.25,1,94.202,
01/01/2000,01:14:34.24,23.67,-58.68,-992.10,192.50,-647.50,-253.75,1,94.206,
01/01/2000,01:14:34.25,24.89,-59.05,-991.86,113.75,-831.25,-411.25,1,94.209,
01/01/2000,01:14:34.26,24.77,-59.17,-991.98,192.50,-787.50,-262.50,1,94.213,
01/01/2000,01:14:34.27,24.28,-59.05,-992.10,148.75,-717.50,-245.0,1,94.216,
01/01/2000,01:14:34.29,22.45,-58.56,-992.23,52.50,-603.75,-157.50,1,94.220,
01/01/2000,01:14:34.30,20.25,-58.56,-992.35,175.0,-778.75,-52.50,1,94.224,
01/01/2000,01:14:34.31,17.32,-58.44,-992.10,245.0,-726.25,-280.0,1,94.227,
01/01/2000,01:14:34.32,16.35,-58.32,-992.10,323.75,-682.50,-446.25,1,94.231,
01/01/2000,01:14:34.33,16.84,-58.07,-992.35,271.25,-647.50,-665.0,1,94.234,
01/01/2000,01:14:34.34,18.30,-58.07,-992.84,157.50,-638.75,-402.50,1,94.238,
01/01/2000,01:14:34.35,20.13,-58.32,-992.84,17.50,-770.0,-280.0,1,94.241,
01/01/2000,01:14:34.36,22.81,-58.80,-992.47,183.75,-708.75,-411.25,1,94.245,
01/01/2000,01:14:34.37,24.03,-59.05,-991.98,262.50,-770.0,-262.50,1,94.249,
01/01/2000,01:14:34.38,23.79,-59.05,-991.62,43.75,-857.50,-218.75,1,94.252,
01/01/2000,01:14:34.39,22.69,-58.80,-991.62,131.25,-752.50,-192.50,1,94.256,
01/01/2000,01:14:34.40,21.11,-58.56,-991.74,157.50,-603.75,-52.50,1,94.259,
01/01/2000,01:14:34.41,19.03,-58.56,-992.10,148.75,-568.75,-367.50,1,94.263,
01/01/2000,01:14:34.42,18.18,-58.07,-992.23,218.75,-586.25,-402.50,1,94.266,
01/01/2000,01:14:34.43,18.67,-57.95,-992.10,140.0,-691.25,-280.0,1,94.212,
01/01/2000,01:14:34.44,19.64,-58.44,-991.74,271.25,-621.25,-498.75,1,94.215,
01/01/2000,01:14:34.45,21.11,-58.68,-991.62,140.0,-708.75,-437.50,1,94.219,
01/01/2000,01:14:34.46,22.45,-59.05,-991.74,113.75,-638.75,-402.50,1,94.222,
01/01/2000,01:14:34.47,24.03,-59.41,-991.98,113.75,-717.50,-525.0,1,94.226,
01/01/2000,01:14:34.48,24.16,-59.05,-992.35,183.75,-717.50,-341.25,1,94.230,
01/01/2000,01:14:34.50,23.06,-58.32,-992.10,-26.25,-638.75,-262.50,1,94.233,
01/01/2000,01:14:34.51,21.35,-58.56,-991.74,236.25,-778.75,-8.75,1,94.237,
01/01/2000,01:14:34.52,19.03,-58.56,-991.37,52.50,-700.0,-113.75,1,94.240,
01/01/2000,01:14:34.53,17.08,-59.05,-991.86,262.50,-735.0,-577.50,1,94.244,
01/01/2000,01:14:34.54,17.08,-58.68,-992.59,323.75,-656.25,-875.0,1,94.247,
01/01/2000,01:14:34.55,17.81,-58.19,-992.84,175.0,-621.25,-691.25,1,94.251,
01/01/2000,01:14:34.57,20.74,-58.32,-991.13,166.25,-665.0,-262.50,1,94.197,
01/01/2000,01:14:34.58,21.96,-58.56,-990.64,105.0,-656.25,-262.50,1,94.200,
01/01/2000,01:14:34.59,23.67,-59.29,-990.88,70.0,-840.0,-507.50,1,94.204,
01/01/2000,01:14:34.60,24.40,-59.54,-991.62,148.75,-595.0,-481.25,1,94.207,
01/01/2000,01:14:34.61,24.52,-59.05,-992.10,236.25,-805.0,-437.50,1,94.211,
01/01/2000,01:14:34.62,23.91,-58.56,-991.62,306.25,-673.75,-87.50,1,94.214,
01/01/2000,01:14:34.63,22.20,-58.32,-990.76,157.50,-752.50,87.50,1,94.218,
01/01/2000,01:14:34.64,19.40,-58.68,-991.98,148.75,-778.75,-245.0,1,94.221,
01/01/2000,01:14:34.65,18.42,-58.93,-993.81,96.25,-708.75,-682.50,1,94.225,
01/01/2000,01:14:34.66,18.06,-59.29,-995.28,253.75,-455.0,-490.0,1,94.228,
01/01/2000,01:14:34.67,18.42,-58.56,-994.79,236.25,-656.25,-297.50,1,94.232,
01/01/2000,01:14:34.68,19.28,-58.32,-993.45,175.0,-647.50,-288.75,1,94.235,
01/01/2000,01:14:34.69,20.37,-58.19,-992.35,105.0,-682.50,-393.75,1,94.239,
01/01/2000,01:14:34.70,21.72,-58.56,-991.62,105.0,-717.50,-332.50,1,94.242,
01/01/2000,01:14:34.71,23.18,-59.29,-991.62,122.50,-778.75,-393.75,1,94.189,
01/01/2000,01:14:34.72,24.16,-59.29,-992.23,280.0,-708.75,-455.0,1,94.192,
01/01/2000,01:14:34.73,24.16,-59.05,-992.59,148.75,-813.75,-262.50,1,94.196,
01/01/2000,01:14:34.74,22.81,-58.56,-992.59,26.25,-665.0,-26.25,1,94.199,
01/01/2000,01:14:34.75,20.62,-58.56,-992.10,262.50,-656.25,17.50,1,94.203,
01/01/2000,01:14:34.76,18.30,-58.56,-991.62,350.0,-717.50,-297.50,1,94.206,
01/01/2000,01:14:34.77,16.71,-58.32,-991.86,148.75,-612.50,-516.25,1,94.210,
01/01/2000,01:14:34.79,18.06,-58.80,-992.59,280.0,-603.75,-813.75,1,94.213,
01/01/2000,01:14:34.80,19.89,-58.44,-992.59,280.0,-665.0,-525.0,1,94.217,
01/01/2000,01:14:34.81,21.84,-58.56,-992.35,113.75,-787.50,-122.50,1,94.220,
01/01/2000,01:14:34.82,23.42,-58.93,-991.62,96.25,-743.75,-183.75,1,94.224,
01/01/2000,01:14:34.83,23.79,-59.29,-990.88,227.50,-708.75,-166.25,1,94.227,
01/01/2000,01:14:34.84,24.16,-59.05,-990.76,35.0,-673.75,-455.0,1,94.231,
01/01/2000,01:14:34.85,23.67,-59.29,-990.88,420.0,-691.25,-280.0,1,94.234,
01/01/2000,01:14:34.86,20.98,-58.32,-991.62,8.75,-857.50,35.0,1,94.238,
01/01/2000,01:14:34.87,18.91,-58.68,-992.23,227.50,-586.25,43.75,1,94.241,
01/01/2000,01:14:34.88,17.20,-58.80,-992.59,253.75,-603.75,-612.50,1,94.245,
01/01/2000,01:14:34.89,16.71,-58.19,-993.20,-8.75,-630.0,-647.50,1,94.248,
01/01/2000,01:14:34.90,18.06,-58.19,-993.08,367.50,-638.75,-682.50,1,94.251,
01/01/2000,01:14:34.91,20.37,-58.07,-992.84,315.0,-691.25,-603.75,1,94.199,
01/01/2000,01:14:34.93,22.81,-58.19,-991.86,43.75,-735.0,-131.25,1,94.202,
01/01/2000,01:14:34.94,23.42,-59.05,-991.25,157.50,-778.75,-183.75,1,94.205,
