rtcDate,rtcTime,aX,aY,aZ,gX,gY,gZ,dataRdy,output_Hz,
01/01/2000,01:28:10.20,16.35,-53.92,-862.91,87.50,-761.25,-323.75,1,0.0,
01/01/2000,01:28:10.21,16.96,-55.14,-885.96,148.75,-612.50,-332.50,1,100.0,
01/01/2000,01:28:10.23,17.32,-56.49,-904.75,183.75,-638.75,-376.25,1,100.0,
01/01/2000,01:28:10.24,17.45,-57.10,-915.49,183.75,-735.0,-192.50,1,100.0,
01/01/2000,01:28:10.25,17.81,-57.83,-925.00,96.25,-708.75,-315.0,1,100.0,
01/01/2000,01:28:10.26,17.93,-58.44,-937.20,192.50,-752.50,-350.0,1,100.0,
01/01/2000,01:28:10.27,18.06,-59.05,-944.04,105.0,-577.50,-350.0,1,100.0,
01/01/2000,01:28:10.28,18.18,-59.17,-949.89,201.25,-595.0,-297.50,1,100.0,
01/01/2000,01:28:10.29,18.30,-59.66,-955.14,122.50,-656.25,-341.25,1,100.0,
01/01/2000,01:28:10.30,18.42,-59.90,-961.85,140.0,-778.75,-297.50,1,100.0,
01/01/2000,01:28:10.31,18.42,-60.15,-965.75,131.25,-761.25,-367.50,1,100.0,
01/01/2000,01:28:10.32,18.54,-60.27,-969.05,192.50,-656.25,-280.0,1,100.0,
01/01/2000,01:28:10.33,18.67,-60.51,-971.85,210.0,-700.0,-236.25,1,100.0,
01/01/2000,01:28:10.34,18.54,-60.76,-975.63,227.50,-700.0,-481.25,1,100.0,
01/01/2000,01:28:10.35,18.54,-61.0,-977.83,210.0,-586.25,-323.75,1,100.0,
01/01/2000,01:28:10.36,18.67,-61.24,-979.78,96.25,-726.25,-332.50,1,100.0,
01/01/2000,01:28:10.37,18.79,-61.24,-981.25,157.50,-656.25,-332.50,1,100.0,
01/01/2000,01:28:10.38,18.67,-61.24,-983.44,70.0,-726.25,-262.50,1,100.0,
01/01/2000,01:28:10.39,18.79,-61.49,-984.66,175.0,-726.25,-367.50,1,100.0,
01/01/2000,01:28:10.40,18.79,-61.49,-985.76,113.75,-682.50,-367.50,1,100.0,
01/01/2000,01:28:10.41,18.67,-61.73,-986.74,43.75,-647.50,-323.75,1,100.0,
01/01/2000,01:28:10.42,18.67,-61.73,-987.47,218.75,-813.75,-271.25,1,100.0,
01/01/2000,01:28:10.43,18.91,-61.73,-988.08,78.75,-787.50,-315.0,1,100.0,
01/01/2000,01:28:10.44,19.03,-61.61,-988.81,61.25,-603.75,-332.50,1,100.0,
01/01/2000,01:28:10.45,19.03,-61.73,-989.79,210.0,-717.50,-297.50,1,100.0,
01/01/2000,01:28:10.46,19.03,-61.61,-990.40,157.50,-551.25,-297.50,1,100.0,
01/01/2000,01:28:10.47,19.03,-61.73,-990.64,105.0,-735.0,-393.75,1,100.0,
01/01/2000,01:28:10.48,19.03,-61.73,-991.01,122.50,-691.25,-402.50,1,96.552,
01/01/2000,01:28:10.49,19.03,-61.73,-991.01,183.75,-612.50,-332.50,1,96.667,
01/01/2000,01:28:10.50,19.03,-61.61,-991.37,122.50,-682.50,-332.50,1,96.774,
01/01/2000,01:28:10.51,18.91,-61.85,-991.86,157.50,-665.0,-332.50,1,96.875,
01/01/2000,01:28:10.52,18.79,-61.98,-992.10,122.50,-603.75,-350.0,1,96.970,
01/01/2000,01:28:10.53,18.79,-61.85,-992.10,288.75,-726.25,-315.0,1,97.059,
01/01/2000,01:28:10.55,19.03,-61.73,-991.98,78.75,-761.25,-315.0,1,97.143,
01/01/2000,01:28:10.56,19.03,-61.85,-991.86,280.0,-805.0,-271.25,1,97.222,
01/01/2000,01:28:10.57,18.91,-61.98,-992.10,140.0,-533.75,-437.50,1,97.297,
01/01/2000,01:28:10.58,19.03,-61.85,-992.35,262.50,-691.25,-315.0,1,97.368,
01/01/2000,01:28:10.59,18.91,-61.73,-992.59,236.25,-708.75,-315.0,1,97.436,
01/01/2000,01:28:10.60,18.91,-61.85,-992.59,271.25,-673.75,-323.75,1,97.500,
01/01/2000,01:28:10.61,18.91,-61.85,-992.59,157.50,-673.75,-323.75,1,97.561,
01/01/2000,01:28:10.62,19.03,-61.98,-992.35,271.25,-560.0,-367.50,1,97.619,
01/01/2000,01:28:10.63,19.15,-62.22,-992.59,140.0,-621.25,-350.0,1,95.455,
01/01/2000,01:28:10.64,19.03,-62.34,-992.71,218.75,-708.75,-376.25,1,95.556,
01/01/2000,01:28:10.65,19.15,-62.10,-992.71,113.75,-778.75,-332.50,1,95.652,
01/01/2000,01:28:10.66,19.03,-61.98,-992.59,218.75,-682.50,-271.25,1,95.745,
01/01/2000,01:28:10.67,19.03,-61.98,-992.47,105.0,-665.0,-288.75,1,95.833,
01/01/2000,01:28:10.68,18.91,-61.98,-992.47,210.0,-682.50,-280.0,1,95.918,
01/01/2000,01:28:10.70,19.03,-61.98,-992.71,131.25,-665.0,-350.0,1,96.0,
01/01/2000,01:28:10.71,19.03,-61.98,-992.71,122.50,-586.25,-262.50,1,96.078,
01/01/2000,01:28:10.72,19.03,-61.73,-992.59,70.0,-665.0,-350.0,1,96.154,
01/01/2000,01:28:10.73,19.03,-61.73,-992.59,183.75,-638.75,-323.75,1,96.226,
01/01/2000,01:28:10.74,19.28,-61.73,-992.84,175.0,-717.50,-376.25,1,96.296,
01/01/2000,01:28:10.75,19.28,-61.85,-992.96,210.0,-612.50,-358.75,1,96.364,
01/01/2000,01:28:10.76,19.28,-61.85,-992.96,201.25,-735.0,-306.25,1,94.737,
01/01/2000,01:28:10.77,19.15,-61.85,-992.84,288.75,-665.0,-411.25,1,94.828,
01/01/2000,01:28:10.78,19.03,-61.73,-992.84,140.0,-717.50,-297.50,1,94.915,
01/01/2000,01:28:10.79,19.28,-61.85,-992.84,175.0,-743.75,-236.25,1,95.0,
01/01/2000,01:28:10.80,19.15,-61.85,-992.84,192.50,-665.0,-315.0,1,95.082,
01/01/2000,01:28:10.81,19.03,-61.85,-992.59,227.50,-673.75,-376.25,1,95.161,
01/01/2000,01:28:10.82,19.03,-61.73,-992.59,166.25,-638.75,-411.25,1,95.238,
01/01/2000,01:28:10.84,19.15,-61.73,-992.84,262.50,-682.50,-201.25,1,95.313,
01/01/2000,01:28:10.85,19.15,-61.73,-992.84,175.0,-656.25,-411.25,1,95.385,
01/01/2000,01:28:10.86,19.15,-61.73,-992.84,175.0,-796.25,-437.50,1,95.455,
01/01/2000,01:28:10.87,19.03,-61.73,-992.84,210.0,-778.75,-420.0,1,95.522,
01/01/2000,01:28:10.88,19.15,-61.73,-992.84,87.50,-708.75,-236.25,1,95.588,
01/01/2000,01:28:10.89,19.28,-61.73,-992.96,131.25,-778.75,-402.50,1,95.652,
01/01/2000,01:28:10.90,19.28,-61.73,-992.84,78.75,-796.25,-358.75,1,95.714,
01/01/2000,01:28:10.91,19.28,-61.98,-992.84,210.0,-621.25,-350.0,1,95.775,
01/01/2000,01:28:10.92,19.15,-61.98,-992.84,236.25,-665.0,-393.75,1,95.833,
01/01/2000,01:28:10.93,19.03,-61.98,-992.71,218.75,-595.0,-332.50,1,95.890,
01/01/2000,01:28:10.94,19.03,-61.98,-992.59,113.75,-630.0,-297.50,1,95.946,
01/01/2000,01:28:10.95,19.03,-61.98,-992.47,61.25,-700.0,-350.0,1,96.0,
01/01/2000,01:28:10.96,19.03,-61.98,-992.59,148.75,-691.25,-402.50,1,96.053,
01/01/2000,01:28:10.98,19.15,-61.85,-992.96,245.0,-612.50,-253.75,1,94.872,
01/01/2000,01:28:10.99,19.28,-61.73,-993.08,122.50,-796.25,-253.75,1,94.937,
01/01/2000,01:28:11.00,19.03,-62.22,-992.84,192.50,-638.75,-315.0,1,95.0,
01/01/2000,01:28:11.01,18.79,-62.34,-992.47,113.75,-560.0,-367.50,1,95.062,
01/01/2000,01:28:11.02,18.79,-62.22,-992.35,201.25,-700.0,-402.50,1,95.122,
01/01/2000,01:28:11.03,19.15,-62.10,-992.35,0.0,-638.75,-218.75,1,95.181,
01/01/2000,01:28:11.04,19.28,-62.10,-992.84,218.75,-647.50,-288.75,1,95.238,
01/01/2000,01:28:11.05,18.79,-62.22,-992.59,166.25,-665.0,-411.25,1,95.294,
01/01/2000,01:28:11.06,18.54,-62.22,-992.35,280.0,-682.50,-472.50,1,95.349,
01/01/2000,01:28:11.07,18.79,-62.22,-992.23,131.25,-735.0,-385.0,1,95.402,
01/01/2000,01:28:11.08,19.03,-61.98,-992.35,253.75,-761.25,-367.50,1,95.455,
01/01/2000,01:28:11.09,19.15,-61.98,-992.47,236.25,-717.50,-297.50,1,95.506,
01/01/2000,01:28:11.10,18.79,-62.22,-992.35,113.75,-691.25,-315.0,1,95.556,
01/01/2000,01:28:11.11,18.54,-62.10,-992.59,183.75,-603.75,-402.50,1,95.604,
01/01/2000,01:28:11.12,18.79,-61.73,-992.59,96.25,-743.75,-376.25,1,94.624,
01/01/2000,01:28:11.13,19.03,-61.73,-992.59,105.0,-691.25,-262.50,1,94.681,
01/01/2000,01:28:11.14,19.15,-61.73,-992.47,192.50,-603.75,-271.25,1,94.737,
01/01/2000,01:28:11.15,18.79,-62.22,-992.35,201.25,-813.75,-420.0,1,94.792,
01/01/2000,01:28:11.16,18.79,-62.22,-992.59,271.25,-656.25,-463.75,1,94.845,
01/01/2000,01:28:11.17,19.03,-61.85,-992.84,70.0,-717.50,-332.50,1,94.898,
01/01/2000,01:28:11.19,19.28,-61.61,-992.59,210.0,-665.0,-210.0,1,94.949,
01/01/2000,01:28:11.20,19.03,-61.61,-992.47,122.50,-621.25,-245.0,1,95.0,
01/01/2000,01:28:11.21,18.79,-61.98,-992.35,122.50,-700.0,-420.0,1,95.050,
01/01/2000,01:28:11.22,18.91,-61.98,-992.59,210.0,-822.50,-446.25,1,95.098,
01/01/2000,01:28:11.23,19.28,-61.73,-992.84,253.75,-700.0,-306.25,1,94.231,
01/01/2000,01:28:11.24,19.28,-61.61,-992.59,183.75,-761.25,-376.25,1,94.286,
01/01/2000,01:28:11.25,18.91,-61.73,-992.23,122.50,-708.75,-280.0,1,94.340,
01/01/2000,01:28:11.26,18.91,-61.73,-992.23,218.75,-577.50,-315.0,1,94.393,
01/01/2000,01:28:11.27,19.03,-61.98,-992.47,131.25,-595.0,-262.50,1,94.444,
01/01/2000,01:28:11.28,19.40,-61.98,-992.71,236.25,-700.0,-306.25,1,94.495,
01/01/2000,01:28:11.29,19.40,-61.85,-992.59,61.25,-717.50,-306.25,1,94.545,
01/01/2000,01:28:11.31,19.03,-61.73,-992.35,236.25,-735.0,-315.0,1,94.595,
01/01/2000,01:28:11.31,19.03,-61.73,-992.35,271.25,-700.0,-385.0,1,94.643,
01/01/2000,01:28:11.33,19.28,-61.49,-992.71,157.50,-770.0,-341.25,1,94.690,
01/01/2000,01:28:11.34,19.28,-61.61,-992.96,78.75,-568.75,-341.25,1,94.737,
01/01/2000,01:28:11.35,19.03,-61.61,-992.59,8.75,-682.50,-463.75,1,94.783,
01/01/2000,01:28:11.36,18.79,-61.73,-992.23,105.0,-700.0,-376.25,1,94.828,
01/01/2000,01:28:11.37,18.91,-61.85,-992.10,96.25,-743.75,-376.25,1,94.872,
01/01/2000,01:28:11.38,19.03,-61.73,-992.23,236.25,-708.75,-341.25,1,94.915,
01/01/2000,01:28:11.39,19.28,-61.73,-992.35,140.0,-691.25,-332.50,1,94.958,
01/01/2000,01:28:11.40,19.03,-61.85,-992.23,70.0,-621.25,-297.50,1,95.0,
01/01/2000,01:28:11.41,19.03,-61.85,-992.10,113.75,-673.75,-341.25,1,95.041,
01/01/2000,01:28:11.42,19.15,-61.98,-992.23,52.50,-682.50,-350.0,1,95.082,
01/01/2000,01:28:11.43,19.40,-61.85,-992.59,131.25,-708.75,-323.75,1,95.122,
01/01/2000,01:28:11.44,19.40,-61.98,-992.59,113.75,-805.0,-271.25,1,95.161,
01/01/2000,01:28:11.45,19.28,-61.98,-992.47,148.75,-717.50,-350.0,1,95.200,
01/01/2000,01:28:11.46,19.03,-61.98,-992.23,157.50,-638.75,-358.75,1,95.238,
01/01/2000,01:28:11.47,19.15,-61.73,-992.23,183.75,-638.75,-367.50,1,94.531,
01/01/2000,01:28:11.48,19.28,-61.73,-992.10,218.75,-647.50,-306.25,1,94.574,
01/01/2000,01:28:11.49,19.28,-61.85,-992.23,166.25,-673.75,-323.75,1,94.615,
01/01/2000,01:28:11.50,19.28,-62.10,-991.98,201.25,-717.50,-385.0,1,94.656,
01/01/2000,01:28:11.52,19.28,-61.98,-991.86,157.50,-700.0,-341.25,1,94.697,
01/01/2000,01:28:11.52,19.28,-61.98,-992.10,236.25,-770.0,-358.75,1,94.737,
01/01/2000,01:28:11.54,19.03,-61.85,-991.98,-8.75,-533.75,-218.75,1,94.776,
01/01/2000,01:28:11.55,19.15,-61.73,-991.98,113.75,-743.75,-350.0,1,94.815,
01/01/2000,01:28:11.56,19.03,-61.98,-992.10,192.50,-682.50,-297.50,1,94.853,
01/01/2000,01:28:11.57,19.03,-61.98,-992.23,113.75,-682.50,-358.75,1,94.891,
01/01/2000,01:28:11.58,18.91,-61.98,-992.10,201.25,-691.25,-481.25,1,94.928,
01/01/2000,01:28:11.59,19.15,-61.73,-991.98,245.0,-647.50,-297.50,1,94.964,
01/01/2000,01:28:11.60,19.03,-61.49,-991.98,70.0,-735.0,-323.75,1,95.0,
01/01/2000,01:28:11.61,18.91,-61.85,-992.23,201.25,-673.75,-288.75,1,94.366,
01/01/2000,01:28:11.62,19.03,-61.85,-992.10,166.25,-717.50,-323.75,1,94.406,
01/01/2000,01:28:11.63,18.91,-61.98,-992.10,245.0,-708.75,-367.50,1,94.444,
01/01/2000,01:28:11.64,19.03,-61.85,-992.10,157.50,-735.0,-288.75,1,94.483,
01/01/2000,01:28:11.65,18.91,-61.73,-991.98,35.0,-542.50,-315.0,1,94.521,
01/01/2000,01:28:11.66,18.91,-61.73,-991.98,96.25,-665.0,-341.25,1,94.558,
01/01/2000,01:28:11.67,18.79,-61.73,-992.10,210.0,-761.25,-218.75,1,94.595,
01/01/2000,01:28:11.69,18.79,-61.73,-992.35,148.75,-621.25,-350.0,1,94.631,
01/01/2000,01:28:11.70,18.79,-61.73,-992.35,218.75,-656.25,-341.25,1,94.667,
01/01/2000,01:28:11.71,18.91,-61.73,-992.23,157.50,-717.50,-341.25,1,94.702,
01/01/2000,01:28:11.72,19.03,-61.73,-992.10,218.75,-656.25,-245.0,1,94.737,
01/01/2000,01:28:11.73,18.79,-61.61,-992.23,122.50,-735.0,-411.25,1,94.771,
01/01/2000,01:28:11.74,18.79,-61.73,-992.35,113.75,-595.0,-350.0,1,94.805,
01/01/2000,01:28:11.75,18.91,-61.85,-992.35,280.0,-682.50,-297.50,1,94.839,
01/01/2000,01:28:11.76,18.91,-61.73,-992.35,113.75,-735.0,-280.0,1,94.268,
01/01/2000,01:28:11.77,19.03,-61.73,-992.35,113.75,-673.75,-236.25,1,94.304,
01/01/2000,01:28:11.78,18.91,-61.85,-992.23,105.0,-708.75,-341.25,1,94.340,
01/01/2000,01:28:11.79,18.67,-61.85,-992.35,262.50,-665.0,-358.75,1,94.375,
01/01/2000,01:28:11.80,18.79,-61.85,-992.35,96.25,-770.0,-280.0,1,94.410,
01/01/2000,01:28:11.81,18.79,-61.73,-992.47,113.75,-673.75,-367.50,1,94.444,
01/01/2000,01:28:11.82,18.79,-61.73,-992.35,253.75,-621.25,-288.75,1,94.479,
01/01/2000,01:28:11.83,18.67,-61.73,-992.35,140.0,-603.75,-323.75,1,94.512,
01/01/2000,01:28:11.85,18.54,-61.73,-992.47,166.25,-805.0,-367.50,1,94.545,
01/01/2000,01:28:11.85,18.79,-61.73,-992.71,35.0,-612.50,-271.25,1,94.578,
01/01/2000,01:28:11.87,18.79,-61.85,-992.71,105.0,-787.50,-280.0,1,94.611,
01/01/2000,01:28:11.88,18.79,-61.61,-992.59,201.25,-682.50,-323.75,1,94.643,
01/01/2000,01:28:11.89,18.79,-61.61,-992.47,210.0,-735.0,-253.75,1,94.675,
01/01/2000,01:28:11.90,18.79,-61.73,-992.35,236.25,-700.0,-315.0,1,94.706,
01/01/2000,01:28:11.91,18.91,-61.73,-992.35,148.75,-682.50,-323.75,1,94.737,
01/01/2000,01:28:11.92,19.03,-61.73,-992.59,218.75,-700.0,-402.50,1,94.767,
01/01/2000,01:28:11.93,18.91,-61.61,-992.47,26.25,-708.75,-358.75,1,94.798,
01/01/2000,01:28:11.94,18.79,-61.61,-992.47,157.50,-700.0,-385.0,1,94.828,
01/01/2000,01:28:11.95,18.79,-61.61,-992.59,166.25,-612.50,-315.0,1,94.857,
01/01/2000,01:28:11.96,18.79,-61.73,-992.59,52.50,-761.25,-315.0,1,94.886,
01/01/2000,01:28:11.97,18.79,-61.85,-992.59,175.0,-743.75,-288.75,1,94.915,
01/01/2000,01:28:11.98,18.79,-61.85,-992.47,96.25,-708.75,-271.25,1,94.944,
01/01/2000,01:28:11.99,18.79,-62.10,-992.47,262.50,-577.50,-411.25,1,94.972,
01/01/2000,01:28:12.00,18.91,-61.85,-992.35,157.50,-700.0,-210.0,1,95.0,
01/01/2000,01:28:12.01,19.03,-61.98,-992.59,78.75,-638.75,-385.0,1,95.028,
01/01/2000,01:28:12.02,18.79,-61.98,-992.59,157.50,-743.75,-297.50,1,95.055,
01/01/2000,01:28:12.03,18.79,-61.98,-992.59,122.50,-708.75,-332.50,1,94.565,
01/01/2000,01:28:12.04,19.03,-61.98,-992.71,175.0,-630.0,-428.75,1,94.595,
01/01/2000,01:28:12.05,18.91,-61.85,-992.84,113.75,-638.75,-393.75,1,94.624,
01/01/2000,01:28:12.06,18.79,-61.85,-992.71,87.50,-665.0,-288.75,1,94.652,
01/01/2000,01:28:12.08,18.67,-61.98,-992.71,148.75,-603.75,-315.0,1,94.681,
01/01/2000,01:28:12.08,18.54,-61.85,-992.59,61.25,-717.50,-358.75,1,94.709,
01/01/2000,01:28:12.10,18.67,-61.98,-992.47,140.0,-638.75,-306.25,1,94.737,
01/01/2000,01:28:12.11,18.79,-61.85,-992.59,148.75,-700.0,-428.75,1,94.764,
01/01/2000,01:28:12.12,18.79,-61.73,-992.59,148.75,-691.25,-367.50,1,94.792,
01/01/2000,01:28:12.13,18.79,-61.85,-992.84,43.75,-717.50,-385.0,1,94.819,
01/01/2000,01:28:12.14,18.91,-61.85,-992.84,166.25,-700.0,-332.50,1,94.845,
01/01/2000,01:28:12.15,19.03,-61.85,-992.84,183.75,-665.0,-323.75,1,94.872,
01/01/2000,01:28:12.16,18.91,-61.73,-992.59,175.0,-787.50,-253.75,1,94.898,
01/01/2000,01:28:12.17,18.79,-61.73,-992.71,210.0,-831.25,-402.50,1,94.924,
01/01/2000,01:28:12.18,18.91,-61.73,-992.59,166.25,-708.75,-341.25,1,94.472,
01/01/2000,01:28:12.19,18.79,-61.73,-992.47,236.25,-752.50,-297.50,1,94.500,
01/01/2000,01:28:12.20,18.79,-61.73,-992.35,280.0,-761.25,-367.50,1,94.527,
01/01/2000,01:28:12.21,18.79,-61.61,-992.47,122.50,-586.25,-376.25,1,94.554,
01/01/2000,01:28:12.22,18.79,-61.49,-992.47,78.75,-787.50,-323.75,1,94.581,
01/01/2000,01:28:12.23,18.79,-61.49,-992.59,192.50,-752.50,-288.75,1,94.608,
01/01/2000,01:28:12.25,18.91,-61.61,-992.59,148.75,-700.0,-376.25,1,94.634,
01/01/2000,01:28:12.26,18.91,-61.61,-992.47,297.50,-761.25,-358.75,1,94.203,
01/01/2000,01:28:12.27,19.03,-61.73,-992.47,166.25,-621.25,-297.50,1,94.231,
01/01/2000,01:28:12.28,19.03,-61.73,-992.59,192.50,-595.0,-288.75,1,94.258,
01/01/2000,01:28:12.29,19.03,-61.61,-992.59,26.25,-708.75,-297.50,1,94.286,
01/01/2000,01:28:12.30,18.91,-61.73,-992.59,192.50,-743.75,-323.75,1,94.313,
01/01/2000,01:28:12.31,19.03,-61.61,-992.35,131.25,-708.75,-323.75,1,94.340,
01/01/2000,01:28:12.32,19.03,-61.73,-992.35,140.0,-656.25,-280.0,1,94.366,
01/01/2000,01:28:12.33,19.03,-61.61,-992.35,96.25,-726.25,-367.50,1,94.393,
01/01/2000,01:28:12.34,19.03,-61.61,-992.47,236.25,-752.50,-315.0,1,94.419,
01/01/2000,01:28:12.35,19.03,-61.61,-992.35,201.25,-682.50,-341.25,1,94.444,
01/01/2000,01:28:12.36,19.03,-61.61,-992.35,17.50,-665.0,-350.0,1,94.470,
01/01/2000,01:28:12.37,19.15,-61.61,-992.23,183.75,-691.25,-306.25,1,94.495,
01/01/2000,01:28:12.39,19.15,-61.73,-992.10,271.25,-647.50,-393.75,1,94.521,
01/01/2000,01:28:12.40,19.03,-61.73,-992.10,280.0,-673.75,-420.0,1,94.545,
01/01/2000,01:28:12.41,19.28,-61.73,-992.59,183.75,-560.0,-306.25,1,94.570,
01/01/2000,01:28:12.42,19.28,-61.73,-992.59,-8.75,-630.0,-253.75,1,94.595,
01/01/2000,01:28:12.43,19.28,-61.85,-992.47,236.25,-717.50,-332.50,1,94.619,
01/01/2000,01:28:12.44,19.03,-61.98,-992.47,35.0,-770.0,-315.0,1,94.643,
01/01/2000,01:28:12.45,19.03,-61.98,-992.35,113.75,-700.0,-437.50,1,94.667,
01/01/2000,01:28:12.46,19.15,-61.85,-992.59,218.75,-700.0,-271.25,1,94.690,
01/01/2000,01:28:12.47,19.15,-61.85,-992.59,113.75,-726.25,-323.75,1,94.714,
01/01/2000,01:28:12.48,19.15,-61.85,-992.59,183.75,-665.0,-446.25,1,94.737,
01/01/2000,01:28:12.49,19.03,-61.85,-992.47,43.75,-682.50,-315.0,1,94.760,
01/01/2000,01:28:12.50,19.03,-61.85,-992.47,192.50,-638.75,-358.75,1,94.783,
01/01/2000,01:28:12.51,19.28,-61.98,-992.47,0.0,-673.75,-367.50,1,94.805,
01/01/2000,01:28:12.52,19.15,-61.98,-992.35,210.0,-752.50,-306.25,1,94.828,
01/01/2000,01:28:12.53,19.03,-61.85,-992.47,52.50,-647.50,-358.75,1,94.850,
01/01/2000,01:28:12.54,19.03,-61.85,-992.59,157.50,-612.50,-393.75,1,94.872,
01/01/2000,01:28:12.55,19.03,-61.73,-992.59,306.25,-735.0,-341.25,1,94.894,
01/01/2000,01:28:12.56,19.03,-61.85,-992.59,87.50,-735.0,-253.75,1,94.915,
01/01/2000,01:28:12.57,19.03,-61.85,-992.35,166.25,-735.0,-315.0,1,94.937,
01/01/2000,01:28:12.58,19.03,-61.98,-992.35,227.50,-735.0,-323.75,1,94.958,
01/01/2000,01:28:12.60,19.03,-61.98,-992.59,183.75,-787.50,-385.0,1,94.583,
01/01/2000,01:28:12.61,19.03,-61.98,-992.71,183.75,-813.75,-385.0,1,94.606,
01/01/2000,01:28:12.62,19.03,-61.98,-992.59,210.0,-770.0,-341.25,1,94.628,
01/01/2000,01:28:12.63,19.03,-61.85,-992.35,192.50,-726.25,-358.75,1,94.650,
01/01/2000,01:28:12.64,19.03,-61.73,-992.47,192.50,-656.25,-385.0,1,94.672,
01/01/2000,01:28:12.65,19.15,-61.73,-992.59,131.25,-647.50,-341.25,1,94.694,
01/01/2000,01:28:12.66,19.15,-61.85,-992.71,175.0,-700.0,-402.50,1,94.715,
01/01/2000,01:28:12.67,19.03,-61.73,-992.47,122.50,-682.50,-297.50,1,94.737,
01/01/2000,01:28:12.68,19.03,-61.73,-992.59,218.75,-673.75,-271.25,1,94.758,
01/01/2000,01:28:12.69,18.91,-61.73,-992.59,78.75,-612.50,-332.50,1,94.779,
01/01/2000,01:28:12.70,19.03,-61.73,-992.71,332.50,-726.25,-306.25,1,94.800,
01/01/2000,01:28:12.71,19.15,-61.85,-992.84,227.50,-726.25,-315.0,1,94.821,
01/01/2000,01:28:12.72,19.15,-61.98,-992.59,105.0,-708.75,-367.50,1,94.841,
01/01/2000,01:28:12.73,19.03,-61.98,-992.59,192.50,-647.50,-350.0,1,94.862,
01/01/2000,01:28:12.74,19.03,-61.85,-992.59,192.50,-717.50,-358.75,1,94.510,
01/01/2000,01:28:12.75,19.15,-61.73,-992.59,166.25,-700.0,-350.0,1,94.531,
01/01/2000,01:28:12.77,19.03,-61.85,-992.71,175.0,-621.25,-297.50,1,94.553,
01/01/2000,01:28:12.78,19.03,-61.85,-992.59,61.25,-717.50,-358.75,1,94.574,
01/01/2000,01:28:12.79,19.28,-61.73,-992.47,201.25,-630.0,-367.50,1,94.595,
01/01/2000,01:28:12.80,19.28,-61.61,-992.35,218.75,-656.25,-332.50,1,94.615,
01/01/2000,01:28:12.81,19.15,-61.73,-992.35,157.50,-665.0,-323.75,1,94.636,
01/01/2000,01:28:12.82,19.15,-61.98,-992.35,183.75,-647.50,-358.75,1,94.656,
01/01/2000,01:28:12.83,19.15,-61.73,-992.35,236.25,-743.75,-315.0,1,94.677,
01/01/2000,01:28:12.84,19.15,-61.73,-992.23,122.50,-630.0,-350.0,1,94.697,
01/01/2000,01:28:12.85,19.15,-61.73,-992.10,236.25,-586.25,-315.0,1,94.717,
01/01/2000,01:28:12.86,19.28,-61.73,-992.35,218.75,-717.50,-315.0,1,94.737,
01/01/2000,01:28:12.87,19.28,-61.73,-992.35,183.75,-708.75,-350.0,1,94.757,
01/01/2000,01:28:12.88,19.28,-61.73,-992.35,148.75,-717.50,-420.0,1,94.776,
01/01/2000,01:28:12.89,19.28,-61.73,-992.35,236.25,-691.25,-297.50,1,94.444,
01/01/2000,01:28:12.90,19.28,-61.73,-992.35,166.25,-691.25,-446.25,1,94.465,
01/01/2000,01:28:12.91,19.28,-61.73,-992.35,113.75,-612.50,-280.0,1,94.485,
01/01/2000,01:28:12.92,19.15,-61.73,-992.23,210.0,-568.75,-306.25,1,94.505,
01/01/2000,01:28:12.93,19.03,-61.85,-992.23,236.25,-743.75,-323.75,1,94.526,
01/01/2000,01:28:12.94,19.03,-61.73,-992.23,262.50,-726.25,-332.50,1,94.545,
01/01/2000,01:28:12.96,19.03,-61.73,-992.23,96.25,-691.25,-323.75,1,94.565,
01/01/2000,01:28:12.97,18.91,-61.85,-992.10,122.50,-673.75,-332.50,1,94.585,
01/01/2000,01:28:12.98,18.91,-61.98,-992.10,140.0,-700.0,-341.25,1,94.604,
01/01/2000,01:28:12.99,18.91,-61.98,-992.23,183.75,-717.50,-358.75,1,94.624,
01/01/2000,01:28:13.00,18.91,-61.98,-992.35,166.25,-682.50,-323.75,1,94.643,
01/01/2000,01:28:13.01,19.03,-62.10,-992.35,210.0,-656.25,-306.25,1,94.662,
01/01/2000,01:28:13.02,18.91,-62.10,-992.35,105.0,-752.50,-288.75,1,94.681,
01/01/2000,01:28:13.03,18.79,-61.98,-992.23,262.50,-770.0,-402.50,1,94.700,
01/01/2000,01:28:13.04,18.79,-61.98,-992.23,315.0,-665.0,-315.0,1,94.718,
01/01/2000,01:28:13.05,18.79,-61.85,-992.35,70.0,-708.75,-358.75,1,94.737,
01/01/2000,01:28:13.06,18.79,-61.98,-992.35,210.0,-761.25,-350.0,1,94.755,
01/01/2000,01:28:13.07,18.91,-61.98,-992.35,157.50,-735.0,-183.75,1,94.774,
01/01/2000,01:28:13.08,18.91,-61.98,-992.35,236.25,-656.25,-428.75,1,94.792,
01/01/2000,01:28:13.09,18.91,-61.98,-992.35,140.0,-752.50,-288.75,1,94.483,
01/01/2000,01:28:13.10,18.91,-61.98,-992.47,183.75,-735.0,-358.75,1,94.502,
01/01/2000,01:28:13.11,19.03,-61.73,-992.59,183.75,-717.50,-350.0,1,94.521,
01/01/2000,01:28:13.12,18.91,-61.73,-992.59,131.25,-665.0,-280.0,1,94.539,
01/01/2000,01:28:13.13,18.91,-61.73,-992.59,210.0,-638.75,-376.25,1,94.558,
01/01/2000,01:28:13.14,18.79,-61.98,-992.47,105.0,-682.50,-358.75,1,94.576,
01/01/2000,01:28:13.15,18.67,-62.10,-992.35,105.0,-673.75,-420.0,1,94.595,
01/01/2000,01:28:13.17,18.67,-62.10,-992.59,262.50,-691.25,-350.0,1,94.613,
01/01/2000,01:28:13.18,18.79,-61.98,-992.59,96.25,-621.25,-350.0,1,94.631,
01/01/2000,01:28:13.19,18.91,-61.98,-992.59,192.50,-717.50,-245.0,1,94.649,
01/01/2000,01:28:13.20,18.79,-61.98,-992.59,166.25,-638.75,-288.75,1,94.667,
01/01/2000,01:28:13.21,18.91,-62.10,-992.59,315.0,-813.75,-376.25,1,94.684,
01/01/2000,01:28:13.22,18.91,-61.98,-992.59,140.0,-708.75,-350.0,1,94.702,
01/01/2000,01:28:13.23,19.03,-61.85,-992.59,236.25,-638.75,-437.50,1,94.408,
01/01/2000,01:28:13.24,19.03,-61.73,-992.59,122.50,-735.0,-341.25,1,94.426,
01/01/2000,01:28:13.25,18.91,-61.73,-992.35,201.25,-717.50,-411.25,1,94.444,
01/01/2000,01:28:13.26,18.91,-61.85,-992.47,288.75,-673.75,-402.50,1,94.463,
01/01/2000,01:28:13.28,18.91,-61.73,-992.35,35.0,-673.75,-253.75,1,94.481,
01/01/2000,01:28:13.29,18.91,-61.85,-992.35,140.0,-673.75,-323.75,1,94.498,
01/01/2000,01:28:13.30,18.79,-61.73,-992.35,78.75,-603.75,-341.25,1,94.516,
01/01/2000,01:28:13.31,18.79,-61.73,-992.47,201.25,-682.50,-306.25,1,94.534,
01/01/2000,01:28:13.32,18.91,-61.73,-992.59,113.75,-805.0,-350.0,1,94.551,
01/01/2000,01:28:13.33,18.91,-61.73,-992.59,201.25,-778.75,-262.50,1,94.569,
01/01/2000,01:28:13.34,18.91,-61.98,-992.59,105.0,-665.0,-332.50,1,94.586,
01/01/2000,01:28:13.35,18.91,-61.73,-992.47,210.0,-752.50,-306.25,1,94.603,
01/01/2000,01:28:13.36,18.91,-61.73,-992.47,26.25,-708.75,-280.0,1,94.620,
01/01/2000,01:28:13.37,18.79,-61.85,-992.47,175.0,-743.75,-420.0,1,94.637,
01/01/2000,01:28:13.38,18.79,-61.85,-992.59,105.0,-691.25,-402.50,1,94.654,
01/01/2000,01:28:13.39,18.79,-62.10,-992.47,245.0,-726.25,-428.75,1,94.671,
01/01/2000,01:28:13.40,18.91,-61.98,-992.35,148.75,-717.50,-367.50,1,94.688,
01/01/2000,01:28:13.41,19.03,-61.98,-992.23,113.75,-682.50,-411.25,1,94.704,
01/01/2000,01:28:13.42,19.03,-61.98,-992.10,87.50,-805.0,-385.0,1,94.720,
01/01/2000,01:28:13.43,19.03,-61.98,-992.10,210.0,-673.75,-315.0,1,94.737,
01/01/2000,01:28:13.44,19.03,-61.98,-992.35,87.50,-691.25,-393.75,1,94.462,
01/01/2000,01:28:13.45,19.03,-61.98,-992.35,262.50,-761.25,-358.75,1,94.479,
01/01/2000,01:28:13.46,19.03,-61.98,-992.35,52.50,-761.25,-350.0,1,94.495,
01/01/2000,01:28:13.47,18.79,-61.85,-992.10,122.50,-700.0,-341.25,1,94.512,
01/01/2000,01:28:13.48,18.79,-61.73,-992.10,148.75,-735.0,-358.75,1,94.529,
01/01/2000,01:28:13.49,18.79,-61.85,-992.10,78.75,-665.0,-297.50,1,94.545,
01/01/2000,01:28:13.50,18.79,-61.85,-992.10,148.75,-665.0,-315.0,1,94.562,
01/01/2000,01:28:13.52,18.79,-61.98,-992.10,166.25,-708.75,-306.25,1,94.578,
01/01/2000,01:28:13.53,18.79,-61.98,-991.98,140.0,-717.50,-411.25,1,94.595,
01/01/2000,01:28:13.54,18.79,-62.22,-991.86,192.50,-673.75,-393.75,1,94.611,
01/01/2000,01:28:13.55,18.91,-61.98,-992.10,210.0,-682.50,-402.50,1,94.627,
01/01/2000,01:28:13.56,19.03,-61.98,-992.35,87.50,-787.50,-315.0,1,94.643,
01/01/2000,01:28:13.57,19.03,-62.22,-991.86,306.25,-752.50,-376.25,1,94.659,
01/01/2000,01:28:13.58,18.79,-62.34,-991.62,96.25,-691.25,-393.75,1,94.675,
01/01/2000,01:28:13.59,19.03,-62.10,-991.86,192.50,-691.25,-463.75,1,94.690,
01/01/2000,01:28:13.60,19.28,-61.98,-992.23,52.50,-691.25,-262.50,1,94.706,
01/01/2000,01:28:13.61,19.40,-61.98,-992.35,70.0,-752.50,-323.75,1,94.721,
01/01/2000,01:28:13.62,19.03,-62.10,-992.10,61.25,-717.50,-437.50,1,94.737,
01/01/2000,01:28:13.63,18.79,-62.10,-991.98,35.0,-665.0,-323.75,1,94.752,
01/01/2000,01:28:13.64,19.15,-61.98,-992.10,166.25,-770.0,-481.25,1,94.767,
01/01/2000,01:28:13.65,19.52,-61.98,-992.59,192.50,-656.25,-87.50,1,94.509,
01/01/2000,01:28:13.66,19.28,-61.98,-992.59,0.0,-726.25,-332.50,1,94.524,
01/01/2000,01:28:13.67,18.79,-62.10,-992.35,210.0,-770.0,-393.75,1,94.540,
01/01/2000,01:28:13.68,18.91,-61.85,-992.23,105.0,-752.50,-367.50,1,94.556,
01/01/2000,01:28:13.69,19.28,-61.61,-992.47,113.75,-656.25,-288.75,1,94.571,
01/01/2000,01:28:13.70,19.40,-61.49,-992.59,8.75,-778.75,-253.75,1,94.587,
01/01/2000,01:28:13.71,19.28,-61.73,-992.10,96.25,-630.0,-341.25,1,94.602,
01/01/2000,01:28:13.73,18.67,-61.85,-991.86,157.50,-691.25,-428.75,1,94.618,
01/01/2000,01:28:13.74,19.03,-61.98,-992.23,245.0,-787.50,-341.25,1,94.633,
01/01/2000,01:28:13.75,19.64,-61.49,-992.59,-52.50,-665.0,-341.25,1,94.648,
01/01/2000,01:28:13.76,19.52,-61.61,-992.47,70.0,-848.75,-105.0,1,94.663,
01/01/2000,01:28:13.77,19.15,-61.73,-992.10,227.50,-630.0,-393.75,1,94.678,
01/01/2000,01:28:13.78,18.79,-61.85,-991.86,210.0,-787.50,-446.25,1,94.429,
01/01/2000,01:28:13.79,19.52,-61.73,-992.59,175.0,-647.50,-393.75,1,94.444,
01/01/2000,01:28:13.81,19.52,-61.61,-992.59,35.0,-700.0,-288.75,1,94.460,
01/01/2000,01:28:13.82,19.15,-61.73,-992.23,87.50,-621.25,-271.25,1,94.475,
01/01/2000,01:28:13.83,18.54,-61.98,-991.86,140.0,-726.25,-437.50,1,94.490,
01/01/2000,01:28:13.84,18.91,-61.98,-992.23,131.25,-673.75,-393.75,1,94.505,
01/01/2000,01:28:13.85,19.28,-61.85,-992.59,183.75,-630.0,-315.0,1,94.521,
01/01/2000,01:28:13.86,19.40,-61.73,-992.84,0.0,-743.75,-323.75,1,94.536,
01/01/2000,01:28:13.87,19.03,-61.73,-992.23,131.25,-708.75,-306.25,1,94.550,
01/01/2000,01:28:13.88,18.67,-61.85,-991.98,245.0,-630.0,-463.75,1,94.565,
01/01/2000,01:28:13.89,18.79,-61.61,-992.35,175.0,-621.25,-367.50,1,94.580,
01/01/2000,01:28:13.90,19.15,-61.61,-992.84,332.50,-673.75,-385.0,1,94.595,
01/01/2000,01:28:13.91,19.15,-61.73,-992.96,210.0,-673.75,-280.0,1,94.609,
01/01/2000,01:28:13.92,18.79,-61.98,-992.23,166.25,-743.75,-350.0,1,94.624,
01/01/2000,01:28:13.93,18.54,-61.98,-991.86,210.0,-761.25,-428.75,1,94.638,
01/01/2000,01:28:13.94,19.03,-61.61,-992.35,96.25,-656.25,-420.0,1,94.652,
01/01/2000,01:28:13.95,18.91,-61.98,-992.84,218.75,-682.50,-105.0,1,94.667,
01/01/2000,01:28:13.96,19.76,-61.49,-992.59,-183.75,-708.75,-507.50,1,94.681,
01/01/2000,01:28:13.97,19.03,-62.22,-991.98,350.0,-700.0,70.0,1,94.695,
01/01/2000,01:28:13.98,18.79,-61.85,-991.62,113.75,-726.25,-402.50,1,94.709,
01/01/2000,01:28:13.99,18.54,-62.22,-992.35,192.50,-717.50,-656.25,1,94.723,
01/01/2000,01:28:14.00,19.28,-61.85,-992.96,52.50,-735.0,-691.25,1,94.737,
01/01/2000,01:28:14.01,19.52,-61.37,-992.71,8.75,-682.50,-157.50,1,94.503,
01/01/2000,01:28:14.02,18.67,-62.10,-992.10,376.25,-717.50,87.50,1,94.517,
01/01/2000,01:28:14.03,18.79,-61.85,-991.86,87.50,-560.0,-700.0,1,94.531,
01/01/2000,01:28:14.04,18.79,-62.10,-992.59,245.0,-735.0,-481.25,1,94.545,
01/01/2000,01:28:14.05,19.28,-61.98,-992.96,210.0,-665.0,-236.25,1,94.560,
01/01/2000,01:28:14.06,19.28,-61.98,-992.96,122.50,-621.25,-271.25,1,94.574,
01/01/2000,01:28:14.08,18.79,-61.98,-992.35,192.50,-647.50,-271.25,1,94.588,
01/01/2000,01:28:14.09,18.79,-61.73,-992.10,183.75,-735.0,-411.25,1,94.602,
01/01/2000,01:28:14.10,18.91,-61.85,-992.47,183.75,-700.0,-411.25,1,94.615,
01/01/2000,01:28:14.11,19.28,-61.85,-992.84,70.0,-586.25,-288.75,1,94.629,
01/01/2000,01:28:14.12,19.15,-61.85,-992.59,210.0,-796.25,-323.75,1,94.643,
01/01/2000,01:28:14.13,18.79,-61.98,-992.23,218.75,-761.25,-210.0,1,94.656,
01/01/2000,01:28:14.14,18.67,-61.73,-991.98,201.25,-752.50,-393.75,1,94.670,
01/01/2000,01:28:14.15,19.15,-61.61,-992.47,148.75,-665.0,-271.25,1,94.684,
01/01/2000,01:28:14.16,19.40,-61.85,-992.84,183.75,-638.75,-280.0,1,94.697,
01/01/2000,01:28:14.17,19.28,-61.85,-992.47,201.25,-647.50,-437.50,1,94.710,
01/01/2000,01:28:14.18,19.03,-61.98,-992.10,271.25,-647.50,-376.25,1,94.724,
01/01/2000,01:28:14.19,19.15,-61.85,-991.98,245.0,-638.75,-350.0,1,94.737,
01/01/2000,01:28:14.20,19.28,-61.73,-992.59,166.25,-778.75,-271.25,1,94.750,
01/01/2000,01:28:14.21,19.40,-61.98,-992.71,210.0,-770.0,-262.50,1,94.763,
01/01/2000,01:28:14.22,19.03,-62.10,-992.35,210.0,-612.50,-385.0,1,94.541,
01/01/2000,01:28:14.23,18.91,-62.22,-992.10,105.0,-577.50,-376.25,1,94.554,
01/01/2000,01:28:14.24,19.03,-61.98,-992.10,218.75,-708.75,-350.0,1,94.568,
01/01/2000,01:28:14.25,19.40,-61.73,-992.35,-17.50,-708.75,-271.25,1,94.581,
01/01/2000,01:28:14.27,19.40,-61.98,-992.47,297.50,-831.25,-288.75,1,94.595,
01/01/2000,01:28:14.27,19.03,-61.98,-992.35,157.50,-708.75,-402.50,1,94.608,
01/01/2000,01:28:14.29,19.15,-61.98,-992.35,280.0,-682.50,-393.75,1,94.390,
01/01/2000,01:28:14.30,19.52,-61.85,-992.47,288.75,-761.25,-332.50,1,94.404,
01/01/2000,01:28:14.31,19.52,-61.85,-992.59,201.25,-673.75,-306.25,1,94.417,
01/01/2000,01:28:14.32,19.15,-62.10,-992.35,157.50,-647.50,-280.0,1,94.431,
01/01/2000,01:28:14.33,19.03,-61.98,-992.23,175.0,-691.25,-218.75,1,94.444,
01/01/2000,01:28:14.34,19.03,-62.10,-992.23,236.25,-735.0,-271.25,1,94.458,
01/01/2000,01:28:14.35,19.28,-61.85,-992.35,166.25,-630.0,-262.50,1,94.471,
01/01/2000,01:28:14.37,19.28,-61.98,-992.23,113.75,-700.0,-332.50,1,94.484,
01/01/2000,01:28:14.38,19.15,-62.10,-992.10,157.50,-586.25,-262.50,1,94.498,
01/01/2000,01:28:14.39,18.91,-62.22,-992.10,96.25,-717.50,-463.75,1,94.511,
01/01/2000,01:28:14.40,18.91,-62.22,-992.47,122.50,-735.0,-341.25,1,94.524,
01/01/2000,01:28:14.41,19.15,-61.98,-992.59,175.0,-700.0,-367.50,1,94.537,
01/01/2000,01:28:14.42,19.15,-61.98,-992.35,140.0,-726.25,-350.0,1,94.550,
01/01/2000,01:28:14.43,19.03,-62.10,-992.10,96.25,-630.0,-323.75,1,94.563,
01/01/2000,01:28:14.44,19.28,-62.10,-992.10,131.25,-612.50,-367.50,1,94.575,
01/01/2000,01:28:14.45,19.40,-62.10,-992.35,350.0,-787.50,-332.50,1,94.588,
01/01/2000,01:28:14.46,19.52,-61.98,-992.47,227.50,-682.50,-455.0,1,94.601,
01/01/2000,01:28:14.47,19.28,-62.22,-992.47,140.0,-700.0,-455.0,1,94.614,
01/01/2000,01:28:14.48,19.28,-61.98,-992.23,183.75,-665.0,-288.75,1,94.626,
01/01/2000,01:28:14.49,19.03,-61.98,-992.10,192.50,-656.25,-358.75,1,94.639,
01/01/2000,01:28:14.50,19.15,-61.98,-992.35,175.0,-726.25,-315.0,1,94.651,
01/01/2000,01:28:14.51,19.15,-62.10,-992.35,201.25,-778.75,-393.75,1,94.664,
01/01/2000,01:28:14.52,19.15,-61.98,-992.35,166.25,-586.25,-358.75,1,94.676,
01/01/2000,01:28:14.53,19.03,-61.98,-992.35,183.75,-796.25,-402.50,1,94.688,
01/01/2000,01:28:14.54,19.03,-61.73,-992.47,78.75,-691.25,-385.0,1,94.700,
01/01/2000,01:28:14.55,19.03,-61.73,-992.59,306.25,-551.25,-490.0,1,94.713,
01/01/2000,01:28:14.56,19.15,-61.73,-992.71,61.25,-682.50,-376.25,1,94.725,
01/01/2000,01:28:14.57,19.15,-61.98,-992.71,210.0,-778.75,-315.0,1,94.521,
01/01/2000,01:28:14.58,19.03,-61.85,-992.59,201.25,-726.25,-288.75,1,94.533,
01/01/2000,01:28:14.59,19.03,-61.98,-992.59,245.0,-726.25,-367.50,1,94.545,
01/01/2000,01:28:14.60,19.03,-61.85,-992.71,183.75,-735.0,-350.0,1,94.558,
01/01/2000,01:28:14.61,19.15,-61.98,-992.84,70.0,-743.75,-332.50,1,94.570,
01/01/2000,01:28:14.62,19.40,-61.98,-992.71,201.25,-656.25,-323.75,1,94.582,
01/01/2000,01:28:14.64,19.28,-61.98,-992.47,131.25,-656.25,-358.75,1,94.595,
01/01/2000,01:28:14.65,19.15,-61.98,-992.35,175.0,-805.0,-385.0,1,94.607,
01/01/2000,01:28:14.66,19.28,-61.98,-992.35,183.75,-761.25,-367.50,1,94.619,
01/01/2000,01:28:14.67,19.28,-61.98,-992.35,201.25,-691.25,-288.75,1,94.631,
01/01/2000,01:28:14.68,19.15,-61.98,-992.35,236.25,-560.0,-393.75,1,94.643,
01/01/2000,01:28:14.69,19.03,-61.98,-992.35,140.0,-568.75,-402.50,1,94.655,
01/01/2000,01:28:14.70,19.03,-61.98,-992.35,192.50,-735.0,-192.50,1,94.667,
01/01/2000,01:28:14.71,19.15,-61.98,-992.10,157.50,-700.0,-393.75,1,94.678,
01/01/2000,01:28:14.72,19.03,-61.85,-992.10,105.0,-691.25,-402.50,1,94.690,
01/01/2000,01:28:14.73,19.15,-61.85,-992.10,280.0,-691.25,-280.0,1,94.702,
01/01/2000,01:28:14.74,19.15,-61.73,-991.98,175.0,-665.0,-350.0,1,94.714,
01/01/2000,01:28:14.75,19.28,-61.73,-991.98,122.50,-708.75,-262.50,1,94.725,
01/01/2000,01:28:14.76,19.28,-61.85,-992.10,70.0,-761.25,-297.50,1,94.737,
01/01/2000,01:28:14.77,19.28,-61.98,-991.98,122.50,-726.25,-341.25,1,94.748,
01/01/2000,01:28:14.79,19.28,-61.85,-992.10,105.0,-647.50,-280.0,1,94.553,
01/01/2000,01:28:14.80,19.28,-61.73,-992.23,35.0,-682.50,-297.50,1,94.360,
01/01/2000,01:28:14.81,19.28,-61.73,-992.35,201.25,-656.25,-428.75,1,94.372,
01/01/2000,01:28:14.82,19.15,-61.85,-992.23,192.50,-761.25,-288.75,1,94.384,
01/01/2000,01:28:14.83,19.15,-61.85,-992.23,253.75,-787.50,-402.50,1,94.397,
01/01/2000,01:28:14.84,19.15,-61.98,-992.23,96.25,-647.50,-332.50,1,94.409,
01/01/2000,01:28:14.86,19.15,-62.10,-992.10,166.25,-717.50,-350.0,1,94.421,
01/01/2000,01:28:14.87,19.15,-61.98,-992.10,131.25,-743.75,-262.50,1,94.433,
01/01/2000,01:28:14.88,19.15,-61.98,-991.98,201.25,-647.50,-332.50,1,94.444,
01/01/2000,01:28:14.89,19.15,-61.98,-992.23,122.50,-647.50,-323.75,1,94.456,
01/01/2000,01:28:14.90,19.03,-61.98,-992.10,201.25,-577.50,-393.75,1,94.468,
01/01/2000,01:28:14.91,19.03,-61.98,-991.98,122.50,-805.0,-385.0,1,94.480,
01/01/2000,01:28:14.92,19.15,-61.98,-992.10,175.0,-726.25,-306.25,1,94.492,
01/01/2000,01:28:14.93,19.03,-61.98,-992.10,166.25,-708.75,-227.50,1,94.503,
01/01/2000,01:28:14.94,19.03,-61.98,-992.23,253.75,-673.75,-367.50,1,94.515,
01/01/2000,01:28:14.95,19.03,-61.98,-992.23,140.0,-691.25,-341.25,1,94.526,
01/01/2000,01:28:14.96,19.15,-61.85,-992.23,201.25,-621.25,-358.75,1,94.538,
01/01/2000,01:28:14.97,19.03,-61.85,-992.10,43.75,-735.0,-332.50,1,94.549,
01/01/2000,01:28:14.98,19.15,-61.98,-992.10,113.75,-673.75,-332.50,1,94.561,
01/01/2000,01:28:14.99,19.28,-61.98,-992.23,288.75,-735.0,-367.50,1,94.572,
01/01/2000,01:28:15.00,19.28,-61.98,-992.10,166.25,-656.25,-323.75,1,94.583,
01/01/2000,01:28:15.01,19.15,-61.85,-992.10,201.25,-603.75,-323.75,1,94.595,
01/01/2000,01:28:15.02,19.15,-61.98,-992.10,157.50,-700.0,-323.75,1,94.606,
01/01/2000,01:28:15.03,19.15,-61.98,-992.10,166.25,-700.0,-323.75,1,94.617,
01/01/2000,01:28:15.04,19.03,-61.98,-991.98,245.0,-638.75,-402.50,1,94.628,
01/01/2000,01:28:15.05,18.91,-61.98,-991.86,131.25,-770.0,-201.25,1,94.639,
01/01/2000,01:28:15.07,19.03,-61.98,-991.98,183.75,-603.75,-367.50,1,94.456,
01/01/2000,01:28:15.08,19.03,-61.98,-991.86,253.75,-665.0,-315.0,1,94.467,
01/01/2000,01:28:15.09,18.91,-61.98,-991.98,166.25,-761.25,-350.0,1,94.479,
01/01/2000,01:28:15.10,18.91,-61.98,-991.86,87.50,-673.75,-323.75,1,94.490,
01/01/2000,01:28:15.11,18.91,-61.98,-991.86,113.75,-708.75,-271.25,1,94.501,
01/01/2000,01:28:15.12,19.03,-61.98,-991.86,166.25,-647.50,-376.25,1,94.512,
01/01/2000,01:28:15.13,18.91,-61.85,-991.98,157.50,-708.75,-262.50,1,94.523,
01/01/2000,01:28:15.14,19.03,-61.98,-992.10,183.75,-673.75,-288.75,1,94.534,
01/01/2000,01:28:15.15,19.03,-61.98,-992.10,140.0,-673.75,-332.50,1,94.545,
01/01/2000,01:28:15.16,19.03,-61.98,-992.23,96.25,-647.50,-297.50,1,94.556,
01/01/2000,01:28:15.17,19.15,-61.98,-992.23,175.0,-796.25,-210.0,1,94.567,
01/01/2000,01:28:15.18,19.15,-61.73,-992.35,131.25,-647.50,-376.25,1,94.578,
01/01/2000,01:28:15.19,19.03,-61.98,-992.35,218.75,-656.25,-402.50,1,94.589,
01/01/2000,01:28:15.20,19.03,-61.98,-992.23,105.0,-796.25,-358.75,1,94.411,
01/01/2000,01:28:15.21,19.03,-61.85,-992.35,192.50,-743.75,-332.50,1,94.422,
01/01/2000,01:28:15.22,19.03,-61.98,-992.47,201.25,-673.75,-288.75,1,94.433,
01/01/2000,01:28:15.23,18.91,-61.98,-992.47,227.50,-708.75,-341.25,1,94.444,
01/01/2000,01:28:15.24,19.03,-61.98,-992.35,175.0,-717.50,-437.50,1,94.455,
01/01/2000,01:28:15.25,19.03,-61.98,-992.35,148.75,-656.25,-280.0,1,94.466,
01/01/2000,01:28:15.26,19.03,-61.98,-992.35,35.0,-735.0,-306.25,1,94.477,
01/01/2000,01:28:15.28,19.03,-62.10,-992.35,218.75,-787.50,-385.0,1,94.488,
01/01/2000,01:28:15.29,19.03,-61.98,-992.35,201.25,-630.0,-350.0,1,94.499,
01/01/2000,01:28:15.30,19.15,-61.98,-992.35,218.75,-647.50,-367.50,1,94.510,
01/01/2000,01:28:15.31,19.28,-61.85,-992.35,157.50,-691.25,-306.25,1,94.521,
01/01/2000,01:28:15.32,19.28,-62.10,-992.35,227.50,-708.75,-350.0,1,94.347,
01/01/2000,01:28:15.33,19.03,-62.10,-992.47,192.50,-735.0,-315.0,1,94.358,
01/01/2000,01:28:15.34,19.03,-62.10,-992.47,166.25,-647.50,-367.50,1,94.369,
01/01/2000,01:28:15.35,19.03,-62.10,-992.35,122.50,-726.25,-367.50,1,94.380,
01/01/2000,01:28:15.36,18.79,-61.85,-992.23,-8.75,-735.0,-227.50,1,94.391,
01/01/2000,01:28:15.37,18.91,-61.98,-992.35,262.50,-682.50,-288.75,1,94.402,
01/01/2000,01:28:15.38,18.91,-61.73,-992.47,43.75,-630.0,-376.25,1,94.412,
01/01/2000,01:28:15.40,18.91,-61.85,-992.47,140.0,-700.0,-280.0,1,94.423,
01/01/2000,01:28:15.40,19.03,-61.98,-992.35,61.25,-586.25,-323.75,1,94.434,
01/01/2000,01:28:15.42,19.03,-61.85,-992.35,218.75,-761.25,-315.0,1,94.444,
01/01/2000,01:28:15.43,19.03,-61.85,-992.23,35.0,-717.50,-332.50,1,94.455,
01/01/2000,01:28:15.44,18.91,-61.98,-992.35,192.50,-665.0,-350.0,1,94.466,
01/01/2000,01:28:15.45,18.91,-61.98,-992.47,61.25,-612.50,-332.50,1,94.476,
01/01/2000,01:28:15.46,18.79,-62.22,-992.35,183.75,-805.0,-385.0,1,94.487,
01/01/2000,01:28:15.47,18.91,-62.22,-992.59,105.0,-726.25,-306.25,1,94.497,
01/01/2000,01:28:15.48,19.03,-62.34,-992.59,157.50,-735.0,-332.50,1,94.508,
01/01/2000,01:28:15.49,19.03,-62.22,-992.59,183.75,-796.25,-393.75,1,94.518,
01/01/2000,01:28:15.50,19.03,-62.22,-992.59,192.50,-630.0,-490.0,1,94.528,
01/01/2000,01:28:15.51,18.91,-62.22,-992.71,70.0,-726.25,-332.50,1,94.539,
01/01/2000,01:28:15.52,18.91,-62.22,-992.59,148.75,-665.0,-350.0,1,94.549,
01/01/2000,01:28:15.53,19.03,-62.22,-992.47,96.25,-700.0,-341.25,1,94.559,
01/01/2000,01:28:15.54,18.79,-62.10,-992.59,157.50,-752.50,-358.75,1,94.569,
01/01/2000,01:28:15.55,18.79,-62.22,-992.47,131.25,-630.0,-288.75,1,94.579,
01/01/2000,01:28:15.56,20.01,-61.73,-971.85,315.0,446.25,271.25,1,94.590,
01/01/2000,01:28:15.57,6.83,-59.29,-947.09,647.50,-1951.25,4340.0,1,94.424,
01/01/2000,01:28:15.58,8.91,-57.22,-954.04,-507.50,-2292.50,-1443.75,1,94.610,
01/01/2000,01:28:15.59,16.10,-65.15,-986.74,113.75,-1907.50,-4331.25,1,94.444,
01/01/2000,01:28:15.60,25.62,-68.69,-1024.07,-315.0,157.50,-551.25,1,94.455,
01/01/2000,01:28:15.61,26.96,-65.64,-1044.44,691.25,297.50,2213.75,1,94.465,
01/01/2000,01:28:15.63,23.91,-57.10,-1016.75,-122.50,-175.0,-1155.0,1,94.475,
01/01/2000,01:28:15.64,20.25,-55.51,-990.88,402.50,-813.75,-358.75,1,94.485,
01/01/2000,01:28:15.65,18.06,-58.07,-973.80,-402.50,-1067.50,1846.25,1,94.495,
01/01/2000,01:28:15.66,17.45,-65.39,-972.22,323.75,-1128.75,183.75,1,94.505,
01/01/2000,01:28:15.67,20.13,-70.39,-992.59,175.0,-988.75,-2485.0,1,94.516,
01/01/2000,01:28:15.68,21.35,-67.59,-1005.16,175.0,-568.75,-2905.0,1,94.526,
01/01/2000,01:28:15.69,20.86,-61.12,-1007.11,245.0,-245.0,-840.0,1,94.536,
01/01/2000,01:28:15.70,17.93,-53.07,-996.86,61.25,-420.0,1225.0,1,94.545,
01/01/2000,01:28:15.71,17.20,-54.53,-988.20,-105.0,-717.50,1198.75,1,94.555,
01/01/2000,01:28:15.72,17.69,-60.63,-983.20,297.50,-866.25,428.75,1,94.565,
01/01/2000,01:28:15.73,19.15,-68.93,-986.86,43.75,-945.0,-1128.75,1,94.575,
01/01/2000,01:28:15.74,20.50,-70.03,-992.47,35.0,-875.0,-2327.50,1,94.585,
01/01/2000,01:28:15.75,20.50,-66.25,-995.52,402.50,-752.50,-2345.0,1,94.595,
01/01/2000,01:28:15.76,19.03,-59.05,-994.79,43.75,-595.0,481.25,1,94.604,
01/01/2000,01:28:15.77,17.08,-53.92,-990.52,148.75,-621.25,2152.50,1,94.444,
01/01/2000,01:28:15.78,16.71,-56.49,-989.05,350.0,-621.25,1653.75,1,94.454,
01/01/2000,01:28:15.79,18.42,-64.66,-990.64,113.75,-621.25,-350.0,1,94.464,
01/01/2000,01:28:15.80,19.76,-68.20,-992.35,192.50,-813.75,-2161.25,1,94.474,
01/01/2000,01:28:15.81,20.25,-67.47,-992.59,96.25,-770.0,-2458.75,1,94.484,
01/01/2000,01:28:15.83,19.03,-61.24,-990.88,157.50,-656.25,358.75,1,94.494,
01/01/2000,01:28:15.84,17.57,-56.61,-990.76,201.25,-647.50,980.0,1,94.504,
01/01/2000,01:28:15.85,17.32,-57.34,-991.98,61.25,-551.25,385.0,1,94.513,
01/01/2000,01:28:15.86,17.93,-62.95,-993.45,236.25,-595.0,-463.75,1,94.523,
01/01/2000,01:28:15.87,19.40,-65.51,-992.84,175.0,-682.50,-1128.75,1,94.533,
01/01/2000,01:28:15.88,20.01,-65.88,-991.37,122.50,-770.0,-962.50,1,94.542,
01/01/2000,01:28:15.89,19.89,-64.05,-990.15,157.50,-945.0,-612.50,1,94.552,
01/01/2000,01:28:15.90,19.03,-61.37,-990.40,78.75,-805.0,87.50,1,94.561,
01/01/2000,01:28:15.91,18.18,-59.05,-992.84,210.0,-551.25,385.0,1,94.406,
01/01/2000,01:28:15.92,18.06,-59.54,-993.93,78.75,-568.75,52.50,1,94.415,
01/01/2000,01:28:15.93,18.42,-61.24,-993.69,218.75,-612.50,-367.50,1,94.425,
01/01/2000,01:28:15.94,19.03,-63.68,-991.13,192.50,-743.75,-621.25,1,94.435,
01/01/2000,01:28:15.95,19.76,-64.05,-990.15,8.75,-901.25,-595.0,1,94.444,
01/01/2000,01:28:15.96,19.64,-63.32,-990.40,341.25,-761.25,-560.0,1,94.454,
01/01/2000,01:28:15.97,19.15,-62.10,-991.86,140.0,-743.75,-332.50,1,94.464,
01/01/2000,01:28:15.99,18.30,-60.51,-993.57,210.0,-630.0,-78.75,1,94.473,
01/01/2000,01:28:16.00,18.06,-60.39,-993.32,210.0,-638.75,-35.0,1,94.483,
01/01/2000,01:28:16.01,18.91,-61.49,-991.37,227.50,-726.25,-122.50,1,94.492,
01/01/2000,01:28:16.02,19.64,-62.71,-990.52,-8.75,-796.25,-183.75,1,94.502,
01/01/2000,01:28:16.03,19.76,-63.68,-990.88,131.25,-857.50,-385.0,1,94.511,
01/01/2000,01:28:16.04,19.52,-63.56,-991.86,26.25,-796.25,-682.50,1,94.521,
01/01/2000,01:28:16.05,18.54,-61.98,-993.08,271.25,-463.75,-411.25,1,94.530,
01/01/2000,01:28:16.06,18.06,-60.15,-992.47,157.50,-568.75,-131.25,1,94.539,
01/01/2000,01:28:16.07,18.54,-60.27,-991.86,87.50,-673.75,-52.50,1,94.549,
01/01/2000,01:28:16.08,19.03,-61.61,-991.62,166.25,-735.0,-61.25,1,94.558,
01/01/2000,01:28:16.09,19.64,-63.20,-991.74,105.0,-743.75,-288.75,1,94.567,
01/01/2000,01:28:16.10,19.52,-64.17,-992.10,8.75,-717.50,-691.25,1,94.576,
01/01/2000,01:28:16.11,19.03,-63.20,-992.71,175.0,-647.50,-455.0,1,94.585,
01/01/2000,01:28:16.12,18.67,-61.0,-992.47,175.0,-673.75,-280.0,1,94.435,
01/01/2000,01:28:16.13,18.79,-60.51,-992.47,175.0,-621.25,-87.50,1,94.444,
01/01/2000,01:28:16.15,18.79,-61.0,-992.71,148.75,-621.25,43.75,1,94.454,
01/01/2000,01:28:16.15,19.03,-62.22,-992.84,253.75,-700.0,-262.50,1,94.463,
01/01/2000,01:28:16.17,19.15,-63.44,-992.59,122.50,-822.50,-568.75,1,94.472,
01/01/2000,01:28:16.18,19.15,-63.20,-992.35,148.75,-822.50,-525.0,1,94.482,
01/01/2000,01:28:16.19,19.15,-62.22,-992.10,227.50,-770.0,-315.0,1,94.491,
01/01/2000,01:28:16.20,18.91,-60.88,-992.47,236.25,-708.75,-157.50,1,94.500,
01/01/2000,01:28:16.21,18.79,-60.88,-992.84,78.75,-612.50,-227.50,1,94.509,
01/01/2000,01:28:16.22,18.79,-61.61,-992.84,113.75,-813.75,-52.50,1,94.518,
01/01/2000,01:28:16.23,19.03,-62.71,-992.35,148.75,-778.75,-446.25,1,94.527,
01/01/2000,01:28:16.24,19.28,-62.95,-991.98,201.25,-743.75,-577.50,1,94.536,
01/01/2000,01:28:16.25,19.52,-62.46,-991.86,-43.75,-752.50,-367.50,1,94.545,
01/01/2000,01:28:16.26,19.03,-61.73,-992.23,78.75,-796.25,-245.0,1,94.399,
01/01/2000,01:28:16.27,18.79,-61.61,-992.59,105.0,-638.75,-210.0,1,94.408,
01/01/2000,01:28:16.28,18.79,-61.49,-992.84,253.75,-595.0,-341.25,1,94.417,
01/01/2000,01:28:16.29,19.15,-61.85,-992.47,105.0,-665.0,-253.75,1,94.426,
01/01/2000,01:28:16.30,19.40,-62.22,-992.10,192.50,-665.0,-306.25,1,94.435,
01/01/2000,01:28:16.31,19.40,-62.46,-991.98,-8.75,-787.50,-411.25,1,94.444,
01/01/2000,01:28:16.32,19.15,-62.46,-992.23,175.0,-743.75,-481.25,1,94.454,
01/01/2000,01:28:16.34,18.91,-61.73,-992.96,26.25,-717.50,-341.25,1,94.463,
01/01/2000,01:28:16.35,18.91,-61.49,-992.84,236.25,-665.0,-253.75,1,94.318,
01/01/2000,01:28:16.36,19.15,-61.73,-992.47,183.75,-743.75,-253.75,1,94.327,
01/01/2000,01:28:16.37,19.40,-62.22,-992.35,210.0,-708.75,-498.75,1,94.337,
01/01/2000,01:28:16.38,19.28,-62.46,-992.35,140.0,-717.50,-437.50,1,94.346,
01/01/2000,01:28:16.39,19.28,-62.34,-992.84,105.0,-726.25,-367.50,1,94.355,
01/01/2000,01:28:16.40,19.03,-62.10,-992.84,253.75,-726.25,-437.50,1,94.364,
01/01/2000,01:28:16.41,19.03,-61.73,-992.71,280.0,-700.0,-210.0,1,94.373,
01/01/2000,01:28:16.42,19.03,-61.73,-992.47,201.25,-691.25,-288.75,1,94.382,
01/01/2000,01:28:16.43,19.15,-62.34,-992.35,166.25,-612.50,-297.50,1,94.391,
01/01/2000,01:28:16.44,19.15,-62.34,-992.59,87.50,-673.75,-306.25,1,94.400,
01/01/2000,01:28:16.45,19.03,-62.46,-992.59,175.0,-665.0,-341.25,1,94.409,
01/01/2000,01:28:16.46,19.03,-62.10,-992.71,227.50,-673.75,-490.0,1,94.418,
01/01/2000,01:28:16.48,18.91,-61.73,-992.71,227.50,-647.50,-341.25,1,94.427,
01/01/2000,01:28:16.49,18.79,-61.37,-992.59,87.50,-708.75,-245.0,1,94.436,
01/01/2000,01:28:16.50,18.79,-61.49,-992.59,70.0,-621.25,-253.75,1,94.444,
01/01/2000,01:28:16.51,18.79,-61.85,-992.59,227.50,-700.0,-332.50,1,94.453,
01/01/2000,01:28:16.52,19.03,-62.10,-992.59,105.0,-735.0,-367.50,1,94.462,
01/01/2000,01:28:16.53,19.03,-61.98,-992.71,175.0,-647.50,-446.25,1,94.471,
01/01/2000,01:28:16.54,19.15,-61.85,-992.84,96.25,-778.75,-341.25,1,94.479,
01/01/2000,01:28:16.55,19.15,-61.61,-992.84,166.25,-717.50,-288.75,1,94.488,
01/01/2000,01:28:16.56,19.03,-61.61,-992.84,8.75,-717.50,-323.75,1,94.497,
01/01/2000,01:28:16.57,19.03,-62.10,-992.71,157.50,-691.25,-428.75,1,94.505,
01/01/2000,01:28:16.58,19.15,-62.22,-992.59,201.25,-647.50,-227.50,1,94.514,
01/01/2000,01:28:16.59,19.15,-62.59,-992.47,0.0,-778.75,-306.25,1,94.523,
01/01/2000,01:28:16.60,19.03,-62.46,-992.59,183.75,-726.25,-323.75,1,94.531,
01/01/2000,01:28:16.61,19.03,-61.98,-992.71,122.50,-691.25,-376.25,1,94.540,
01/01/2000,01:28:16.62,19.03,-61.85,-992.59,52.50,-682.50,-315.0,1,94.548,
01/01/2000,01:28:16.63,18.79,-61.98,-992.59,148.75,-586.25,-350.0,1,94.557,
01/01/2000,01:28:16.64,18.79,-62.34,-992.59,297.50,-787.50,-393.75,1,94.419,
01/01/2000,01:28:16.65,19.03,-62.22,-992.47,113.75,-656.25,-323.75,1,94.574,
01/01/2000,01:28:16.66,19.03,-62.34,-992.35,105.0,-726.25,-367.50,1,94.436,
01/01/2000,01:28:16.67,19.03,-62.22,-992.23,78.75,-752.50,-262.50,1,94.590,
01/01/2000,01:28:16.69,19.03,-61.98,-992.35,78.75,-673.75,-253.75,1,94.453,
01/01/2000,01:28:16.70,19.03,-61.98,-992.59,262.50,-700.0,-420.0,1,94.462,
01/01/2000,01:28:16.71,19.15,-61.98,-992.71,70.0,-621.25,-358.75,1,94.470,
01/01/2000,01:28:16.72,19.15,-61.98,-992.84,157.50,-700.0,-411.25,1,94.479,
01/01/2000,01:28:16.73,19.28,-62.22,-992.84,201.25,-726.25,-288.75,1,94.487,
01/01/2000,01:28:16.74,19.03,-61.98,-992.71,87.50,-673.75,-385.0,1,94.495,
01/01/2000,01:28:16.75,19.03,-62.22,-992.59,35.0,-638.75,-253.75,1,94.504,
01/01/2000,01:28:16.76,18.91,-62.22,-992.71,175.0,-691.25,-446.25,1,94.512,
01/01/2000,01:28:16.77,18.91,-61.98,-992.84,52.50,-691.25,-297.50,1,94.521,
01/01/2000,01:28:16.78,19.03,-61.98,-992.71,183.75,-656.25,-358.75,1,94.529,
01/01/2000,01:28:16.79,19.03,-61.98,-992.59,131.25,-691.25,-297.50,1,94.537,
01/01/2000,01:28:16.80,18.79,-61.98,-992.59,271.25,-778.75,-341.25,1,94.545,
01/01/2000,01:28:16.81,18.79,-61.98,-992.59,210.0,-743.75,-420.0,1,94.554,
01/01/2000,01:28:16.82,18.91,-61.98,-992.84,78.75,-682.50,-411.25,1,94.419,
01/01/2000,01:28:16.83,19.03,-61.98,-992.71,192.50,-647.50,-280.0,1,94.428,
01/01/2000,01:28:16.84,19.03,-61.98,-992.47,140.0,-700.0,-271.25,1,94.436,
01/01/2000,01:28:16.86,19.03,-61.98,-992.35,131.25,-708.75,-315.0,1,94.444,
01/01/2000,01:28:16.87,19.15,-62.10,-992.47,245.0,-822.50,-420.0,1,94.453,
01/01/2000,01:28:16.88,19.15,-61.85,-992.59,26.25,-717.50,-262.50,1,94.461,
01/01/2000,01:28:16.89,19.03,-61.85,-992.47,96.25,-752.50,-253.75,1,94.469,
01/01/2000,01:28:16.90,18.79,-61.73,-992.47,166.25,-595.0,-306.25,1,94.478,
01/01/2000,01:28:16.91,18.91,-61.98,-992.47,201.25,-770.0,-393.75,1,94.486,
01/01/2000,01:28:16.92,19.03,-61.98,-992.59,8.75,-656.25,-332.50,1,94.494,
01/01/2000,01:28:16.93,19.28,-61.98,-992.59,218.75,-621.25,-262.50,1,94.502,
01/01/2000,01:28:16.94,19.15,-61.85,-992.47,227.50,-840.0,-297.50,1,94.510,
01/01/2000,01:28:16.95,19.03,-61.85,-992.47,43.75,-638.75,-315.0,1,94.519,
01/01/2000,01:28:16.96,19.03,-61.98,-992.47,306.25,-612.50,-315.0,1,94.527,
01/01/2000,01:28:16.97,19.03,-61.98,-992.59,148.75,-735.0,-280.0,1,94.535,
01/01/2000,01:28:16.98,19.03,-61.98,-992.47,306.25,-717.50,-332.50,1,94.543,
01/01/2000,01:28:16.99,19.03,-61.98,-992.35,131.25,-717.50,-262.50,1,94.412,
01/01/2000,01:28:17.00,19.03,-61.98,-992.35,122.50,-708.75,-376.25,1,94.559,
01/01/2000,01:28:17.01,19.03,-62.10,-992.35,245.0,-743.75,-428.75,1,94.428,
01/01/2000,01:28:17.02,19.03,-61.73,-992.35,201.25,-630.0,-341.25,1,94.436,
01/01/2000,01:28:17.04,19.03,-61.73,-992.59,96.25,-700.0,-262.50,1,94.444,
01/01/2000,01:28:17.05,19.03,-61.98,-992.59,262.50,-656.25,-297.50,1,94.453,
01/01/2000,01:28:17.06,19.03,-61.98,-992.47,122.50,-656.25,-332.50,1,94.461,
01/01/2000,01:28:17.07,18.91,-62.10,-992.35,201.25,-717.50,-271.25,1,94.469,
01/01/2000,01:28:17.08,19.03,-62.22,-992.35,122.50,-805.0,-280.0,1,94.477,
01/01/2000,01:28:17.09,18.91,-62.10,-992.47,122.50,-691.25,-350.0,1,94.485,
01/01/2000,01:28:17.10,18.91,-61.98,-992.47,288.75,-708.75,-376.25,1,94.493,
01/01/2000,01:28:17.11,18.79,-61.73,-992.35,148.75,-673.75,-288.75,1,94.501,
01/01/2000,01:28:17.12,18.79,-61.85,-992.35,315.0,-656.25,-402.50,1,94.509,
01/01/2000,01:28:17.13,18.79,-61.73,-992.35,262.50,-586.25,-385.0,1,94.517,
01/01/2000,01:28:17.14,19.03,-61.98,-992.35,17.50,-708.75,-253.75,1,94.524,
01/01/2000,01:28:17.15,19.15,-61.73,-992.35,192.50,-735.0,-376.25,1,94.532,
01/01/2000,01:28:17.16,19.15,-61.73,-992.35,236.25,-682.50,-367.50,1,94.540,
01/01/2000,01:28:17.17,19.03,-61.61,-992.23,70.0,-673.75,-253.75,1,94.548,
01/01/2000,01:28:17.18,19.15,-61.85,-992.35,166.25,-735.0,-297.50,1,94.421,
01/01/2000,01:28:17.19,19.28,-61.73,-992.47,297.50,-656.25,-341.25,1,94.429,
01/01/2000,01:28:17.20,19.28,-61.85,-992.35,70.0,-770.0,-280.0,1,94.437,
01/01/2000,01:28:17.21,19.28,-61.98,-992.35,192.50,-682.50,-341.25,1,94.444,
01/01/2000,01:28:17.22,19.28,-62.10,-992.47,70.0,-726.25,-306.25,1,94.452,
01/01/2000,01:28:17.23,19.28,-61.98,-992.59,166.25,-595.0,-393.75,1,94.460,
01/01/2000,01:28:17.25,19.28,-62.10,-992.71,183.75,-796.25,-315.0,1,94.468,
01/01/2000,01:28:17.26,19.15,-62.22,-992.59,52.50,-656.25,-315.0,1,94.476,
01/01/2000,01:28:17.27,19.03,-62.46,-992.47,323.75,-656.25,-350.0,1,94.484,
01/01/2000,01:28:17.28,19.03,-62.46,-992.35,262.50,-673.75,-437.50,1,94.492,
01/01/2000,01:28:17.29,18.91,-62.22,-992.47,61.25,-647.50,-350.0,1,94.499,
01/01/2000,01:28:17.30,19.03,-62.22,-992.35,140.0,-717.50,-288.75,1,94.507,
01/01/2000,01:28:17.31,18.91,-62.22,-992.47,140.0,-665.0,-280.0,1,94.515,
01/01/2000,01:28:17.32,19.03,-62.22,-992.59,96.25,-761.25,-315.0,1,94.390,
01/01/2000,01:28:17.33,19.03,-62.34,-992.47,227.50,-647.50,-341.25,1,94.530,
01/01/2000,01:28:17.34,19.15,-62.22,-992.35,253.75,-770.0,-455.0,1,94.406,
01/01/2000,01:28:17.35,19.03,-62.22,-992.23,245.0,-796.25,-402.50,1,94.413,
01/01/2000,01:28:17.37,19.03,-62.10,-992.35,105.0,-673.75,-393.75,1,94.421,
01/01/2000,01:28:17.38,18.91,-61.98,-992.35,148.75,-682.50,-350.0,1,94.429,
01/01/2000,01:28:17.39,19.03,-62.22,-992.47,166.25,-822.50,-280.0,1,94.437,
01/01/2000,01:28:17.40,19.03,-62.22,-992.35,70.0,-621.25,-472.50,1,94.444,
01/01/2000,01:28:17.41,19.03,-62.34,-992.47,218.75,-717.50,-350.0,1,94.452,
01/01/2000,01:28:17.42,19.03,-62.34,-992.59,183.75,-691.25,-323.75,1,94.460,
01/01/2000,01:28:17.43,18.79,-62.10,-992.47,43.75,-700.0,-306.25,1,94.467,
01/01/2000,01:28:17.44,18.67,-61.98,-992.59,78.75,-691.25,-245.0,1,94.475,
01/01/2000,01:28:17.45,18.79,-62.22,-992.71,192.50,-717.50,-297.50,1,94.483,
01/01/2000,01:28:17.46,18.79,-62.22,-992.71,0.0,-717.50,-280.0,1,94.490,
01/01/2000,01:28:17.47,18.79,-62.22,-992.59,148.75,-708.75,-323.75,1,94.498,
01/01/2000,01:28:17.48,18.79,-62.22,-992.59,78.75,-770.0,-297.50,1,94.505,
01/01/2000,01:28:17.49,18.54,-61.98,-992.59,192.50,-743.75,-393.75,1,94.513,
01/01/2000,01:28:17.50,18.79,-62.10,-992.59,253.75,-673.75,-472.50,1,94.521,
01/01/2000,01:28:17.51,18.79,-61.85,-992.71,78.75,-630.0,-262.50,1,94.528,
01/01/2000,01:28:17.52,18.67,-61.98,-992.59,70.0,-752.50,-428.75,1,94.536,
01/01/2000,01:28:17.53,18.67,-62.22,-992.35,262.50,-691.25,-358.75,1,94.414,
01/01/2000,01:28:17.54,18.79,-62.10,-992.35,236.25,-717.50,-472.50,1,94.422,
01/01/2000,01:28:17.55,18.91,-62.10,-992.35,227.50,-700.0,-341.25,1,94.429,
01/01/2000,01:28:17.56,18.91,-61.98,-992.47,210.0,-761.25,-367.50,1,94.437,
01/01/2000,01:28:17.57,18.79,-61.85,-992.47,192.50,-778.75,-262.50,1,94.444,
01/01/2000,01:28:17.58,18.79,-61.98,-992.47,166.25,-717.50,-393.75,1,94.452,
01/01/2000,01:28:17.59,18.79,-61.98,-992.35,0.0,-743.75,-236.25,1,94.459,
01/01/2000,01:28:17.61,19.03,-62.10,-992.35,227.50,-656.25,-385.0,1,94.467,
01/01/2000,01:28:17.62,18.91,-62.22,-992.35,253.75,-621.25,-446.25,1,94.474,
01/01/2000,01:28:17.63,18.91,-62.10,-992.35,218.75,-700.0,-385.0,1,94.482,
01/01/2000,01:28:17.64,19.03,-62.10,-992.47,218.75,-577.50,-341.25,1,94.489,
01/01/2000,01:28:17.65,19.03,-61.85,-992.47,140.0,-630.0,-210.0,1,94.497,
01/01/2000,01:28:17.66,19.03,-61.98,-992.35,175.0,-822.50,-306.25,1,94.504,
01/01/2000,01:28:17.67,18.79,-62.10,-992.35,78.75,-735.0,-332.50,1,94.511,
01/01/2000,01:28:17.68,18.79,-62.10,-992.35,166.25,-656.25,-420.0,1,94.519,
01/01/2000,01:28:17.69,18.79,-62.10,-992.35,183.75,-673.75,-402.50,1,94.526,
01/01/2000,01:28:17.70,18.79,-61.85,-992.35,131.25,-761.25,-297.50,1,94.533,
01/01/2000,01:28:17.71,18.79,-61.73,-992.23,262.50,-708.75,-201.25,1,94.541,
01/01/2000,01:28:17.72,18.79,-61.73,-992.47,201.25,-717.50,-332.50,1,94.548,
01/01/2000,01:28:17.73,18.91,-61.73,-992.59,35.0,-813.75,-323.75,1,94.555,
01/01/2000,01:28:17.74,19.03,-62.10,-992.47,61.25,-743.75,-367.50,1,94.437,
01/01/2000,01:28:17.75,19.03,-61.98,-992.35,105.0,-656.25,-411.25,1,94.444,
01/01/2000,01:28:17.76,19.03,-61.98,-992.35,113.75,-665.0,-323.75,1,94.452,
01/01/2000,01:28:17.77,19.03,-62.10,-992.35,192.50,-787.50,-376.25,1,94.459,
01/01/2000,01:28:17.78,19.15,-61.98,-992.59,157.50,-586.25,-341.25,1,94.466,
01/01/2000,01:28:17.79,19.15,-61.98,-992.59,210.0,-656.25,-332.50,1,94.474,
01/01/2000,01:28:17.80,19.15,-62.10,-992.59,175.0,-726.25,-350.0,1,94.481,
01/01/2000,01:28:17.82,19.15,-62.34,-992.35,78.75,-726.25,-306.25,1,94.488,
01/01/2000,01:28:17.83,19.03,-62.22,-992.23,175.0,-787.50,-297.50,1,94.495,
01/01/2000,01:28:17.84,19.03,-62.34,-992.59,122.50,-708.75,-262.50,1,94.503,
01/01/2000,01:28:17.85,19.03,-62.22,-992.59,376.25,-708.75,-446.25,1,94.510,
01/01/2000,01:28:17.86,18.91,-62.10,-992.71,131.25,-761.25,-262.50,1,94.517,
01/01/2000,01:28:17.87,19.03,-62.10,-992.84,52.50,-822.50,-332.50,1,94.401,
01/01/2000,01:28:17.89,19.15,-61.98,-992.59,297.50,-708.75,-358.75,1,94.408,
01/01/2000,01:28:17.90,19.03,-62.22,-992.47,210.0,-735.0,-385.0,1,94.416,
01/01/2000,01:28:17.91,19.03,-62.10,-992.47,131.25,-708.75,-402.50,1,94.423,
01/01/2000,01:28:17.92,19.03,-62.10,-992.47,288.75,-717.50,-411.25,1,94.430,
01/01/2000,01:28:17.93,19.15,-62.10,-992.59,122.50,-743.75,-245.0,1,94.437,
01/01/2000,01:28:17.94,18.91,-61.98,-992.59,87.50,-735.0,-288.75,1,94.444,
01/01/2000,01:28:17.95,19.03,-62.10,-992.35,175.0,-621.25,-367.50,1,94.452,
01/01/2000,01:28:17.96,19.03,-62.34,-992.47,192.50,-717.50,-350.0,1,94.459,
01/01/2000,01:28:17.97,19.03,-62.22,-992.59,122.50,-752.50,-358.75,1,94.466,
01/01/2000,01:28:17.98,18.91,-62.34,-992.47,201.25,-726.25,-315.0,1,94.473,
01/01/2000,01:28:17.99,19.03,-62.22,-992.35,96.25,-770.0,-411.25,1,94.480,
01/01/2000,01:28:18.00,19.15,-62.34,-992.59,113.75,-761.25,-323.75,1,94.487,
01/01/2000,01:28:18.01,19.15,-62.10,-992.71,192.50,-673.75,-367.50,1,94.494,
01/01/2000,01:28:18.02,19.03,-62.22,-992.84,78.75,-665.0,-341.25,1,94.501,
01/01/2000,01:28:18.03,18.79,-61.98,-992.84,157.50,-656.25,-297.50,1,94.508,
01/01/2000,01:28:18.04,18.79,-61.98,-992.71,262.50,-682.50,-323.75,1,94.515,
01/01/2000,01:28:18.05,18.91,-61.98,-992.59,236.25,-682.50,-262.50,1,94.522,
01/01/2000,01:28:18.06,18.79,-61.98,-992.59,183.75,-717.50,-297.50,1,94.529,
01/01/2000,01:28:18.07,18.79,-61.98,-992.84,306.25,-621.25,-420.0,1,94.536,
01/01/2000,01:28:18.08,18.79,-61.98,-992.84,157.50,-700.0,-411.25,1,94.543,
01/01/2000,01:28:18.10,19.03,-61.73,-992.84,113.75,-761.25,-437.50,1,94.430,
01/01/2000,01:28:18.10,19.03,-61.73,-992.71,201.25,-805.0,-376.25,1,94.437,
01/01/2000,01:28:18.12,19.03,-61.98,-992.59,192.50,-726.25,-428.75,1,94.444,
01/01/2000,01:28:18.13,19.03,-61.98,-992.84,166.25,-770.0,-428.75,1,94.451,
01/01/2000,01:28:18.14,19.15,-61.73,-992.84,96.25,-682.50,-236.25,1,94.458,
01/01/2000,01:28:18.15,19.15,-61.73,-992.84,113.75,-735.0,-306.25,1,94.465,
01/01/2000,01:28:18.16,19.03,-61.61,-992.71,87.50,-665.0,-332.50,1,94.472,
01/01/2000,01:28:18.17,18.91,-62.10,-992.59,105.0,-665.0,-323.75,1,94.479,
01/01/2000,01:28:18.18,19.03,-61.98,-992.59,201.25,-743.75,-358.75,1,94.486,
01/01/2000,01:28:18.19,19.03,-61.98,-992.59,192.50,-726.25,-376.25,1,94.493,
01/01/2000,01:28:18.20,18.91,-61.98,-992.59,166.25,-761.25,-210.0,1,94.500,
01/01/2000,01:28:18.21,19.03,-61.85,-992.71,78.75,-647.50,-323.75,1,94.507,
01/01/2000,01:28:18.22,18.79,-61.85,-992.84,227.50,-673.75,-341.25,1,94.514,
01/01/2000,01:28:18.23,18.79,-61.98,-993.08,271.25,-787.50,-271.25,1,94.403,
01/01/2000,01:28:18.24,18.91,-62.10,-992.96,218.75,-586.25,-245.0,1,94.410,
01/01/2000,01:28:18.25,18.79,-62.22,-992.84,218.75,-735.0,-393.75,1,94.417,
01/01/2000,01:28:18.26,18.79,-62.22,-992.71,131.25,-665.0,-367.50,1,94.424,
01/01/2000,01:28:18.27,18.91,-62.10,-992.59,113.75,-805.0,-393.75,1,94.431,
01/01/2000,01:28:18.28,18.79,-61.98,-992.71,113.75,-726.25,-393.75,1,94.438,
01/01/2000,01:28:18.29,18.79,-62.10,-992.59,253.75,-691.25,-227.50,1,94.444,
01/01/2000,01:28:18.31,19.03,-62.22,-992.84,166.25,-673.75,-446.25,1,94.451,
01/01/2000,01:28:18.32,19.03,-62.22,-992.84,140.0,-682.50,-236.25,1,94.458,
01/01/2000,01:28:18.33,18.91,-62.34,-992.71,183.75,-673.75,-385.0,1,94.465,
01/01/2000,01:28:18.34,19.03,-62.34,-992.59,183.75,-656.25,-288.75,1,94.472,
01/01/2000,01:28:18.35,19.03,-62.22,-992.59,96.25,-726.25,-262.50,1,94.479,
01/01/2000,01:28:18.36,19.03,-62.22,-992.59,227.50,-647.50,-218.75,1,94.485,
01/01/2000,01:28:18.37,18.91,-61.98,-992.59,122.50,-700.0,-131.25,1,94.492,
01/01/2000,01:28:18.39,18.79,-61.24,-992.35,26.25,-595.0,568.75,1,94.383,
01/01/2000,01:28:18.40,18.91,-60.76,-992.59,87.50,-603.75,1032.50,1,94.390,
01/01/2000,01:28:18.41,18.79,-60.51,-992.71,175.0,-673.75,1487.50,1,94.397,
01/01/2000,01:28:18.42,18.67,-60.39,-992.71,96.25,-647.50,2100.0,1,94.404,
01/01/2000,01:28:18.43,18.54,-60.63,-992.84,227.50,-516.25,2432.50,1,94.411,
01/01/2000,01:28:18.44,18.67,-61.49,-992.59,192.50,-603.75,2458.75,1,94.417,
01/01/2000,01:28:18.45,18.79,-62.46,-992.47,113.75,-516.25,2170.0,1,94.424,
01/01/2000,01:28:18.46,18.91,-62.83,-992.47,131.25,-682.50,1916.25,1,94.431,
01/01/2000,01:28:18.47,18.91,-63.20,-992.35,148.75,-595.0,1837.50,1,94.438,
01/01/2000,01:28:18.48,18.79,-62.46,-992.47,201.25,-621.25,1802.50,1,94.444,
01/01/2000,01:28:18.49,18.79,-61.49,-992.59,78.75,-577.50,2502.50,1,94.451,
01/01/2000,01:28:18.50,18.91,-60.51,-992.71,140.0,-595.0,4051.25,1,94.458,
01/01/2000,01:28:18.51,18.79,-59.78,-992.84,131.25,-341.25,6842.50,1,94.465,
01/01/2000,01:28:18.52,18.54,-59.78,-993.08,17.50,-341.25,8461.25,1,94.471,
01/01/2000,01:28:18.53,18.79,-60.63,-992.96,122.50,-297.50,8890.0,1,94.478,
01/01/2000,01:28:18.54,18.79,-61.37,-992.84,113.75,-437.50,7253.75,1,94.484,
01/01/2000,01:28:18.55,19.03,-62.83,-992.47,280.0,-481.25,5468.75,1,94.491,
01/01/2000,01:28:18.56,19.03,-63.68,-992.47,-52.50,-560.0,3710.0,1,94.498,
01/01/2000,01:28:18.57,18.79,-63.81,-992.59,-26.25,-673.75,2030.0,1,94.504,
01/01/2000,01:28:18.58,18.79,-63.81,-992.71,306.25,-717.50,918.75,1,94.511,
01/01/2000,01:28:18.59,18.79,-62.83,-992.96,183.75,-638.75,770.0,1,94.405,
01/01/2000,01:28:18.60,18.79,-62.10,-992.84,35.0,-621.25,1487.50,1,94.411,
01/01/2000,01:28:18.61,18.67,-61.85,-992.47,61.25,-586.25,2336.25,1,94.418,
01/01/2000,01:28:18.62,18.67,-62.10,-992.47,105.0,-665.0,2835.0,1,94.425,
01/01/2000,01:28:18.63,18.67,-62.10,-992.59,122.50,-533.75,3036.25,1,94.431,
01/01/2000,01:28:18.65,18.91,-62.83,-992.47,192.50,-621.25,2598.75,1,94.438,
01/01/2000,01:28:18.66,19.03,-63.07,-992.59,148.75,-481.25,2283.75,1,94.444,
01/01/2000,01:28:18.67,18.91,-63.32,-992.59,0.0,-595.0,1863.75,1,94.451,
01/01/2000,01:28:18.68,18.54,-63.20,-992.35,210.0,-568.75,1347.50,1,94.458,
01/01/2000,01:28:18.69,18.54,-62.95,-992.47,87.50,-691.25,586.25,1,94.464,
01/01/2000,01:28:18.70,18.79,-62.71,-992.47,280.0,-717.50,0.0,1,94.471,
01/01/2000,01:28:18.71,19.03,-62.59,-992.59,341.25,-708.75,-148.75,1,94.477,
01/01/2000,01:28:18.72,19.03,-62.59,-992.47,61.25,-778.75,-166.25,1,94.484,
01/01/2000,01:28:18.73,18.67,-62.46,-992.35,210.0,-682.50,-280.0,1,94.379,
01/01/2000,01:28:18.74,18.67,-62.46,-992.35,218.75,-770.0,-472.50,1,94.386,
01/01/2000,01:28:18.75,18.67,-62.34,-992.47,218.75,-638.75,-376.25,1,94.393,
01/01/2000,01:28:18.76,18.91,-62.22,-992.84,122.50,-691.25,-253.75,1,94.399,
01/01/2000,01:28:18.77,19.03,-62.22,-992.71,131.25,-735.0,-428.75,1,94.406,
01/01/2000,01:28:18.78,18.79,-62.22,-992.71,157.50,-647.50,-280.0,1,94.412,
01/01/2000,01:28:18.79,18.79,-62.34,-992.71,262.50,-621.25,-262.50,1,94.419,
01/01/2000,01:28:18.81,18.79,-62.22,-992.59,131.25,-647.50,-437.50,1,94.425,
01/01/2000,01:28:18.82,18.79,-62.10,-992.59,87.50,-682.50,-341.25,1,94.432,
01/01/2000,01:28:18.83,18.79,-61.98,-992.59,140.0,-717.50,-236.25,1,94.438,
01/01/2000,01:28:18.84,18.54,-62.22,-992.35,297.50,-717.50,-262.50,1,94.444,
01/01/2000,01:28:18.85,18.54,-62.22,-992.47,236.25,-691.25,-463.75,1,94.451,
01/01/2000,01:28:18.86,18.54,-62.22,-992.47,175.0,-726.25,-411.25,1,94.457,
01/01/2000,01:28:18.87,18.67,-62.10,-992.59,113.75,-866.25,-341.25,1,94.464,
01/01/2000,01:28:18.88,18.79,-62.22,-992.84,87.50,-665.0,-358.75,1,94.470,
01/01/2000,01:28:18.90,18.91,-62.22,-992.84,227.50,-726.25,-288.75,1,94.368,
01/01/2000,01:28:18.91,19.03,-62.10,-992.71,96.25,-673.75,-367.50,1,94.374,
01/01/2000,01:28:18.92,18.79,-62.22,-992.71,26.25,-726.25,-323.75,1,94.381,
01/01/2000,01:28:18.93,18.79,-62.22,-992.59,140.0,-796.25,-367.50,1,94.387,
01/01/2000,01:28:18.94,18.91,-62.22,-992.59,175.0,-708.75,-332.50,1,94.394,
01/01/2000,01:28:18.95,18.91,-61.98,-992.47,218.75,-691.25,-402.50,1,94.400,
01/01/2000,01:28:18.96,19.03,-62.10,-992.35,87.50,-708.75,-402.50,1,94.406,
01/01/2000,01:28:18.97,18.91,-62.10,-992.59,280.0,-700.0,-367.50,1,94.413,
01/01/2000,01:28:18.98,19.03,-61.98,-992.84,26.25,-700.0,-385.0,1,94.419,
01/01/2000,01:28:18.99,19.15,-62.22,-992.59,122.50,-673.75,-385.0,1,94.425,
01/01/2000,01:28:19.00,19.28,-61.98,-992.59,35.0,-700.0,-455.0,1,94.432,
01/01/2000,01:28:19.01,19.28,-61.98,-992.47,87.50,-796.25,-280.0,1,94.438,
01/01/2000,01:28:19.02,19.03,-61.85,-992.47,113.75,-691.25,-175.0,1,94.444,
01/01/2000,01:28:19.03,19.03,-61.85,-992.59,245.0,-630.0,-323.75,1,94.451,
01/01/2000,01:28:19.04,19.03,-61.98,-992.47,166.25,-603.75,-402.50,1,94.457,
01/01/2000,01:28:19.05,19.28,-62.10,-992.35,148.75,-656.25,-446.25,1,94.463,
01/01/2000,01:28:19.06,19.15,-61.98,-992.23,157.50,-647.50,-367.50,1,94.470,
01/01/2000,01:28:19.07,19.15,-61.98,-992.35,192.50,-778.75,-411.25,1,94.476,
01/01/2000,01:28:19.08,19.15,-61.98,-992.59,245.0,-595.0,-218.75,1,94.376,
01/01/2000,01:28:19.09,19.15,-61.98,-992.71,113.75,-726.25,-455.0,1,94.382,
01/01/2000,01:28:19.10,19.15,-62.22,-992.59,253.75,-656.25,-297.50,1,94.388,
01/01/2000,01:28:19.11,19.28,-62.22,-992.59,183.75,-743.75,-236.25,1,94.395,
01/01/2000,01:28:19.12,19.28,-62.22,-992.47,131.25,-717.50,-446.25,1,94.401,
01/01/2000,01:28:19.13,19.28,-62.34,-992.35,183.75,-656.25,-315.0,1,94.407,
01/01/2000,01:28:19.14,19.28,-62.10,-992.35,148.75,-638.75,-297.50,1,94.413,
01/01/2000,01:28:19.16,19.15,-62.10,-992.47,122.50,-603.75,-472.50,1,94.420,
01/01/2000,01:28:19.17,19.03,-61.98,-992.59,175.0,-647.50,-332.50,1,94.426,
01/01/2000,01:28:19.18,19.03,-62.10,-992.47,105.0,-717.50,-332.50,1,94.432,
01/01/2000,01:28:19.19,19.03,-61.98,-992.35,192.50,-717.50,-420.0,1,94.438,
01/01/2000,01:28:19.20,18.91,-62.10,-992.47,183.75,-638.75,-402.50,1,94.444,
01/01/2000,01:28:19.21,19.03,-62.22,-992.59,183.75,-665.0,-420.0,1,94.451,
01/01/2000,01:28:19.22,19.03,-62.10,-992.47,157.50,-621.25,-376.25,1,94.352,
01/01/2000,01:28:19.23,19.03,-62.10,-992.47,210.0,-647.50,-210.0,1,94.463,
01/01/2000,01:28:19.24,19.03,-61.98,-992.47,201.25,-568.75,-332.50,1,94.365,
01/01/2000,01:28:19.25,19.03,-61.85,-992.35,78.75,-647.50,-376.25,1,94.371,
01/01/2000,01:28:19.26,19.28,-62.22,-992.35,175.0,-700.0,-498.75,1,94.377,
01/01/2000,01:28:19.27,19.28,-62.22,-992.35,183.75,-770.0,-306.25,1,94.383,
01/01/2000,01:28:19.28,19.15,-62.34,-992.23,70.0,-708.75,-437.50,1,94.389,
01/01/2000,01:28:19.30,19.03,-62.10,-992.10,-43.75,-717.50,-437.50,1,94.396,
01/01/2000,01:28:19.31,19.03,-62.22,-992.35,341.25,-551.25,-393.75,1,94.402,
01/01/2000,01:28:19.32,18.67,-62.10,-992.35,271.25,-708.75,-288.75,1,94.408,
01/01/2000,01:28:19.33,18.79,-61.98,-992.35,140.0,-691.25,-428.75,1,94.414,
01/01/2000,01:28:19.34,19.52,-62.22,-991.98,105.0,-752.50,-315.0,1,94.420,
01/01/2000,01:28:19.35,19.28,-62.34,-991.98,166.25,-866.25,-297.50,1,94.426,
01/01/2000,01:28:19.36,18.79,-62.34,-992.10,87.50,-647.50,-280.0,1,94.432,
01/01/2000,01:28:19.37,18.67,-62.10,-992.47,271.25,-708.75,-507.50,1,94.438,
01/01/2000,01:28:19.38,19.03,-61.49,-992.59,262.50,-726.25,-350.0,1,94.444,
01/01/2000,01:28:19.39,19.03,-61.73,-992.35,166.25,-656.25,-201.25,1,94.450,
01/01/2000,01:28:19.41,18.79,-62.46,-992.10,140.0,-761.25,-411.25,1,94.354,
01/01/2000,01:28:19.42,18.79,-62.46,-992.35,271.25,-603.75,-472.50,1,94.360,
01/01/2000,01:28:19.43,18.67,-61.98,-992.84,175.0,-673.75,-437.50,1,94.366,
01/01/2000,01:28:19.44,18.91,-61.37,-992.84,201.25,-638.75,-280.0,1,94.372,
01/01/2000,01:28:19.45,19.03,-61.49,-992.35,113.75,-691.25,-210.0,1,94.378,
01/01/2000,01:28:19.46,18.91,-61.73,-992.23,113.75,-665.0,-271.25,1,94.384,
01/01/2000,01:28:19.47,19.03,-62.34,-992.47,262.50,-778.75,-402.50,1,94.391,
01/01/2000,01:28:19.48,19.15,-62.34,-992.84,166.25,-673.75,-376.25,1,94.397,
01/01/2000,01:28:19.49,19.28,-61.98,-992.96,78.75,-682.50,-376.25,1,94.403,
01/01/2000,01:28:19.50,19.15,-61.49,-992.59,218.75,-778.75,-358.75,1,94.409,
01/01/2000,01:28:19.51,18.91,-61.49,-992.35,43.75,-665.0,-297.50,1,94.313,
01/01/2000,01:28:19.52,18.79,-61.85,-992.35,166.25,-682.50,-323.75,1,94.421,
01/01/2000,01:28:19.53,18.79,-62.10,-992.59,148.75,-735.0,-376.25,1,94.325,
01/01/2000,01:28:19.54,19.03,-61.98,-992.59,166.25,-612.50,-315.0,1,94.332,
01/01/2000,01:28:19.55,19.28,-62.10,-992.47,218.75,-647.50,-218.75,1,94.338,
01/01/2000,01:28:19.56,19.03,-61.73,-992.35,245.0,-717.50,-411.25,1,94.344,
01/01/2000,01:28:19.57,18.91,-61.73,-992.35,113.75,-603.75,-385.0,1,94.350,
01/01/2000,01:28:19.59,18.91,-61.73,-992.84,52.50,-665.0,-297.50,1,94.356,
01/01/2000,01:28:19.60,19.15,-61.98,-992.71,52.50,-708.75,-166.25,1,94.362,
01/01/2000,01:28:19.61,19.15,-61.98,-992.47,183.75,-700.0,-498.75,1,94.368,
01/01/2000,01:28:19.62,19.15,-61.98,-992.10,113.75,-656.25,-315.0,1,94.374,
01/01/2000,01:28:19.63,19.03,-62.10,-991.86,157.50,-752.50,-393.75,1,94.380,
01/01/2000,01:28:19.64,19.03,-61.98,-992.10,43.75,-673.75,-271.25,1,94.386,
01/01/2000,01:28:19.65,19.03,-61.85,-992.59,78.75,-743.75,-253.75,1,94.392,
01/01/2000,01:28:19.66,19.15,-61.98,-992.59,341.25,-630.0,-420.0,1,94.397,
01/01/2000,01:28:19.67,19.15,-61.98,-992.35,358.75,-612.50,-437.50,1,94.403,
01/01/2000,01:28:19.68,19.03,-61.98,-992.23,113.75,-673.75,-367.50,1,94.409,
01/01/2000,01:28:19.69,19.03,-62.10,-992.59,166.25,-726.25,-463.75,1,94.415,
01/01/2000,01:28:19.70,19.28,-61.85,-992.71,201.25,-717.50,-315.0,1,94.421,
01/01/2000,01:28:19.71,19.28,-61.73,-992.84,70.0,-796.25,-315.0,1,94.427,
01/01/2000,01:28:19.72,19.15,-61.73,-992.59,131.25,-638.75,-288.75,1,94.334,
01/01/2000,01:28:19.73,19.03,-61.73,-992.35,87.50,-735.0,-525.0,1,94.340,
01/01/2000,01:28:19.74,19.28,-61.98,-992.35,148.75,-665.0,-376.25,1,94.346,
01/01/2000,01:28:19.75,19.40,-61.98,-992.47,70.0,-665.0,-341.25,1,94.351,
01/01/2000,01:28:19.76,19.28,-61.98,-992.59,78.75,-656.25,-358.75,1,94.357,
01/01/2000,01:28:19.77,19.03,-61.98,-992.59,306.25,-656.25,-481.25,1,94.363,
01/01/2000,01:28:19.78,19.03,-61.85,-992.47,210.0,-743.75,-315.0,1,94.369,
01/01/2000,01:28:19.80,19.40,-61.73,-992.47,262.50,-568.75,-306.25,1,94.375,
01/01/2000,01:28:19.81,19.40,-61.85,-992.47,183.75,-743.75,-350.0,1,94.381,
01/01/2000,01:28:19.82,19.40,-61.98,-992.47,157.50,-682.50,-253.75,1,94.387,
01/01/2000,01:28:19.83,19.28,-61.98,-992.35,140.0,-603.75,-402.50,1,94.393,
01/01/2000,01:28:19.84,19.28,-61.85,-992.47,166.25,-752.50,-402.50,1,94.398,
01/01/2000,01:28:19.85,19.40,-61.73,-992.47,262.50,-726.25,-341.25,1,94.404,
01/01/2000,01:28:19.86,19.40,-61.73,-992.35,236.25,-560.0,-341.25,1,94.312,
01/01/2000,01:28:19.87,19.15,-61.98,-992.35,227.50,-735.0,-367.50,1,94.318,
01/01/2000,01:28:19.88,19.03,-61.85,-992.35,-8.75,-621.25,-358.75,1,94.324,
01/01/2000,01:28:19.89,19.15,-62.10,-992.35,227.50,-778.75,-420.0,1,94.330,
01/01/2000,01:28:19.90,19.28,-61.61,-992.47,157.50,-752.50,-245.0,1,94.336,
01/01/2000,01:28:19.92,19.40,-61.61,-992.35,183.75,-656.25,-271.25,1,94.342,
01/01/2000,01:28:19.93,19.28,-61.73,-992.47,192.50,-770.0,-350.0,1,94.347,
01/01/2000,01:28:19.94,19.40,-61.85,-992.47,26.25,-778.75,-376.25,1,94.353,
01/01/2000,01:28:19.95,19.28,-61.85,-992.47,323.75,-743.75,-542.50,1,94.359,
01/01/2000,01:28:19.96,19.28,-61.61,-992.35,87.50,-708.75,-315.0,1,94.365,
01/01/2000,01:28:19.97,19.28,-61.85,-992.23,113.75,-560.0,-402.50,1,94.371,
01/01/2000,01:28:19.98,18.91,-61.98,-992.23,105.0,-761.25,-262.50,1,94.376,
01/01/2000,01:28:19.99,18.91,-61.85,-992.35,96.25,-595.0,-306.25,1,94.382,
01/01/2000,01:28:20.00,19.03,-61.98,-992.35,210.0,-638.75,-350.0,1,94.388,
01/01/2000,01:28:20.01,19.15,-61.85,-992.23,253.75,-752.50,-315.0,1,94.393,
01/01/2000,01:28:20.02,19.03,-61.73,-992.10,166.25,-752.50,-306.25,1,94.399,
01/01/2000,01:28:20.03,18.91,-61.73,-992.10,271.25,-700.0,-297.50,1,94.405,
01/01/2000,01:28:20.04,18.79,-61.98,-992.23,253.75,-638.75,-358.75,1,94.411,
01/01/2000,01:28:20.05,18.79,-61.85,-992.35,245.0,-647.50,-420.0,1,94.416,
01/01/2000,01:28:20.06,18.91,-61.73,-992.35,166.25,-708.75,-315.0,1,94.422,
01/01/2000,01:28:20.07,19.03,-61.49,-992.10,70.0,-700.0,-236.25,1,94.332,
01/01/2000,01:28:20.08,19.03,-61.73,-992.10,157.50,-682.50,-393.75,1,94.338,
01/01/2000,01:28:20.09,18.91,-61.98,-992.23,280.0,-726.25,-376.25,1,94.343,
01/01/2000,01:28:20.10,19.03,-62.10,-992.35,96.25,-647.50,-472.50,1,94.349,
01/01/2000,01:28:20.11,19.28,-61.98,-992.47,201.25,-665.0,-315.0,1,94.355,
01/01/2000,01:28:20.12,19.28,-61.73,-992.35,113.75,-603.75,-332.50,1,94.361,
01/01/2000,01:28:20.13,19.15,-61.85,-992.23,105.0,-682.50,-280.0,1,94.366,
01/01/2000,01:28:20.15,19.03,-61.73,-992.10,52.50,-647.50,-183.75,1,94.372,
01/01/2000,01:28:20.16,19.03,-61.98,-992.23,175.0,-673.75,-385.0,1,94.378,
01/01/2000,01:28:20.17,19.15,-61.98,-992.23,96.25,-577.50,-297.50,1,94.383,
01/01/2000,01:28:20.18,19.03,-61.98,-992.10,87.50,-761.25,-437.50,1,94.389,
01/01/2000,01:28:20.19,19.03,-61.98,-992.23,227.50,-673.75,-297.50,1,94.394,
01/01/2000,01:28:20.20,19.03,-61.85,-992.10,148.75,-682.50,-367.50,1,94.400,
01/01/2000,01:28:20.21,19.28,-62.10,-992.23,245.0,-682.50,-402.50,1,94.406,
01/01/2000,01:28:20.22,19.28,-61.98,-992.10,175.0,-612.50,-402.50,1,94.411,
01/01/2000,01:28:20.23,19.28,-62.10,-992.23,131.25,-682.50,-262.50,1,94.417,
01/01/2000,01:28:20.24,19.28,-61.98,-992.23,201.25,-595.0,-376.25,1,94.422,
01/01/2000,01:28:20.25,19.28,-61.73,-992.10,105.0,-726.25,-271.25,1,94.428,
01/01/2000,01:28:20.26,19.28,-61.73,-992.10,315.0,-752.50,-385.0,1,94.433,
01/01/2000,01:28:20.27,19.40,-61.85,-992.10,262.50,-726.25,-367.50,1,94.439,
01/01/2000,01:28:20.28,19.28,-61.98,-992.23,140.0,-665.0,-280.0,1,94.351,
01/01/2000,01:28:20.29,19.15,-61.98,-992.35,262.50,-691.25,-350.0,1,94.356,
01/01/2000,01:28:20.31,19.15,-61.98,-992.23,157.50,-586.25,-280.0,1,94.362,
01/01/2000,01:28:20.31,19.03,-61.85,-992.10,183.75,-682.50,-376.25,1,94.368,
01/01/2000,01:28:20.33,19.15,-61.85,-992.10,52.50,-708.75,-192.50,1,94.373,
01/01/2000,01:28:20.34,19.03,-61.98,-992.35,323.75,-647.50,-402.50,1,94.379,
01/01/2000,01:28:20.35,19.03,-61.98,-992.35,113.75,-700.0,-376.25,1,94.384,
01/01/2000,01:28:20.36,19.15,-61.98,-992.23,218.75,-717.50,-280.0,1,94.390,
01/01/2000,01:28:20.37,19.15,-61.98,-992.23,183.75,-586.25,-315.0,1,94.395,
01/01/2000,01:28:20.38,19.28,-61.98,-992.10,96.25,-743.75,-332.50,1,94.401,
01/01/2000,01:28:20.39,19.40,-61.85,-992.10,17.50,-708.75,-297.50,1,94.406,
01/01/2000,01:28:20.40,19.28,-61.98,-992.10,148.75,-656.25,-315.0,1,94.412,
01/01/2000,01:28:20.41,19.40,-61.98,-992.10,210.0,-752.50,-350.0,1,94.417,
01/01/2000,01:28:20.43,19.15,-61.73,-992.10,35.0,-761.25,-227.50,1,94.330,
01/01/2000,01:28:20.44,19.15,-61.73,-992.10,183.75,-700.0,-455.0,1,94.336,
01/01/2000,01:28:20.45,19.03,-61.85,-992.23,227.50,-612.50,-306.25,1,94.341,
01/01/2000,01:28:20.46,19.15,-61.85,-992.23,157.50,-717.50,-393.75,1,94.347,
01/01/2000,01:28:20.47,19.03,-61.98,-992.23,61.25,-770.0,-358.75,1,94.352,
01/01/2000,01:28:20.48,19.03,-62.22,-992.23,236.25,-761.25,-315.0,1,94.358,
01/01/2000,01:28:20.49,19.15,-61.98,-992.23,166.25,-743.75,-323.75,1,94.363,
01/01/2000,01:28:20.50,19.03,-62.10,-992.23,87.50,-700.0,-385.0,1,94.369,
01/01/2000,01:28:20.51,19.28,-61.98,-992.35,-26.25,-726.25,-218.75,1,94.374,
01/01/2000,01:28:20.52,19.03,-61.98,-992.35,245.0,-691.25,-385.0,1,94.380,
01/01/2000,01:28:20.53,18.91,-61.98,-992.35,227.50,-717.50,-236.25,1,94.385,
01/01/2000,01:28:20.54,19.03,-62.10,-992.35,157.50,-726.25,-306.25,1,94.391,
01/01/2000,01:28:20.55,19.28,-61.98,-992.23,175.0,-726.25,-323.75,1,94.396,
01/01/2000,01:28:20.56,19.15,-61.85,-992.35,175.0,-761.25,-350.0,1,94.402,
01/01/2000,01:28:20.57,19.03,-61.85,-992.35,140.0,-708.75,-315.0,1,94.407,
01/01/2000,01:28:20.58,19.03,-61.98,-992.47,166.25,-726.25,-358.75,1,94.412,
01/01/2000,01:28:20.59,19.03,-61.73,-992.35,52.50,-735.0,-385.0,1,94.418,
01/01/2000,01:28:20.60,19.03,-61.73,-992.35,210.0,-743.75,-210.0,1,94.423,
01/01/2000,01:28:20.61,19.03,-61.85,-992.35,210.0,-656.25,-411.25,1,94.428,
01/01/2000,01:28:20.62,18.91,-61.73,-992.10,227.50,-770.0,-332.50,1,94.434,
01/01/2000,01:28:20.64,18.91,-61.73,-992.35,52.50,-665.0,-358.75,1,94.349,
01/01/2000,01:28:20.65,18.91,-61.73,-992.35,131.25,-612.50,-288.75,1,94.354,
01/01/2000,01:28:20.66,19.03,-61.73,-992.47,236.25,-708.75,-306.25,1,94.359,
01/01/2000,01:28:20.67,18.91,-61.73,-992.35,192.50,-761.25,-341.25,1,94.365,
01/01/2000,01:28:20.68,18.79,-61.73,-992.10,245.0,-691.25,-350.0,1,94.370,
01/01/2000,01:28:20.69,18.79,-61.73,-992.23,236.25,-840.0,-297.50,1,94.376,
01/01/2000,01:28:20.70,19.15,-61.98,-992.35,166.25,-778.75,-288.75,1,94.381,
01/01/2000,01:28:20.71,19.15,-61.73,-992.35,166.25,-726.25,-297.50,1,94.386,
01/01/2000,01:28:20.72,19.15,-61.98,-992.10,157.50,-656.25,-402.50,1,94.392,
01/01/2000,01:28:20.73,19.03,-61.98,-992.10,148.75,-735.0,-350.0,1,94.397,
01/01/2000,01:28:20.74,19.03,-62.22,-992.10,210.0,-665.0,-315.0,1,94.402,
01/01/2000,01:28:20.75,19.15,-62.34,-992.10,157.50,-665.0,-463.75,1,94.408,
01/01/2000,01:28:20.76,19.15,-61.98,-992.10,131.25,-665.0,-306.25,1,94.413,
01/01/2000,01:28:20.77,19.03,-61.85,-992.10,306.25,-700.0,-280.0,1,94.418,
01/01/2000,01:28:20.78,19.15,-61.73,-992.10,236.25,-603.75,-393.75,1,94.334,
01/01/2000,01:28:20.79,19.28,-61.73,-992.10,183.75,-656.25,-332.50,1,94.340,
01/01/2000,01:28:20.80,19.28,-61.98,-992.10,122.50,-647.50,-280.0,1,94.345,
01/01/2000,01:28:20.81,19.15,-61.98,-992.35,105.0,-726.25,-306.25,1,94.350,
01/01/2000,01:28:20.82,19.03,-61.85,-992.35,148.75,-630.0,-297.50,1,94.356,
01/01/2000,01:28:20.83,19.03,-61.85,-992.35,236.25,-708.75,-350.0,1,94.361,
01/01/2000,01:28:20.85,18.91,-61.73,-992.35,148.75,-691.25,-280.0,1,94.366,
01/01/2000,01:28:20.86,18.91,-61.73,-992.10,87.50,-726.25,-376.25,1,94.371,
01/01/2000,01:28:20.87,19.03,-61.85,-992.10,131.25,-700.0,-350.0,1,94.377,
01/01/2000,01:28:20.88,19.03,-62.10,-992.10,105.0,-595.0,-358.75,1,94.382,
01/01/2000,01:28:20.89,19.03,-61.98,-992.10,105.0,-595.0,-411.25,1,94.387,
01/01/2000,01:28:20.90,19.03,-61.98,-992.10,166.25,-603.75,-306.25,1,94.393,
01/01/2000,01:28:20.91,19.03,-61.85,-992.10,61.25,-638.75,-288.75,1,94.398,
01/01/2000,01:28:20.92,19.15,-61.85,-992.23,157.50,-761.25,-367.50,1,94.403,
01/01/2000,01:28:20.94,19.15,-61.85,-992.10,131.25,-595.0,-341.25,1,94.320,
01/01/2000,01:28:20.95,19.03,-61.98,-992.23,315.0,-717.50,-288.75,1,94.326,
01/01/2000,01:28:20.96,19.03,-61.98,-992.10,236.25,-735.0,-306.25,1,94.331,
01/01/2000,01:28:20.97,19.03,-61.98,-991.98,96.25,-647.50,-402.50,1,94.336,
01/01/2000,01:28:20.98,19.03,-61.85,-992.23,61.25,-691.25,-288.75,1,94.341,
01/01/2000,01:28:20.99,19.03,-61.98,-992.23,183.75,-752.50,-367.50,1,94.347,
01/01/2000,01:28:21.00,18.91,-61.85,-992.10,166.25,-656.25,-315.0,1,94.352,
01/01/2000,01:28:21.01,19.03,-61.98,-992.10,105.0,-647.50,-367.50,1,94.357,
01/01/2000,01:28:21.02,19.03,-61.98,-992.10,253.75,-630.0,-385.0,1,94.362,
01/01/2000,01:28:21.03,19.03,-61.98,-992.23,175.0,-787.50,-262.50,1,94.368,
01/01/2000,01:28:21.04,19.03,-61.98,-992.35,227.50,-752.50,-297.50,1,94.373,
01/01/2000,01:28:21.05,19.03,-62.10,-992.10,192.50,-743.75,-402.50,1,94.378,
01/01/2000,01:28:21.06,19.03,-61.98,-992.23,175.0,-630.0,-350.0,1,94.383,
01/01/2000,01:28:21.07,19.03,-61.98,-992.10,271.25,-577.50,-350.0,1,94.388,
01/01/2000,01:28:21.08,19.15,-61.73,-992.10,157.50,-708.75,-411.25,1,94.393,
01/01/2000,01:28:21.09,19.28,-61.73,-992.35,78.75,-796.25,-218.75,1,94.399,
01/01/2000,01:28:21.10,19.28,-61.73,-992.23,201.25,-691.25,-280.0,1,94.404,
01/01/2000,01:28:21.11,19.15,-62.10,-992.10,218.75,-735.0,-332.50,1,94.409,
01/01/2000,01:28:21.12,19.28,-61.85,-992.10,157.50,-673.75,-332.50,1,94.414,
01/01/2000,01:28:21.13,19.28,-61.73,-992.23,148.75,-682.50,-323.75,1,94.333,
01/01/2000,01:28:21.14,19.28,-61.98,-992.10,245.0,-787.50,-332.50,1,94.338,
01/01/2000,01:28:21.15,19.28,-61.85,-992.10,148.75,-743.75,-315.0,1,94.343,
01/01/2000,01:28:21.16,19.03,-62.34,-992.10,131.25,-691.25,-385.0,1,94.348,
01/01/2000,01:28:21.17,18.91,-62.22,-992.10,227.50,-708.75,-288.75,1,94.353,
01/01/2000,01:28:21.18,19.03,-61.98,-992.23,26.25,-673.75,-306.25,1,94.359,
01/01/2000,01:28:21.20,19.28,-61.98,-992.23,227.50,-752.50,-393.75,1,94.364,
01/01/2000,01:28:21.21,19.15,-61.98,-992.23,43.75,-577.50,-271.25,1,94.369,
01/01/2000,01:28:21.22,19.03,-62.10,-992.35,131.25,-682.50,-358.75,1,94.374,
01/01/2000,01:28:21.23,19.03,-62.10,-992.35,201.25,-717.50,-315.0,1,94.379,
01/01/2000,01:28:21.24,19.28,-61.98,-992.35,140.0,-603.75,-341.25,1,94.384,
01/01/2000,01:28:21.25,19.28,-61.98,-992.35,210.0,-621.25,-315.0,1,94.389,
01/01/2000,01:28:21.26,19.15,-61.98,-992.35,105.0,-682.50,-297.50,1,94.394,
01/01/2000,01:28:21.27,19.15,-62.22,-992.10,280.0,-735.0,-323.75,1,94.399,
01/01/2000,01:28:21.28,19.28,-62.22,-992.23,245.0,-647.50,-306.25,1,94.404,
01/01/2000,01:28:21.29,19.28,-62.10,-992.23,218.75,-700.0,-358.75,1,94.409,
01/01/2000,01:28:21.30,19.15,-62.10,-991.98,157.50,-735.0,-367.50,1,94.414,
01/01/2000,01:28:21.31,19.03,-61.85,-991.98,253.75,-665.0,-358.75,1,94.419,
01/01/2000,01:28:21.32,19.03,-61.73,-991.86,183.75,-752.50,-306.25,1,94.424,
01/01/2000,01:28:21.33,19.40,-61.73,-991.98,218.75,-708.75,-376.25,1,94.429,
01/01/2000,01:28:21.35,19.28,-61.98,-992.10,218.75,-717.50,-227.50,1,94.350,
01/01/2000,01:28:21.35,19.03,-61.98,-991.98,131.25,-682.50,-402.50,1,94.355,
01/01/2000,01:28:21.37,18.91,-62.10,-991.86,35.0,-708.75,-315.0,1,94.360,
01/01/2000,01:28:21.37,19.03,-62.10,-991.98,148.75,-700.0,-341.25,1,94.365,
01/01/2000,01:28:21.39,19.03,-61.98,-992.23,227.50,-595.0,-297.50,1,94.370,
01/01/2000,01:28:21.40,19.03,-62.10,-992.47,122.50,-656.25,-288.75,1,94.375,
01/01/2000,01:28:21.41,18.91,-62.10,-992.47,105.0,-752.50,-420.0,1,94.380,
01/01/2000,01:28:21.42,19.03,-62.34,-992.23,175.0,-682.50,-245.0,1,94.385,
01/01/2000,01:28:21.43,19.03,-62.22,-992.23,43.75,-708.75,-323.75,1,94.390,
01/01/2000,01:28:21.44,19.15,-62.10,-992.10,183.75,-778.75,-376.25,1,94.311,
01/01/2000,01:28:21.45,19.15,-61.98,-992.23,122.50,-770.0,-341.25,1,94.316,
01/01/2000,01:28:21.46,19.03,-61.98,-992.35,306.25,-691.25,-393.75,1,94.321,
01/01/2000,01:28:21.47,19.03,-61.98,-992.23,52.50,-656.25,-428.75,1,94.326,
01/01/2000,01:28:21.49,19.03,-61.85,-992.23,175.0,-682.50,-341.25,1,94.331,
01/01/2000,01:28:21.50,19.15,-62.10,-992.23,437.50,-656.25,-358.75,1,94.336,
01/01/2000,01:28:21.51,19.15,-61.85,-992.35,8.75,-752.50,-262.50,1,94.341,
01/01/2000,01:28:21.52,19.28,-61.98,-992.35,105.0,-603.75,-402.50,1,94.346,
01/01/2000,01:28:21.53,19.15,-62.10,-992.35,201.25,-691.25,-315.0,1,94.351,
01/01/2000,01:28:21.54,19.03,-61.98,-992.23,105.0,-647.50,-376.25,1,94.356,
01/01/2000,01:28:21.55,19.03,-61.98,-992.35,61.25,-673.75,-148.75,1,94.361,
01/01/2000,01:28:21.56,19.15,-62.10,-992.35,166.25,-805.0,-341.25,1,94.366,
01/01/2000,01:28:21.57,19.03,-61.98,-992.35,61.25,-656.25,-306.25,1,94.371,
01/01/2000,01:28:21.58,19.03,-62.22,-992.23,201.25,-656.25,-385.0,1,94.376,
01/01/2000,01:28:21.59,19.03,-62.10,-992.23,0.0,-612.50,-253.75,1,94.381,
01/01/2000,01:28:21.60,19.03,-61.85,-992.10,87.50,-805.0,-376.25,1,94.386,
01/01/2000,01:28:21.61,19.15,-61.73,-992.10,192.50,-621.25,-297.50,1,94.391,
01/01/2000,01:28:21.62,19.03,-61.73,-992.23,157.50,-621.25,-271.25,1,94.396,
01/01/2000,01:28:21.63,19.03,-61.98,-992.35,253.75,-621.25,-367.50,1,94.401,
01/01/2000,01:28:21.64,18.91,-61.73,-992.47,140.0,-752.50,-367.50,1,94.323,
01/01/2000,01:28:21.65,19.03,-61.61,-992.35,183.75,-717.50,-306.25,1,94.328,
01/01/2000,01:28:21.66,19.28,-61.49,-992.35,218.75,-656.25,-367.50,1,94.333,
01/01/2000,01:28:21.67,19.15,-61.73,-992.23,245.0,-665.0,-245.0,1,94.338,
01/01/2000,01:28:21.68,18.91,-61.98,-992.10,253.75,-708.75,-306.25,1,94.343,
01/01/2000,01:28:21.70,18.79,-61.85,-992.10,122.50,-743.75,-402.50,1,94.348,
01/01/2000,01:28:21.71,19.03,-61.73,-992.23,236.25,-708.75,-315.0,1,94.353,
01/01/2000,01:28:21.72,19.15,-61.73,-992.10,105.0,-831.25,-280.0,1,94.358,
01/01/2000,01:28:21.73,18.91,-61.73,-992.10,236.25,-726.25,-306.25,1,94.363,
01/01/2000,01:28:21.74,18.91,-61.98,-992.10,148.75,-805.0,-306.25,1,94.367,
01/01/2000,01:28:21.75,18.79,-61.85,-992.35,131.25,-691.25,-245.0,1,94.372,
01/01/2000,01:28:21.76,18.91,-61.98,-992.47,148.75,-787.50,-411.25,1,94.377,
01/01/2000,01:28:21.77,19.28,-61.98,-992.23,113.75,-708.75,-332.50,1,94.382,
01/01/2000,01:28:21.78,19.15,-61.98,-992.10,175.0,-638.75,-358.75,1,94.387,
01/01/2000,01:28:21.79,19.15,-61.98,-992.10,166.25,-752.50,-253.75,1,94.392,
01/01/2000,01:28:21.80,19.15,-61.98,-992.10,166.25,-717.50,-332.50,1,94.397,
01/01/2000,01:28:21.81,19.28,-61.98,-992.47,70.0,-708.75,-402.50,1,94.401,
01/01/2000,01:28:21.82,19.28,-61.85,-992.35,201.25,-630.0,-306.25,1,94.406,
01/01/2000,01:28:21.83,19.03,-61.98,-992.23,210.0,-726.25,-297.50,1,94.330,
01/01/2000,01:28:21.84,19.03,-61.98,-992.10,113.75,-673.75,-332.50,1,94.335,
01/01/2000,01:28:21.85,19.03,-61.98,-992.23,113.75,-673.75,-262.50,1,94.340,
01/01/2000,01:28:21.86,19.03,-61.85,-992.35,148.75,-673.75,-393.75,1,94.344,
01/01/2000,01:28:21.87,19.03,-61.98,-992.35,148.75,-656.25,-315.0,1,94.349,
01/01/2000,01:28:21.88,18.91,-62.10,-992.23,280.0,-787.50,-341.25,1,94.354,
01/01/2000,01:28:21.89,18.91,-62.22,-992.23,78.75,-595.0,-358.75,1,94.359,
01/01/2000,01:28:21.91,19.03,-62.10,-992.35,43.75,-778.75,-227.50,1,94.364,
01/01/2000,01:28:21.92,19.03,-62.22,-992.59,122.50,-700.0,-341.25,1,94.369,
01/01/2000,01:28:21.93,19.15,-62.22,-992.59,297.50,-770.0,-332.50,1,94.373,
01/01/2000,01:28:21.94,19.03,-62.10,-992.47,148.75,-752.50,-341.25,1,94.378,
01/01/2000,01:28:21.95,18.91,-62.22,-992.47,96.25,-735.0,-376.25,1,94.303,
01/01/2000,01:28:21.96,19.03,-62.22,-992.47,52.50,-673.75,-218.75,1,94.308,
01/01/2000,01:28:21.98,19.03,-62.34,-992.59,227.50,-673.75,-490.0,1,94.312,
01/01/2000,01:28:21.98,18.79,-62.22,-992.47,105.0,-752.50,-341.25,1,94.317,
01/01/2000,01:28:22.00,18.79,-62.22,-992.35,131.25,-665.0,-306.25,1,94.322,
01/01/2000,01:28:22.01,18.91,-61.98,-992.47,288.75,-673.75,-393.75,1,94.327,
01/01/2000,01:28:22.02,19.03,-61.98,-992.47,253.75,-735.0,-280.0,1,94.332,
01/01/2000,01:28:22.03,19.03,-62.10,-992.47,271.25,-682.50,-323.75,1,94.336,
01/01/2000,01:28:22.04,19.03,-62.22,-992.35,227.50,-717.50,-402.50,1,94.341,
01/01/2000,01:28:22.05,18.91,-62.22,-992.35,175.0,-647.50,-393.75,1,94.346,
01/01/2000,01:28:22.06,19.03,-61.98,-992.47,131.25,-726.25,-350.0,1,94.351,
01/01/2000,01:28:22.07,18.91,-61.85,-992.59,131.25,-682.50,-385.0,1,94.356,
01/01/2000,01:28:22.08,19.03,-61.98,-992.59,280.0,-603.75,-315.0,1,94.360,
01/01/2000,01:28:22.09,19.03,-62.10,-992.47,210.0,-673.75,-350.0,1,94.365,
01/01/2000,01:28:22.10,19.03,-61.98,-992.35,131.25,-682.50,-358.75,1,94.370,
01/01/2000,01:28:22.11,19.03,-62.10,-992.35,87.50,-778.75,-297.50,1,94.374,
01/01/2000,01:28:22.12,18.91,-61.98,-992.35,131.25,-630.0,-280.0,1,94.379,
01/01/2000,01:28:22.13,19.03,-61.98,-992.59,175.0,-673.75,-280.0,1,94.384,
01/01/2000,01:28:22.14,19.03,-61.85,-992.59,87.50,-717.50,-385.0,1,94.389,
01/01/2000,01:28:22.15,18.91,-61.98,-992.59,210.0,-796.25,-297.50,1,94.393,
01/01/2000,01:28:22.16,18.91,-62.22,-992.59,131.25,-770.0,-437.50,1,94.398,
01/01/2000,01:28:22.17,19.03,-62.10,-992.59,210.0,-778.75,-393.75,1,94.403,
01/01/2000,01:28:22.19,19.03,-62.10,-992.59,175.0,-770.0,-385.0,1,94.329,
01/01/2000,01:28:22.20,19.03,-61.85,-992.71,131.25,-743.75,-367.50,1,94.333,
01/01/2000,01:28:22.21,18.91,-61.85,-992.71,210.0,-673.75,-332.50,1,94.338,
01/01/2000,01:28:22.22,18.91,-61.85,-992.71,201.25,-700.0,-280.0,1,94.343,
01/01/2000,01:28:22.23,19.15,-62.10,-992.71,253.75,-752.50,-323.75,1,94.347,
01/01/2000,01:28:22.24,19.15,-61.98,-992.59,192.50,-735.0,-280.0,1,94.352,
01/01/2000,01:28:22.25,19.03,-62.10,-992.35,271.25,-726.25,-385.0,1,94.357,
01/01/2000,01:28:22.26,19.03,-62.10,-992.35,236.25,-708.75,-490.0,1,94.362,
01/01/2000,01:28:22.27,19.03,-61.98,-992.35,201.25,-743.75,-306.25,1,94.366,
01/01/2000,01:28:22.28,19.28,-61.98,-992.35,105.0,-647.50,-367.50,1,94.371,
01/01/2000,01:28:22.29,19.28,-61.98,-992.47,201.25,-700.0,-315.0,1,94.376,
01/01/2000,01:28:22.30,19.03,-62.22,-992.35,78.75,-770.0,-358.75,1,94.380,
01/01/2000,01:28:22.31,19.28,-62.46,-992.35,140.0,-735.0,-376.25,1,94.385,
01/01/2000,01:28:22.32,19.28,-62.22,-992.35,183.75,-656.25,-367.50,1,94.389,
01/01/2000,01:28:22.33,19.52,-61.98,-992.59,192.50,-743.75,-402.50,1,94.316,
01/01/2000,01:28:22.34,19.28,-61.98,-992.47,140.0,-630.0,-262.50,1,94.321,
01/01/2000,01:28:22.35,19.28,-61.98,-992.59,218.75,-691.25,-455.0,1,94.326,
01/01/2000,01:28:22.36,19.28,-62.10,-992.47,253.75,-717.50,-437.50,1,94.330,
01/01/2000,01:28:22.37,19.15,-62.10,-992.59,175.0,-708.75,-271.25,1,94.335,
01/01/2000,01:28:22.38,19.28,-62.22,-992.59,-61.25,-726.25,-210.0,1,94.340,
01/01/2000,01:28:22.40,19.15,-61.98,-992.35,201.25,-770.0,-297.50,1,94.344,
01/01/2000,01:28:22.41,19.15,-62.22,-992.35,192.50,-621.25,-350.0,1,94.349,
01/01/2000,01:28:22.42,19.15,-62.10,-992.47,140.0,-752.50,-271.25,1,94.354,
01/01/2000,01:28:22.43,19.15,-62.22,-992.47,271.25,-752.50,-367.50,1,94.358,
01/01/2000,01:28:22.44,19.15,-62.22,-992.47,271.25,-735.0,-271.25,1,94.363,
01/01/2000,01:28:22.45,19.03,-62.22,-992.35,218.75,-805.0,-245.0,1,94.367,
01/01/2000,01:28:22.46,19.03,-62.46,-992.35,253.75,-708.75,-306.25,1,94.295,
01/01/2000,01:28:22.48,19.03,-62.46,-992.35,218.75,-770.0,-332.50,1,94.300,
01/01/2000,01:28:22.49,19.03,-62.46,-992.35,96.25,-700.0,-306.25,1,94.304,
01/01/2000,01:28:22.50,19.03,-62.34,-992.35,52.50,-656.25,-253.75,1,94.309,
01/01/2000,01:28:22.51,19.03,-62.59,-992.35,105.0,-673.75,-358.75,1,94.314,
01/01/2000,01:28:22.52,18.91,-62.46,-992.35,166.25,-717.50,-280.0,1,94.318,
01/01/2000,01:28:22.53,18.91,-62.46,-992.35,131.25,-708.75,-297.50,1,94.323,
01/01/2000,01:28:22.54,18.91,-62.34,-992.47,105.0,-770.0,-437.50,1,94.327,
01/01/2000,01:28:22.55,18.91,-62.10,-992.59,218.75,-656.25,-323.75,1,94.332,
01/01/2000,01:28:22.56,18.91,-62.22,-992.59,288.75,-717.50,-332.50,1,94.337,
01/01/2000,01:28:22.57,18.79,-62.10,-992.35,131.25,-700.0,-323.75,1,94.341,
01/01/2000,01:28:22.58,18.79,-62.22,-992.35,96.25,-761.25,-280.0,1,94.346,
01/01/2000,01:28:22.59,18.79,-62.34,-992.47,192.50,-638.75,-332.50,1,94.350,
01/01/2000,01:28:22.60,18.91,-62.10,-992.59,87.50,-770.0,-393.75,1,94.355,
01/01/2000,01:28:22.61,18.79,-62.10,-992.71,253.75,-726.25,-341.25,1,94.283,
01/01/2000,01:28:22.62,19.03,-62.10,-992.59,201.25,-691.25,-376.25,1,94.288,
01/01/2000,01:28:22.63,19.15,-61.98,-992.59,113.75,-735.0,-306.25,1,94.293,
01/01/2000,01:28:22.64,19.28,-62.34,-992.47,0.0,-717.50,-385.0,1,94.297,
01/01/2000,01:28:22.65,19.15,-62.46,-992.47,236.25,-735.0,-271.25,1,94.302,
01/01/2000,01:28:22.66,19.15,-62.46,-992.47,175.0,-735.0,-253.75,1,94.306,
01/01/2000,01:28:22.67,19.03,-62.46,-992.71,183.75,-647.50,-472.50,1,94.311,
01/01/2000,01:28:22.69,19.15,-62.22,-992.71,245.0,-656.25,-385.0,1,94.315,
01/01/2000,01:28:22.70,19.15,-62.10,-992.71,43.75,-682.50,-385.0,1,94.320,
01/01/2000,01:28:22.71,19.15,-62.22,-992.71,61.25,-612.50,-262.50,1,94.325,
01/01/2000,01:28:22.72,19.15,-62.22,-992.96,17.50,-778.75,-385.0,1,94.329,
01/01/2000,01:28:22.73,19.15,-62.22,-992.96,297.50,-708.75,-341.25,1,94.334,
01/01/2000,01:28:22.74,19.03,-62.10,-992.84,271.25,-647.50,-437.50,1,94.338,
01/01/2000,01:28:22.75,19.15,-61.98,-992.71,140.0,-857.50,-271.25,1,94.343,
01/01/2000,01:28:22.76,19.15,-61.85,-992.71,35.0,-726.25,-315.0,1,94.347,
01/01/2000,01:28:22.77,19.15,-62.10,-992.71,140.0,-577.50,-306.25,1,94.352,
01/01/2000,01:28:22.78,19.03,-62.22,-992.84,122.50,-735.0,-280.0,1,94.356,
01/01/2000,01:28:22.79,19.03,-62.22,-992.84,61.25,-700.0,-393.75,1,94.361,
01/01/2000,01:28:22.80,19.03,-62.10,-992.84,166.25,-708.75,-358.75,1,94.365,
01/01/2000,01:28:22.81,18.91,-61.98,-992.59,140.0,-665.0,-288.75,1,94.370,
01/01/2000,01:28:22.82,19.15,-61.98,-992.71,227.50,-805.0,-306.25,1,94.299,
01/01/2000,01:28:22.83,19.03,-62.22,-992.84,131.25,-717.50,-306.25,1,94.304,
01/01/2000,01:28:22.84,19.28,-62.22,-992.84,87.50,-752.50,-288.75,1,94.308,
01/01/2000,01:28:22.85,19.28,-62.10,-992.96,201.25,-778.75,-323.75,1,94.313,
01/01/2000,01:28:22.87,19.15,-61.98,-992.84,78.75,-752.50,-332.50,1,94.317,
01/01/2000,01:28:22.87,19.03,-61.98,-992.84,315.0,-568.75,-262.50,1,94.322,
01/01/2000,01:28:22.89,19.15,-61.98,-992.84,192.50,-673.75,-323.75,1,94.326,
01/01/2000,01:28:22.90,19.15,-61.98,-992.84,113.75,-647.50,-437.50,1,94.331,
01/01/2000,01:28:22.91,19.28,-61.98,-992.71,113.75,-735.0,-332.50,1,94.335,
01/01/2000,01:28:22.92,19.15,-61.98,-992.59,227.50,-691.25,-358.75,1,94.340,
01/01/2000,01:28:22.93,19.03,-61.85,-992.71,87.50,-717.50,-306.25,1,94.344,
01/01/2000,01:28:22.94,19.03,-61.85,-992.84,70.0,-787.50,-376.25,1,94.349,
01/01/2000,01:28:22.95,19.03,-61.98,-993.08,192.50,-682.50,-280.0,1,94.353,
01/01/2000,01:28:22.96,19.03,-61.98,-993.08,148.75,-691.25,-437.50,1,94.357,
01/01/2000,01:28:22.98,19.03,-62.22,-992.84,253.75,-665.0,-358.75,1,94.288,
01/01/2000,01:28:22.99,19.15,-62.10,-992.96,105.0,-673.75,-385.0,1,94.292,
01/01/2000,01:28:23.00,19.28,-61.98,-993.08,210.0,-630.0,-253.75,1,94.297,
01/01/2000,01:28:23.01,19.28,-62.10,-993.08,262.50,-621.25,-332.50,1,94.301,
01/01/2000,01:28:23.02,19.03,-61.98,-992.96,78.75,-691.25,-376.25,1,94.306,
01/01/2000,01:28:23.03,19.03,-62.10,-992.84,262.50,-700.0,-315.0,1,94.310,
01/01/2000,01:28:23.04,19.03,-62.22,-992.84,218.75,-796.25,-437.50,1,94.315,
01/01/2000,01:28:23.05,19.03,-62.10,-992.84,288.75,-700.0,-306.25,1,94.319,
01/01/2000,01:28:23.06,19.03,-62.22,-992.71,166.25,-726.25,-411.25,1,94.323,
01/01/2000,01:28:23.07,19.03,-62.22,-992.71,175.0,-726.25,-420.0,1,94.328,
01/01/2000,01:28:23.08,19.03,-62.22,-992.71,245.0,-743.75,-481.25,1,94.332,
01/01/2000,01:28:23.09,19.15,-61.98,-992.71,17.50,-647.50,-323.75,1,94.337,
01/01/2000,01:28:23.10,19.15,-62.10,-992.59,131.25,-726.25,-385.0,1,94.341,
01/01/2000,01:28:23.11,19.15,-61.98,-992.47,35.0,-717.50,-332.50,1,94.345,
01/01/2000,01:28:23.12,19.15,-62.10,-992.59,218.75,-726.25,-420.0,1,94.350,
01/01/2000,01:28:23.13,19.28,-62.10,-992.59,157.50,-586.25,-253.75,1,94.281,
01/01/2000,01:28:23.14,19.28,-61.98,-992.59,157.50,-673.75,-245.0,1,94.286,
01/01/2000,01:28:23.15,19.28,-61.98,-992.71,78.75,-700.0,-131.25,1,94.290,
01/01/2000,01:28:23.16,19.15,-61.98,-992.71,175.0,-726.25,-455.0,1,94.295,
01/01/2000,01:28:23.17,19.28,-62.22,-992.47,245.0,-700.0,-358.75,1,94.299,
01/01/2000,01:28:23.19,19.28,-62.22,-992.47,201.25,-481.25,-280.0,1,94.303,
01/01/2000,01:28:23.20,19.03,-62.34,-992.35,297.50,-673.75,-350.0,1,94.308,
01/01/2000,01:28:23.21,19.03,-62.22,-992.23,105.0,-708.75,-385.0,1,94.312,
01/01/2000,01:28:23.22,19.03,-62.10,-992.35,166.25,-700.0,-262.50,1,94.316,
01/01/2000,01:28:23.23,19.03,-62.10,-992.35,-113.75,-665.0,-393.75,1,94.321,
01/01/2000,01:28:23.24,19.03,-62.22,-992.47,157.50,-743.75,-201.25,1,94.325,
01/01/2000,01:28:23.25,19.15,-62.22,-992.59,105.0,-787.50,-367.50,1,94.329,
01/01/2000,01:28:23.26,19.28,-62.22,-992.35,192.50,-752.50,-332.50,1,94.334,
01/01/2000,01:28:23.27,19.15,-62.22,-992.35,122.50,-647.50,-280.0,1,94.338,
01/01/2000,01:28:23.28,19.03,-62.22,-992.59,192.50,-726.25,-428.75,1,94.343,
01/01/2000,01:28:23.29,19.03,-62.34,-992.47,96.25,-568.75,-323.75,1,94.347,
01/01/2000,01:28:23.30,18.91,-62.34,-992.35,183.75,-603.75,-385.0,1,94.351,
01/01/2000,01:28:23.31,18.91,-62.22,-992.35,192.50,-787.50,-341.25,1,94.355,
01/01/2000,01:28:23.32,19.03,-62.22,-992.59,253.75,-735.0,-437.50,1,94.288,
01/01/2000,01:28:23.33,19.15,-62.22,-992.71,17.50,-682.50,-350.0,1,94.292,
01/01/2000,01:28:23.34,19.03,-62.22,-992.84,245.0,-621.25,-402.50,1,94.297,
01/01/2000,01:28:23.35,18.91,-62.34,-992.71,245.0,-612.50,-376.25,1,94.301,
01/01/2000,01:28:23.36,18.91,-62.10,-992.71,52.50,-568.75,-385.0,1,94.305,
01/01/2000,01:28:23.37,19.03,-62.10,-992.59,183.75,-630.0,-376.25,1,94.310,
01/01/2000,01:28:23.38,18.91,-62.10,-992.59,122.50,-630.0,-358.75,1,94.314,
01/01/2000,01:28:23.40,18.79,-61.98,-992.35,280.0,-691.25,-437.50,1,94.318,
01/01/2000,01:28:23.41,18.91,-61.98,-992.35,227.50,-735.0,-498.75,1,94.322,
01/01/2000,01:28:23.42,19.03,-61.98,-992.35,122.50,-603.75,-332.50,1,94.327,
01/01/2000,01:28:23.43,19.03,-61.85,-992.35,78.75,-726.25,-358.75,1,94.331,
01/01/2000,01:28:23.44,19.03,-61.85,-992.35,17.50,-673.75,-358.75,1,94.335,
01/01/2000,01:28:23.45,19.03,-61.73,-992.59,87.50,-673.75,-358.75,1,94.340,
01/01/2000,01:28:23.46,18.91,-61.98,-992.59,306.25,-673.75,-402.50,1,94.273,
01/01/2000,01:28:23.47,18.91,-61.85,-992.59,8.75,-708.75,-297.50,1,94.277,
01/01/2000,01:28:23.49,18.91,-62.10,-992.59,323.75,-752.50,-420.0,1,94.281,
01/01/2000,01:28:23.50,18.91,-61.98,-992.59,8.75,-796.25,-341.25,1,94.286,
01/01/2000,01:28:23.51,18.79,-61.98,-992.35,210.0,-577.50,-332.50,1,94.290,
01/01/2000,01:28:23.52,18.67,-61.98,-992.47,192.50,-647.50,-288.75,1,94.294,
01/01/2000,01:28:23.53,18.79,-61.85,-992.59,113.75,-656.25,-437.50,1,94.299,
01/01/2000,01:28:23.54,18.91,-61.85,-992.71,131.25,-700.0,-262.50,1,94.303,
01/01/2000,01:28:23.55,18.79,-61.98,-992.84,105.0,-691.25,-271.25,1,94.307,
01/01/2000,01:28:23.56,18.91,-61.85,-992.59,26.25,-682.50,-306.25,1,94.311,
01/01/2000,01:28:23.57,18.91,-61.98,-992.59,157.50,-813.75,-341.25,1,94.316,
01/01/2000,01:28:23.58,18.91,-61.85,-992.84,8.75,-761.25,-245.0,1,94.320,
01/01/2000,01:28:23.59,19.03,-62.10,-992.71,157.50,-656.25,-376.25,1,94.324,
01/01/2000,01:28:23.60,18.91,-62.22,-992.59,61.25,-700.0,-236.25,1,94.328,
01/01/2000,01:28:23.61,18.91,-62.22,-992.47,227.50,-647.50,-393.75,1,94.333,
01/01/2000,01:28:23.62,18.91,-62.10,-992.47,210.0,-805.0,-227.50,1,94.337,
01/01/2000,01:28:23.63,19.03,-62.10,-992.59,253.75,-708.75,-297.50,1,94.341,
01/01/2000,01:28:23.64,19.03,-62.10,-992.71,140.0,-813.75,-367.50,1,94.345,
01/01/2000,01:28:23.65,19.03,-61.98,-992.71,183.75,-647.50,-332.50,1,94.349,
01/01/2000,01:28:23.66,19.15,-61.98,-992.59,210.0,-647.50,-472.50,1,94.354,
01/01/2000,01:28:23.67,18.91,-61.98,-992.59,8.75,-743.75,-262.50,1,94.288,
01/01/2000,01:28:23.68,19.15,-61.98,-992.59,52.50,-761.25,-402.50,1,94.292,
01/01/2000,01:28:23.69,19.15,-62.10,-992.59,210.0,-726.25,-350.0,1,94.296,
01/01/2000,01:28:23.70,19.03,-62.22,-992.59,236.25,-621.25,-306.25,1,94.301,
01/01/2000,01:28:23.71,19.03,-61.85,-992.35,122.50,-770.0,-332.50,1,94.305,
01/01/2000,01:28:23.72,19.03,-61.98,-992.10,183.75,-551.25,-402.50,1,94.309,
01/01/2000,01:28:23.73,19.15,-61.73,-992.10,218.75,-796.25,-376.25,1,94.313,
01/01/2000,01:28:23.75,19.28,-61.85,-992.23,148.75,-743.75,-332.50,1,94.317,
01/01/2000,01:28:23.76,19.28,-61.85,-992.23,166.25,-656.25,-455.0,1,94.322,
01/01/2000,01:28:23.77,19.03,-61.85,-992.23,131.25,-708.75,-315.0,1,94.326,
01/01/2000,01:28:23.78,19.03,-61.85,-992.23,157.50,-682.50,-332.50,1,94.330,
01/01/2000,01:28:23.79,19.15,-61.73,-992.23,245.0,-735.0,-341.25,1,94.334,
01/01/2000,01:28:23.80,19.28,-61.73,-992.35,201.25,-682.50,-323.75,1,94.338,
01/01/2000,01:28:23.81,19.28,-61.61,-992.35,183.75,-665.0,-297.50,1,94.273,
01/01/2000,01:28:23.82,19.15,-61.73,-992.23,218.75,-761.25,-297.50,1,94.277,
01/01/2000,01:28:23.83,19.15,-61.73,-992.23,131.25,-726.25,-428.75,1,94.282,
01/01/2000,01:28:23.84,19.28,-61.73,-992.10,192.50,-665.0,-253.75,1,94.286,
01/01/2000,01:28:23.85,19.28,-61.73,-992.10,157.50,-577.50,-262.50,1,94.290,
01/01/2000,01:28:23.86,19.03,-61.85,-992.23,271.25,-761.25,-411.25,1,94.294,
01/01/2000,01:28:23.87,19.03,-61.73,-992.23,113.75,-735.0,-280.0,1,94.298,
01/01/2000,01:28:23.89,19.03,-61.85,-992.35,183.75,-708.75,-411.25,1,94.302,
01/01/2000,01:28:23.90,19.03,-61.73,-992.23,183.75,-726.25,-332.50,1,94.307,
01/01/2000,01:28:23.91,19.03,-61.98,-992.23,227.50,-761.25,-323.75,1,94.311,
01/01/2000,01:28:23.92,19.03,-61.85,-992.23,105.0,-717.50,-358.75,1,94.315,
01/01/2000,01:28:23.93,19.03,-61.98,-992.35,201.25,-595.0,-323.75,1,94.319,
01/01/2000,01:28:23.94,19.28,-61.73,-992.23,122.50,-673.75,-253.75,1,94.323,
01/01/2000,01:28:23.95,19.03,-61.61,-992.10,227.50,-752.50,-297.50,1,94.327,
01/01/2000,01:28:23.96,19.03,-61.61,-991.98,78.75,-700.0,-367.50,1,94.263,
01/01/2000,01:28:23.97,19.03,-61.85,-991.86,271.25,-682.50,-358.75,1,94.267,
01/01/2000,01:28:23.98,19.03,-61.73,-991.98,148.75,-735.0,-332.50,1,94.271,
01/01/2000,01:28:24.00,19.28,-61.98,-992.10,122.50,-638.75,-350.0,1,94.275,
01/01/2000,01:28:24.01,19.28,-61.85,-991.98,183.75,-656.25,-332.50,1,94.280,
01/01/2000,01:28:24.02,19.15,-61.73,-992.10,227.50,-656.25,-323.75,1,94.284,
01/01/2000,01:28:24.03,19.15,-61.61,-992.10,96.25,-726.25,-323.75,1,94.220,
01/01/2000,01:28:24.04,19.03,-61.73,-992.23,131.25,-787.50,-402.50,1,94.224,
01/01/2000,01:28:24.05,19.15,-61.73,-992.10,157.50,-726.25,-455.0,1,94.228,
01/01/2000,01:28:24.06,19.03,-61.61,-992.10,78.75,-638.75,-376.25,1,94.232,
01/01/2000,01:28:24.07,19.15,-61.61,-992.10,201.25,-700.0,-367.50,1,94.236,
01/01/2000,01:28:24.08,19.03,-61.61,-992.23,35.0,-656.25,-376.25,1,94.240,
01/01/2000,01:28:24.09,18.91,-61.73,-992.35,61.25,-691.25,-376.25,1,94.245,
01/01/2000,01:28:24.10,18.91,-61.73,-992.35,-8.75,-726.25,-402.50,1,94.249,
01/01/2000,01:28:24.11,19.03,-61.73,-992.23,341.25,-831.25,-297.50,1,94.253,
01/01/2000,01:28:24.12,19.03,-61.73,-992.23,201.25,-638.75,-306.25,1,94.257,
01/01/2000,01:28:24.13,19.03,-61.73,-992.23,297.50,-691.25,-393.75,1,94.261,
01/01/2000,01:28:24.14,18.79,-61.73,-992.35,87.50,-691.25,-297.50,1,94.265,
01/01/2000,01:28:24.15,18.79,-61.73,-992.47,70.0,-665.0,-411.25,1,94.269,
01/01/2000,01:28:24.17,18.79,-61.61,-992.35,96.25,-673.75,-332.50,1,94.273,
01/01/2000,01:28:24.18,18.79,-61.49,-992.10,-17.50,-595.0,-288.75,1,94.278,
01/01/2000,01:28:24.19,18.79,-61.73,-992.10,148.75,-638.75,-350.0,1,94.282,
01/01/2000,01:28:24.20,19.03,-61.73,-992.23,183.75,-647.50,-446.25,1,94.286,
01/01/2000,01:28:24.21,19.03,-61.73,-992.23,52.50,-735.0,-210.0,1,94.290,
01/01/2000,01:28:24.22,19.03,-61.73,-992.23,297.50,-708.75,-411.25,1,94.294,
01/01/2000,01:28:24.23,19.03,-61.61,-992.10,183.75,-691.25,-288.75,1,94.298,
01/01/2000,01:28:24.24,19.15,-61.61,-992.10,35.0,-586.25,-411.25,1,94.235,
01/01/2000,01:28:24.25,19.28,-61.73,-992.35,148.75,-691.25,-358.75,1,94.239,
01/01/2000,01:28:24.26,19.28,-61.73,-992.59,288.75,-717.50,-271.25,1,94.243,
01/01/2000,01:28:24.27,19.28,-61.85,-992.47,166.25,-796.25,-420.0,1,94.247,
01/01/2000,01:28:24.28,19.03,-61.73,-992.35,175.0,-761.25,-376.25,1,94.251,
01/01/2000,01:28:24.29,19.28,-61.73,-992.35,105.0,-778.75,-376.25,1,94.255,
01/01/2000,01:28:24.30,19.28,-61.49,-992.35,253.75,-735.0,-271.25,1,94.259,
01/01/2000,01:28:24.32,19.15,-61.61,-992.59,201.25,-735.0,-490.0,1,94.263,
01/01/2000,01:28:24.33,19.03,-61.73,-992.47,157.50,-708.75,-210.0,1,94.268,
01/01/2000,01:28:24.34,19.03,-61.73,-992.35,70.0,-647.50,-411.25,1,94.272,
01/01/2000,01:28:24.35,19.03,-61.73,-992.10,131.25,-682.50,-385.0,1,94.276,
01/01/2000,01:28:24.36,19.03,-61.73,-992.10,122.50,-630.0,-376.25,1,94.280,
01/01/2000,01:28:24.37,19.03,-61.73,-992.10,166.25,-673.75,-306.25,1,94.284,
01/01/2000,01:28:24.38,19.03,-61.73,-992.23,105.0,-735.0,-253.75,1,94.288,
01/01/2000,01:28:24.39,18.91,-61.73,-992.35,-17.50,-673.75,-411.25,1,94.292,
01/01/2000,01:28:24.40,18.91,-61.85,-992.35,192.50,-735.0,-306.25,1,94.296,
01/01/2000,01:28:24.41,18.91,-61.98,-992.10,271.25,-761.25,-367.50,1,94.300,
01/01/2000,01:28:24.42,19.03,-61.73,-992.10,96.25,-568.75,-280.0,1,94.304,
01/01/2000,01:28:24.43,19.03,-61.98,-992.10,131.25,-700.0,-297.50,1,94.308,
01/01/2000,01:28:24.44,19.03,-61.85,-992.10,113.75,-726.25,-367.50,1,94.312,
01/01/2000,01:28:24.45,19.03,-61.85,-992.10,105.0,-647.50,-446.25,1,94.250,
01/01/2000,01:28:24.46,19.15,-61.98,-992.23,166.25,-708.75,-253.75,1,94.254,
01/01/2000,01:28:24.48,19.15,-61.98,-992.35,227.50,-638.75,-271.25,1,94.258,
01/01/2000,01:28:24.48,19.28,-61.98,-992.35,113.75,-656.25,-201.25,1,94.262,
01/01/2000,01:28:24.50,19.28,-62.10,-992.35,157.50,-752.50,-455.0,1,94.266,
01/01/2000,01:28:24.51,19.28,-62.10,-992.35,87.50,-673.75,-420.0,1,94.270,
01/01/2000,01:28:24.52,19.28,-61.98,-992.35,166.25,-787.50,-402.50,1,94.274,
01/01/2000,01:28:24.53,19.40,-61.85,-992.35,-8.75,-708.75,-306.25,1,94.278,
01/01/2000,01:28:24.54,19.15,-61.98,-992.35,218.75,-752.50,-376.25,1,94.282,
01/01/2000,01:28:24.55,19.03,-61.98,-992.23,140.0,-612.50,-350.0,1,94.286,
01/01/2000,01:28:24.56,19.03,-61.73,-992.35,87.50,-595.0,-350.0,1,94.290,
01/01/2000,01:28:24.57,19.15,-61.98,-992.35,218.75,-708.75,-297.50,1,94.228,
01/01/2000,01:28:24.58,19.15,-61.73,-992.47,122.50,-700.0,-271.25,1,94.298,
01/01/2000,01:28:24.59,19.03,-61.85,-992.23,183.75,-682.50,-315.0,1,94.236,
01/01/2000,01:28:24.60,18.91,-61.73,-992.10,175.0,-717.50,-350.0,1,94.240,
01/01/2000,01:28:24.61,19.03,-61.73,-992.10,105.0,-813.75,-297.50,1,94.244,
01/01/2000,01:28:24.62,19.03,-61.61,-992.23,78.75,-700.0,-411.25,1,94.248,
01/01/2000,01:28:24.63,18.91,-61.49,-992.35,113.75,-638.75,-280.0,1,94.252,
01/01/2000,01:28:24.64,19.03,-61.61,-992.10,341.25,-700.0,-420.0,1,94.256,
01/01/2000,01:28:24.65,19.28,-61.73,-991.86,210.0,-708.75,-288.75,1,94.260,
01/01/2000,01:28:24.67,19.52,-61.85,-991.74,140.0,-717.50,-271.25,1,94.264,
01/01/2000,01:28:24.67,19.15,-61.98,-991.98,140.0,-778.75,-481.25,1,94.268,
01/01/2000,01:28:24.69,18.91,-61.85,-992.10,210.0,-612.50,-393.75,1,94.272,
01/01/2000,01:28:24.70,19.03,-61.73,-992.23,157.50,-682.50,-385.0,1,94.276,
01/01/2000,01:28:24.71,19.28,-61.49,-991.98,218.75,-673.75,-262.50,1,94.280,
01/01/2000,01:28:24.72,18.91,-61.49,-991.74,105.0,-691.25,-341.25,1,94.284,
01/01/2000,01:28:24.73,19.03,-61.98,-991.74,96.25,-595.0,-297.50,1,94.288,
01/01/2000,01:28:24.74,19.03,-61.85,-991.98,183.75,-822.50,-420.0,1,94.292,
01/01/2000,01:28:24.75,19.03,-61.73,-992.10,192.50,-665.0,-420.0,1,94.296,
01/01/2000,01:28:24.76,18.91,-61.49,-991.98,183.75,-787.50,-280.0,1,94.299,
01/01/2000,01:28:24.77,18.91,-61.24,-991.86,157.50,-691.25,-367.50,1,94.303,
01/01/2000,01:28:24.78,18.91,-61.49,-991.74,148.75,-560.0,-192.50,1,94.307,
01/01/2000,01:28:24.79,19.03,-61.85,-991.86,131.25,-647.50,-350.0,1,94.311,
01/01/2000,01:28:24.80,19.03,-61.98,-992.10,131.25,-717.50,-498.75,1,94.315,
01/01/2000,01:28:24.81,19.03,-61.98,-991.98,140.0,-735.0,-323.75,1,94.319,
01/01/2000,01:28:24.82,18.79,-61.61,-991.86,35.0,-787.50,-253.75,1,94.323,
01/01/2000,01:28:24.83,18.67,-61.49,-991.86,-35.0,-673.75,-236.25,1,94.327,
01/01/2000,01:28:24.84,18.79,-61.49,-992.10,227.50,-603.75,-280.0,1,94.331,
01/01/2000,01:28:24.85,18.79,-61.85,-992.10,175.0,-682.50,-341.25,1,94.334,
01/01/2000,01:28:24.86,18.79,-61.85,-992.10,183.75,-700.0,-385.0,1,94.338,
01/01/2000,01:28:24.87,18.79,-61.98,-991.74,218.75,-665.0,-315.0,1,94.278,
01/01/2000,01:28:24.88,18.79,-61.61,-991.74,113.75,-752.50,-437.50,1,94.282,
01/01/2000,01:28:24.90,18.79,-61.61,-991.98,166.25,-770.0,-306.25,1,94.286,
01/01/2000,01:28:24.90,18.79,-61.49,-992.23,245.0,-603.75,-271.25,1,94.290,
01/01/2000,01:28:24.92,18.67,-61.61,-992.10,166.25,-682.50,-376.25,1,94.293,
01/01/2000,01:28:24.93,18.79,-61.49,-992.10,175.0,-717.50,-341.25,1,94.297,
01/01/2000,01:28:24.94,18.79,-61.73,-991.86,288.75,-708.75,-385.0,1,94.301,
01/01/2000,01:28:24.95,18.91,-61.73,-991.86,236.25,-848.75,-306.25,1,94.305,
01/01/2000,01:28:24.96,18.91,-61.61,-991.98,148.75,-752.50,-306.25,1,94.309,
01/01/2000,01:28:24.97,18.91,-61.61,-991.86,96.25,-673.75,-315.0,1,94.313,
01/01/2000,01:28:24.98,18.91,-61.73,-991.98,105.0,-638.75,-306.25,1,94.317,
01/01/2000,01:28:24.99,19.03,-61.73,-991.74,96.25,-735.0,-271.25,1,94.320,
01/01/2000,01:28:25.00,19.03,-61.85,-991.62,271.25,-656.25,-358.75,1,94.324,
01/01/2000,01:28:25.02,19.03,-61.98,-991.74,43.75,-673.75,-367.50,1,94.265,
01/01/2000,01:28:25.03,19.03,-61.73,-992.10,245.0,-691.25,-437.50,1,94.268,
01/01/2000,01:28:25.04,19.03,-61.73,-991.98,175.0,-726.25,-341.25,1,94.272,
01/01/2000,01:28:25.05,19.03,-61.61,-991.86,8.75,-673.75,-315.0,1,94.276,
01/01/2000,01:28:25.06,19.28,-61.73,-991.01,262.50,-586.25,-402.50,1,94.280,
01/01/2000,01:28:25.07,20.98,-61.61,-989.54,122.50,-656.25,-603.75,1,94.284,
01/01/2000,01:28:25.08,21.84,-61.24,-988.69,420.0,-770.0,-455.0,1,94.288,
01/01/2000,01:28:25.09,23.42,-61.24,-988.32,140.0,-752.50,-253.75,1,94.291,
01/01/2000,01:28:25.10,24.64,-62.22,-988.44,306.25,-673.75,-297.50,1,94.295,
01/01/2000,01:28:25.11,24.40,-61.73,-988.32,26.25,-752.50,-411.25,1,94.299,
01/01/2000,01:28:25.12,23.79,-61.85,-987.47,245.0,-796.25,-236.25,1,94.303,
01/01/2000,01:28:25.13,22.94,-61.24,-986.49,218.75,-743.75,-245.0,1,94.307,
01/01/2000,01:28:25.14,22.08,-60.76,-985.76,113.75,-665.0,-192.50,1,94.311,
01/01/2000,01:28:25.15,21.72,-61.0,-985.88,297.50,-717.50,-236.25,1,94.314,
01/01/2000,01:28:25.16,22.08,-61.37,-986.49,87.50,-603.75,-560.0,1,94.318,
01/01/2000,01:28:25.17,23.30,-61.49,-986.98,96.25,-603.75,-490.0,1,94.322,
01/01/2000,01:28:25.18,25.62,-61.85,-986.00,332.50,-656.25,-673.75,1,94.326,
01/01/2000,01:28:25.19,27.08,-61.24,-984.30,78.75,-656.25,-603.75,1,94.330,
01/01/2000,01:28:25.20,28.06,-61.24,-982.47,131.25,-787.50,-446.25,1,94.270,
01/01/2000,01:28:25.21,28.91,-61.49,-980.51,122.50,-770.0,-271.25,1,94.337,
01/01/2000,01:28:25.23,28.43,-61.73,-979.66,105.0,-778.75,-131.25,1,94.278,
01/01/2000,01:28:25.24,27.69,-62.22,-981.86,236.25,-805.0,-175.0,1,94.282,
01/01/2000,01:28:25.25,25.99,-62.10,-984.54,201.25,-673.75,-341.25,1,94.286,
01/01/2000,01:28:25.26,24.64,-61.49,-986.98,78.75,-778.75,-402.50,1,94.290,
01/01/2000,01:28:25.27,23.79,-61.24,-988.20,183.75,-673.75,-236.25,1,94.293,
01/01/2000,01:28:25.28,23.42,-60.88,-988.20,0.0,-612.50,-253.75,1,94.297,
01/01/2000,01:28:25.29,23.67,-61.37,-986.74,227.50,-630.0,-253.75,1,94.301,
01/01/2000,01:28:25.30,24.16,-61.85,-985.52,113.75,-717.50,-428.75,1,94.305,
01/01/2000,01:28:25.31,24.28,-62.34,-985.64,148.75,-761.25,-481.25,1,94.308,
01/01/2000,01:28:25.32,24.40,-62.10,-986.61,26.25,-743.75,-586.25,1,94.312,
01/01/2000,01:28:25.33,24.16,-61.61,-987.71,148.75,-735.0,-341.25,1,94.316,
01/01/2000,01:28:25.34,23.55,-60.76,-989.30,140.0,-665.0,-192.50,1,94.320,
01/01/2000,01:28:25.35,22.20,-60.88,-989.66,157.50,-577.50,-148.75,1,94.323,
01/01/2000,01:28:25.36,20.98,-61.37,-989.79,113.75,-621.25,-262.50,1,94.265,
01/01/2000,01:28:25.37,20.25,-61.73,-989.66,148.75,-603.75,-323.75,1,94.269,
01/01/2000,01:28:25.38,20.01,-61.98,-989.54,96.25,-700.0,-262.50,1,94.273,
01/01/2000,01:28:25.39,20.25,-61.98,-989.91,218.75,-752.50,-218.75,1,94.276,
01/01/2000,01:28:25.40,20.50,-61.49,-990.64,52.50,-717.50,-271.25,1,94.280,
01/01/2000,01:28:25.41,20.50,-61.49,-991.01,236.25,-708.75,-315.0,1,94.284,
01/01/2000,01:28:25.42,20.50,-61.37,-990.88,-26.25,-682.50,-437.50,1,94.288,
01/01/2000,01:28:25.44,20.50,-61.49,-990.15,26.25,-743.75,-148.75,1,94.291,
01/01/2000,01:28:25.45,20.50,-61.98,-989.91,148.75,-647.50,-210.0,1,94.295,
01/01/2000,01:28:25.46,19.89,-61.98,-989.91,43.75,-726.25,-245.0,1,94.299,
01/01/2000,01:28:25.47,19.03,-61.98,-990.27,280.0,-883.75,-358.75,1,94.303,
01/01/2000,01:28:25.48,18.54,-61.73,-990.88,52.50,-708.75,-420.0,1,94.306,
01/01/2000,01:28:25.49,17.81,-61.49,-991.25,192.50,-603.75,-280.0,1,94.310,
01/01/2000,01:28:25.50,17.45,-61.24,-991.01,201.25,-752.50,-288.75,1,94.314,
01/01/2000,01:28:25.51,17.57,-61.49,-990.76,148.75,-726.25,-472.50,1,94.256,
01/01/2000,01:28:25.53,18.67,-62.22,-990.88,157.50,-700.0,-463.75,1,94.260,
01/01/2000,01:28:25.54,19.40,-61.98,-991.37,52.50,-778.75,-498.75,1,94.263,
01/01/2000,01:28:25.55,20.01,-62.10,-992.10,87.50,-726.25,-332.50,1,94.267,
01/01/2000,01:28:25.56,20.62,-61.61,-992.59,87.50,-691.25,-358.75,1,94.271,
01/01/2000,01:28:25.57,20.62,-61.37,-992.59,131.25,-682.50,-157.50,1,94.275,
01/01/2000,01:28:25.58,20.37,-61.49,-992.35,113.75,-700.0,-131.25,1,94.278,
01/01/2000,01:28:25.59,19.89,-61.73,-991.49,70.0,-735.0,-227.50,1,94.282,
01/01/2000,01:28:25.60,19.28,-61.98,-991.13,26.25,-673.75,-446.25,1,94.286,
01/01/2000,01:28:25.61,19.15,-61.98,-991.13,78.75,-682.50,-420.0,1,94.289,
01/01/2000,01:28:25.62,19.15,-61.73,-991.37,43.75,-743.75,-341.25,1,94.293,
01/01/2000,01:28:25.63,19.28,-61.49,-991.62,113.75,-533.75,-376.25,1,94.297,
01/01/2000,01:28:25.64,19.64,-61.12,-992.10,26.25,-656.25,-218.75,1,94.301,
01/01/2000,01:28:25.65,20.13,-61.37,-991.86,183.75,-717.50,-367.50,1,94.304,
01/01/2000,01:28:25.66,20.01,-61.73,-991.86,166.25,-665.0,-428.75,1,94.308,
01/01/2000,01:28:25.67,19.64,-61.85,-991.49,96.25,-848.75,-341.25,1,94.312,
01/01/2000,01:28:25.68,19.28,-61.73,-991.74,43.75,-603.75,-393.75,1,94.315,
01/01/2000,01:28:25.69,18.91,-61.37,-991.86,87.50,-665.0,-332.50,1,94.319,
01/01/2000,01:28:25.70,18.42,-61.24,-991.62,166.25,-647.50,-315.0,1,94.323,
01/01/2000,01:28:25.71,17.57,-61.12,-991.13,78.75,-656.25,-306.25,1,94.326,
01/01/2000,01:28:25.73,17.08,-61.49,-990.15,87.50,-787.50,-350.0,1,94.269,
01/01/2000,01:28:25.73,17.93,-61.73,-990.76,210.0,-717.50,-350.0,1,94.273,
01/01/2000,01:28:25.75,18.67,-61.73,-991.62,-52.50,-665.0,-420.0,1,94.277,
01/01/2000,01:28:25.76,19.52,-61.85,-992.47,166.25,-743.75,-315.0,1,94.280,
01/01/2000,01:28:25.77,20.13,-61.73,-993.08,201.25,-761.25,-297.50,1,94.284,
01/01/2000,01:28:25.78,20.50,-61.49,-992.96,17.50,-665.0,-385.0,1,94.288,
01/01/2000,01:28:25.79,20.01,-61.37,-992.23,122.50,-708.75,-288.75,1,94.291,
01/01/2000,01:28:25.80,19.64,-61.73,-991.74,236.25,-612.50,-280.0,1,94.295,
01/01/2000,01:28:25.81,19.28,-61.49,-991.37,-87.50,-761.25,-297.50,1,94.299,
01/01/2000,01:28:25.82,18.79,-61.61,-991.25,131.25,-813.75,-280.0,1,94.302,
01/01/2000,01:28:25.83,18.79,-61.73,-991.74,122.50,-630.0,-341.25,1,94.306,
01/01/2000,01:28:25.84,18.79,-61.49,-992.35,113.75,-612.50,-472.50,1,94.309,
01/01/2000,01:28:25.85,19.03,-61.37,-992.35,122.50,-726.25,-446.25,1,94.313,
01/01/2000,01:28:25.86,19.76,-61.37,-991.98,201.25,-700.0,-358.75,1,94.257,
01/01/2000,01:28:25.87,20.13,-61.49,-991.62,8.75,-656.25,-236.25,1,94.260,
01/01/2000,01:28:25.88,20.25,-61.73,-991.37,140.0,-770.0,-271.25,1,94.264,
01/01/2000,01:28:25.89,19.89,-61.73,-990.88,236.25,-717.50,-323.75,1,94.268,
01/01/2000,01:28:25.90,19.28,-61.49,-990.88,70.0,-638.75,-332.50,1,94.271,
01/01/2000,01:28:25.91,18.79,-61.24,-990.76,183.75,-726.25,-332.50,1,94.275,
01/01/2000,01:28:25.92,17.81,-61.12,-991.13,87.50,-778.75,-245.0,1,94.278,
01/01/2000,01:28:25.94,17.20,-61.24,-991.62,175.0,-717.50,-280.0,1,94.282,
01/01/2000,01:28:25.95,17.32,-61.49,-992.10,105.0,-673.75,-280.0,1,94.286,
01/01/2000,01:28:25.96,18.42,-61.49,-992.10,218.75,-717.50,-393.75,1,94.289,
01/01/2000,01:28:25.97,19.28,-61.24,-991.98,166.25,-743.75,-367.50,1,94.293,
01/01/2000,01:28:25.98,19.89,-61.49,-991.74,70.0,-735.0,-323.75,1,94.297,
01/01/2000,01:28:25.99,20.25,-61.73,-991.62,35.0,-787.50,-323.75,1,94.300,
01/01/2000,01:28:26.00,19.89,-61.61,-991.98,113.75,-743.75,-402.50,1,94.304,
01/01/2000,01:28:26.01,19.64,-61.49,-992.10,113.75,-717.50,-262.50,1,94.307,
01/01/2000,01:28:26.02,19.28,-61.0,-992.35,113.75,-586.25,-262.50,1,94.311,
01/01/2000,01:28:26.04,19.03,-61.0,-992.59,-17.50,-726.25,-218.75,1,94.255,
01/01/2000,01:28:26.05,19.03,-61.24,-992.71,210.0,-647.50,-358.75,1,94.259,
01/01/2000,01:28:26.06,18.91,-61.49,-992.47,131.25,-647.50,-437.50,1,94.262,
01/01/2000,01:28:26.07,19.03,-61.61,-991.86,140.0,-700.0,-393.75,1,94.266,
01/01/2000,01:28:26.08,19.28,-61.37,-991.13,157.50,-735.0,-411.25,1,94.270,
01/01/2000,01:28:26.09,19.40,-61.0,-990.52,166.25,-752.50,-253.75,1,94.273,
01/01/2000,01:28:26.10,19.52,-61.0,-990.40,-96.25,-603.75,-253.75,1,94.277,
01/01/2000,01:28:26.11,19.03,-61.61,-990.64,140.0,-770.0,-385.0,1,94.280,
01/01/2000,01:28:26.12,18.67,-61.49,-991.01,87.50,-673.75,-393.75,1,94.284,
01/01/2000,01:28:26.13,18.30,-61.61,-991.13,210.0,-673.75,-280.0,1,94.288,
01/01/2000,01:28:26.14,17.81,-61.0,-991.37,78.75,-691.25,-280.0,1,94.291,
01/01/2000,01:28:26.15,17.45,-61.0,-991.37,96.25,-813.75,-280.0,1,94.295,
01/01/2000,01:28:26.16,17.45,-61.0,-991.25,166.25,-533.75,-297.50,1,94.298,
01/01/2000,01:28:26.17,17.81,-61.24,-991.37,227.50,-708.75,-192.50,1,94.302,
01/01/2000,01:28:26.18,18.54,-61.49,-991.13,96.25,-691.25,-341.25,1,94.305,
01/01/2000,01:28:26.19,19.28,-61.73,-991.37,236.25,-700.0,-446.25,1,94.309,
01/01/2000,01:28:26.20,19.76,-61.61,-991.49,78.75,-691.25,-323.75,1,94.313,
01/01/2000,01:28:26.21,20.01,-61.37,-991.37,148.75,-673.75,-420.0,1,94.257,
01/01/2000,01:28:26.22,19.89,-61.24,-991.62,148.75,-665.0,-183.75,1,94.261,
01/01/2000,01:28:26.23,20.01,-61.12,-992.35,-35.0,-586.25,-437.50,1,94.264,
01/01/2000,01:28:26.24,20.01,-61.61,-992.71,385.0,-691.25,-253.75,1,94.268,
01/01/2000,01:28:26.25,20.01,-61.37,-992.59,201.25,-647.50,-472.50,1,94.271,
01/01/2000,01:28:26.26,19.76,-61.24,-992.35,148.75,-796.25,-306.25,1,94.275,
01/01/2000,01:28:26.27,19.64,-61.24,-992.10,157.50,-787.50,-385.0,1,94.279,
01/01/2000,01:28:26.29,19.76,-61.0,-992.10,140.0,-682.50,-297.50,1,94.282,
01/01/2000,01:28:26.30,20.13,-61.0,-991.86,96.25,-647.50,-385.0,1,94.286,
01/01/2000,01:28:26.31,20.01,-61.24,-991.37,140.0,-831.25,-280.0,1,94.289,
01/01/2000,01:28:26.32,20.01,-61.24,-990.76,-8.75,-665.0,-280.0,1,94.293,
01/01/2000,01:28:26.33,19.64,-61.61,-990.52,332.50,-796.25,-358.75,1,94.296,
01/01/2000,01:28:26.34,19.03,-61.49,-990.64,166.25,-892.50,-437.50,1,94.300,
01/01/2000,01:28:26.35,18.30,-61.49,-991.13,87.50,-708.75,-175.0,1,94.303,
01/01/2000,01:28:26.36,17.81,-61.49,-992.10,210.0,-682.50,-463.75,1,94.307,
01/01/2000,01:28:26.37,17.32,-61.49,-992.59,122.50,-743.75,-341.25,1,94.310,
01/01/2000,01:28:26.38,17.45,-61.24,-992.71,140.0,-560.0,-245.0,1,94.314,
01/01/2000,01:28:26.39,17.57,-61.49,-992.35,253.75,-761.25,-315.0,1,94.259,
01/01/2000,01:28:26.40,18.54,-61.49,-991.86,87.50,-743.75,-385.0,1,94.321,
01/01/2000,01:28:26.41,19.28,-61.49,-991.49,148.75,-735.0,-315.0,1,94.266,
01/01/2000,01:28:26.43,20.13,-61.61,-991.13,122.50,-770.0,-341.25,1,94.270,
01/01/2000,01:28:26.44,20.25,-61.61,-991.25,140.0,-717.50,-306.25,1,94.273,
01/01/2000,01:28:26.45,20.13,-61.49,-991.49,-35.0,-656.25,-288.75,1,94.277,
01/01/2000,01:28:26.46,19.40,-61.24,-991.98,157.50,-630.0,-218.75,1,94.280,
01/01/2000,01:28:26.47,18.91,-61.0,-992.10,245.0,-708.75,-341.25,1,94.284,
01/01/2000,01:28:26.48,18.54,-61.0,-992.10,157.50,-647.50,-332.50,1,94.287,
01/01/2000,01:28:26.49,18.67,-61.0,-991.86,-17.50,-691.25,-323.75,1,94.291,
01/01/2000,01:28:26.50,19.28,-61.24,-992.10,148.75,-743.75,-393.75,1,94.294,
01/01/2000,01:28:26.51,19.89,-61.49,-992.10,131.25,-778.75,-428.75,1,94.298,
01/01/2000,01:28:26.52,20.01,-61.49,-991.86,105.0,-700.0,-367.50,1,94.301,
01/01/2000,01:28:26.53,19.89,-61.24,-991.37,140.0,-822.50,-315.0,1,94.305,
01/01/2000,01:28:26.54,18.79,-61.12,-990.52,157.50,-770.0,-253.75,1,94.251,
01/01/2000,01:28:26.56,17.93,-61.12,-990.27,236.25,-603.75,-280.0,1,94.254,
01/01/2000,01:28:26.56,17.08,-61.12,-990.40,-43.75,-717.50,-428.75,1,94.258,
01/01/2000,01:28:26.58,17.08,-61.24,-990.76,157.50,-647.50,-393.75,1,94.261,
01/01/2000,01:28:26.59,18.06,-60.76,-991.01,245.0,-770.0,-446.25,1,94.265,
01/01/2000,01:28:26.60,19.52,-60.88,-991.37,166.25,-700.0,-367.50,1,94.268,
01/01/2000,01:28:26.61,20.25,-61.0,-991.37,166.25,-665.0,-306.25,1,94.272,
01/01/2000,01:28:26.62,20.50,-61.37,-991.49,17.50,-822.50,-271.25,1,94.275,
01/01/2000,01:28:26.63,20.37,-61.24,-991.37,227.50,-752.50,-367.50,1,94.279,
01/01/2000,01:28:26.64,19.52,-61.12,-991.13,113.75,-708.75,-350.0,1,94.282,
01/01/2000,01:28:26.65,18.91,-60.51,-990.76,105.0,-630.0,-306.25,1,94.286,
01/01/2000,01:28:26.66,18.54,-60.63,-990.76,280.0,-682.50,-236.25,1,94.289,
01/01/2000,01:28:26.67,18.54,-60.76,-991.37,183.75,-735.0,-245.0,1,94.293,
01/01/2000,01:28:26.68,19.03,-61.12,-992.47,271.25,-708.75,-411.25,1,94.296,
01/01/2000,01:28:26.69,19.28,-61.24,-992.59,201.25,-708.75,-420.0,1,94.300,
01/01/2000,01:28:26.70,19.76,-61.0,-992.35,35.0,-708.75,-236.25,1,94.303,
01/01/2000,01:28:26.71,19.76,-60.88,-991.62,96.25,-647.50,-350.0,1,94.306,
01/01/2000,01:28:26.72,19.76,-60.76,-991.37,262.50,-708.75,-236.25,1,94.310,
01/01/2000,01:28:26.73,19.52,-60.88,-991.62,166.25,-673.75,-280.0,1,94.313,
01/01/2000,01:28:26.74,18.91,-61.24,-992.23,96.25,-586.25,-315.0,1,94.317,
01/01/2000,01:28:26.75,18.06,-61.49,-993.08,131.25,-700.0,-367.50,1,94.320,
01/01/2000,01:28:26.76,17.32,-61.24,-993.32,201.25,-708.75,-385.0,1,94.324,
01/01/2000,01:28:26.77,16.96,-60.76,-992.84,52.50,-586.25,-420.0,1,94.327,
01/01/2000,01:28:26.78,17.57,-60.27,-991.25,96.25,-682.50,-183.75,1,94.274,
01/01/2000,01:28:26.79,18.30,-60.76,-990.15,262.50,-656.25,-280.0,1,94.277,
01/01/2000,01:28:26.80,19.03,-61.0,-989.91,113.75,-761.25,-332.50,1,94.281,
01/01/2000,01:28:26.81,19.89,-61.73,-990.76,122.50,-743.75,-428.75,1,94.284,
01/01/2000,01:28:26.82,20.13,-61.73,-991.62,113.75,-665.0,-402.50,1,94.287,
01/01/2000,01:28:26.83,19.89,-61.37,-992.23,218.75,-647.50,-323.75,1,94.291,
01/01/2000,01:28:26.85,19.03,-60.27,-991.86,157.50,-638.75,-297.50,1,94.294,
01/01/2000,01:28:26.86,18.42,-60.15,-991.13,166.25,-708.75,-245.0,1,94.298,
01/01/2000,01:28:26.87,18.06,-60.02,-990.40,113.75,-577.50,-218.75,1,94.301,
01/01/2000,01:28:26.88,18.30,-61.0,-990.40,201.25,-691.25,-393.75,1,94.305,
01/01/2000,01:28:26.89,18.79,-61.49,-991.13,0.0,-673.75,-385.0,1,94.308,
01/01/2000,01:28:26.90,19.52,-61.73,-992.10,148.75,-726.25,-420.0,1,94.311,
01/01/2000,01:28:26.91,20.50,-61.49,-992.35,227.50,-673.75,-385.0,1,94.315,
01/01/2000,01:28:26.92,20.98,-60.63,-992.35,157.50,-883.75,-210.0,1,94.262,
01/01/2000,01:28:26.93,20.25,-60.63,-991.62,61.25,-813.75,-61.25,1,94.265,
