rtcDate,rtcTime,aX,aY,aZ,gX,gY,gZ,dataRdy,output_Hz,
01/01/2000,01:12:07.16,18.06,-50.14,-854.49,262.50,-700.0,-358.75,1,100.0,
01/01/2000,01:12:07.18,18.79,-51.85,-886.21,131.25,-831.25,-332.50,1,100.0,
01/01/2000,01:12:07.19,19.03,-52.70,-899.26,148.75,-665.0,-385.0,1,75.0,
01/01/2000,01:12:07.20,19.15,-53.68,-915.85,105.0,-770.0,-280.0,1,80.0,
01/01/2000,01:12:07.21,19.52,-54.29,-925.25,271.25,-735.0,-376.25,1,83.333,
01/01/2000,01:12:07.22,19.64,-54.66,-933.42,-70.0,-638.75,-358.75,1,85.714,
01/01/2000,01:12:07.23,19.76,-55.14,-940.62,227.50,-752.50,-358.75,1,87.500,
01/01/2000,01:12:07.24,20.01,-55.63,-949.77,43.75,-726.25,-245.0,1,88.889,
01/01/2000,01:12:07.25,20.13,-56.00,-955.14,192.50,-638.75,-376.25,1,90.0,
01/01/2000,01:12:07.26,20.25,-56.36,-959.90,87.50,-665.0,-288.75,1,90.909,
01/01/2000,01:12:07.27,20.25,-56.61,-964.04,166.25,-708.75,-262.50,1,91.667,
01/01/2000,01:12:07.28,20.37,-56.97,-969.05,96.25,-708.75,-393.75,1,92.308,
01/01/2000,01:12:07.29,20.50,-57.10,-971.85,175.0,-673.75,-367.50,1,92.857,
01/01/2000,01:12:07.31,20.50,-57.10,-974.41,166.25,-656.25,-341.25,1,93.333,
01/01/2000,01:12:07.32,20.50,-57.58,-977.83,271.25,-682.50,-358.75,1,93.750,
01/01/2000,01:12:07.33,20.37,-57.83,-979.90,26.25,-647.50,-297.50,1,94.118,
01/01/2000,01:12:07.34,20.25,-57.83,-981.37,297.50,-656.25,-411.25,1,94.444,
01/01/2000,01:12:07.35,20.37,-57.71,-982.83,175.0,-656.25,-402.50,1,94.737,
01/01/2000,01:12:07.36,20.50,-57.71,-984.05,157.50,-726.25,-376.25,1,95.0,
01/01/2000,01:12:07.37,20.50,-57.83,-985.88,218.75,-656.25,-358.75,1,95.238,
01/01/2000,01:12:07.38,20.62,-57.95,-986.74,122.50,-708.75,-315.0,1,95.455,
01/01/2000,01:12:07.39,20.50,-58.07,-987.47,166.25,-700.0,-315.0,1,95.652,
01/01/2000,01:12:07.40,20.62,-58.32,-988.44,131.25,-656.25,-271.25,1,95.833,
01/01/2000,01:12:07.41,20.74,-58.19,-989.05,113.75,-691.25,-341.25,1,96.0,
01/01/2000,01:12:07.42,20.74,-58.19,-989.54,183.75,-673.75,-376.25,1,96.154,
01/01/2000,01:12:07.43,20.74,-58.19,-990.03,87.50,-630.0,-393.75,1,96.296,
01/01/2000,01:12:07.44,20.98,-58.32,-990.64,148.75,-665.0,-350.0,1,96.429,
01/01/2000,01:12:07.45,20.98,-58.07,-990.88,245.0,-673.75,-323.75,1,96.552,
01/01/2000,01:12:07.46,21.11,-58.19,-991.13,183.75,-700.0,-367.50,1,96.667,
01/01/2000,01:12:07.47,21.11,-58.19,-991.25,183.75,-673.75,-358.75,1,96.774,
01/01/2000,01:12:07.48,21.11,-58.32,-991.37,131.25,-743.75,-341.25,1,96.875,
01/01/2000,01:12:07.49,20.98,-58.44,-991.62,218.75,-717.50,-306.25,1,96.970,
01/01/2000,01:12:07.50,20.98,-58.32,-991.98,96.25,-700.0,-341.25,1,97.059,
01/01/2000,01:12:07.52,20.98,-58.32,-992.10,201.25,-647.50,-358.75,1,94.444,
01/01/2000,01:12:07.53,20.86,-58.32,-992.23,183.75,-682.50,-376.25,1,94.595,
01/01/2000,01:12:07.54,20.86,-58.19,-992.23,70.0,-700.0,-472.50,1,94.737,
01/01/2000,01:12:07.55,20.74,-58.19,-992.35,175.0,-787.50,-385.0,1,94.872,
01/01/2000,01:12:07.56,20.74,-58.32,-992.35,166.25,-708.75,-315.0,1,95.0,
01/01/2000,01:12:07.57,20.74,-58.32,-992.59,87.50,-726.25,-341.25,1,95.122,
01/01/2000,01:12:07.58,20.86,-58.32,-992.71,105.0,-603.75,-393.75,1,95.238,
01/01/2000,01:12:07.59,20.98,-58.19,-992.71,175.0,-630.0,-306.25,1,95.349,
01/01/2000,01:12:07.60,21.11,-58.32,-992.84,70.0,-752.50,-245.0,1,95.455,
01/01/2000,01:12:07.61,20.98,-58.32,-992.71,52.50,-726.25,-341.25,1,95.556,
01/01/2000,01:12:07.62,20.74,-58.44,-992.71,148.75,-656.25,-341.25,1,95.652,
01/01/2000,01:12:07.63,20.86,-58.44,-992.71,61.25,-603.75,-271.25,1,95.745,
01/01/2000,01:12:07.64,20.86,-58.32,-992.59,87.50,-761.25,-236.25,1,95.833,
01/01/2000,01:12:07.65,20.86,-58.32,-992.59,61.25,-726.25,-253.75,1,94.0,
01/01/2000,01:12:07.66,20.86,-58.19,-992.84,131.25,-612.50,-341.25,1,94.118,
01/01/2000,01:12:07.67,20.98,-58.32,-992.96,148.75,-673.75,-341.25,1,94.231,
01/01/2000,01:12:07.69,21.23,-58.32,-992.84,183.75,-708.75,-323.75,1,94.340,
01/01/2000,01:12:07.70,20.86,-58.32,-992.71,96.25,-743.75,-341.25,1,94.444,
01/01/2000,01:12:07.71,20.98,-58.32,-992.59,183.75,-700.0,-376.25,1,94.545,
01/01/2000,01:12:07.72,21.23,-58.32,-992.84,148.75,-665.0,-393.75,1,94.643,
01/01/2000,01:12:07.73,21.23,-58.44,-993.20,96.25,-700.0,-393.75,1,94.737,
01/01/2000,01:12:07.74,21.11,-58.32,-993.20,87.50,-630.0,-332.50,1,94.828,
01/01/2000,01:12:07.75,20.86,-58.32,-993.08,166.25,-743.75,-297.50,1,94.915,
01/01/2000,01:12:07.76,21.11,-58.32,-992.84,192.50,-708.75,-297.50,1,95.0,
01/01/2000,01:12:07.77,21.23,-58.44,-992.84,166.25,-717.50,-306.25,1,95.082,
01/01/2000,01:12:07.78,21.35,-58.56,-992.84,52.50,-568.75,-323.75,1,95.161,
01/01/2000,01:12:07.79,21.23,-58.56,-992.84,61.25,-621.25,-463.75,1,95.238,
01/01/2000,01:12:07.80,20.86,-58.44,-992.84,288.75,-726.25,-393.75,1,93.846,
01/01/2000,01:12:07.81,20.74,-58.19,-992.96,183.75,-630.0,-332.50,1,93.939,
01/01/2000,01:12:07.82,20.86,-58.19,-993.08,192.50,-691.25,-323.75,1,94.030,
01/01/2000,01:12:07.83,20.86,-58.32,-993.08,131.25,-577.50,-367.50,1,94.118,
01/01/2000,01:12:07.84,20.74,-58.56,-993.08,140.0,-726.25,-271.25,1,94.203,
01/01/2000,01:12:07.85,20.74,-58.56,-993.32,201.25,-577.50,-341.25,1,94.286,
01/01/2000,01:12:07.86,20.86,-58.44,-993.45,78.75,-752.50,-358.75,1,94.366,
01/01/2000,01:12:07.87,20.86,-58.19,-993.32,245.0,-647.50,-393.75,1,94.444,
01/01/2000,01:12:07.88,20.74,-58.32,-993.08,70.0,-717.50,-323.75,1,94.521,
01/01/2000,01:12:07.89,20.74,-58.32,-992.96,122.50,-612.50,-323.75,1,94.595,
01/01/2000,01:12:07.90,20.74,-58.56,-993.08,131.25,-586.25,-385.0,1,94.667,
01/01/2000,01:12:07.91,20.74,-58.56,-993.08,175.0,-770.0,-367.50,1,94.737,
01/01/2000,01:12:07.92,20.74,-58.56,-993.08,175.0,-647.50,-332.50,1,94.805,
01/01/2000,01:12:07.94,20.74,-58.44,-993.08,148.75,-603.75,-402.50,1,94.872,
01/01/2000,01:12:07.95,20.74,-58.32,-992.96,70.0,-726.25,-385.0,1,94.937,
01/01/2000,01:12:07.96,20.86,-58.32,-992.96,192.50,-717.50,-315.0,1,95.0,
01/01/2000,01:12:07.97,20.98,-58.32,-992.96,262.50,-665.0,-323.75,1,95.062,
01/01/2000,01:12:07.98,20.98,-58.32,-992.96,236.25,-717.50,-358.75,1,95.122,
01/01/2000,01:12:07.99,20.98,-58.44,-992.96,131.25,-700.0,-306.25,1,95.181,
01/01/2000,01:12:08.00,21.23,-58.32,-992.96,332.50,-708.75,-358.75,1,95.238,
01/01/2000,01:12:08.01,21.23,-58.32,-992.96,201.25,-542.50,-315.0,1,94.186,
01/01/2000,01:12:08.02,21.11,-58.19,-993.08,175.0,-743.75,-428.75,1,94.253,
01/01/2000,01:12:08.03,21.23,-58.32,-992.84,122.50,-717.50,-253.75,1,94.318,
01/01/2000,01:12:08.04,21.35,-58.32,-992.96,131.25,-735.0,-315.0,1,94.382,
01/01/2000,01:12:08.05,21.23,-58.32,-993.08,140.0,-726.25,-245.0,1,94.444,
01/01/2000,01:12:08.06,21.23,-58.19,-992.96,87.50,-726.25,-420.0,1,94.505,
01/01/2000,01:12:08.08,21.11,-58.07,-992.84,201.25,-708.75,-297.50,1,94.565,
01/01/2000,01:12:08.09,21.11,-58.07,-992.84,183.75,-726.25,-315.0,1,94.624,
01/01/2000,01:12:08.10,20.98,-58.19,-992.71,280.0,-717.50,-385.0,1,94.681,
01/01/2000,01:12:08.11,20.98,-58.07,-992.71,192.50,-691.25,-402.50,1,94.737,
01/01/2000,01:12:08.12,20.98,-58.07,-992.71,201.25,-726.25,-332.50,1,94.792,
01/01/2000,01:12:08.13,20.98,-58.07,-992.71,148.75,-630.0,-306.25,1,94.845,
01/01/2000,01:12:08.14,20.98,-58.07,-992.71,131.25,-621.25,-350.0,1,94.898,
01/01/2000,01:12:08.15,20.98,-58.07,-992.84,166.25,-691.25,-358.75,1,94.949,
01/01/2000,01:12:08.16,21.11,-58.19,-992.59,43.75,-656.25,-210.0,1,95.0,
01/01/2000,01:12:08.17,20.98,-58.19,-992.59,253.75,-665.0,-358.75,1,95.050,
01/01/2000,01:12:08.18,20.98,-58.32,-992.71,166.25,-735.0,-227.50,1,95.098,
01/01/2000,01:12:08.19,20.86,-58.32,-992.84,157.50,-726.25,-262.50,1,94.231,
01/01/2000,01:12:08.21,20.98,-58.32,-992.84,183.75,-726.25,-385.0,1,94.286,
01/01/2000,01:12:08.22,20.98,-58.32,-992.71,52.50,-761.25,-358.75,1,94.340,
01/01/2000,01:12:08.23,20.98,-58.32,-992.59,157.50,-831.25,-367.50,1,94.393,
01/01/2000,01:12:08.24,21.11,-58.32,-992.71,105.0,-708.75,-306.25,1,94.444,
01/01/2000,01:12:08.25,20.98,-58.32,-992.84,192.50,-673.75,-306.25,1,94.495,
01/01/2000,01:12:08.26,20.98,-58.19,-992.84,201.25,-700.0,-428.75,1,94.545,
01/01/2000,01:12:08.27,20.98,-58.19,-992.71,350.0,-656.25,-385.0,1,94.595,
01/01/2000,01:12:08.28,21.11,-58.07,-992.59,131.25,-612.50,-280.0,1,94.643,
01/01/2000,01:12:08.29,20.98,-58.19,-992.59,201.25,-735.0,-315.0,1,94.690,
01/01/2000,01:12:08.30,20.98,-58.19,-992.71,87.50,-700.0,-341.25,1,94.737,
01/01/2000,01:12:08.31,20.98,-58.19,-992.71,78.75,-612.50,-280.0,1,94.783,
01/01/2000,01:12:08.32,20.98,-58.07,-992.47,70.0,-743.75,-420.0,1,94.828,
01/01/2000,01:12:08.33,20.86,-57.95,-992.47,157.50,-682.50,-245.0,1,94.872,
01/01/2000,01:12:08.34,20.98,-57.95,-992.59,140.0,-673.75,-437.50,1,94.915,
01/01/2000,01:12:08.35,21.11,-57.95,-992.71,201.25,-735.0,-288.75,1,94.958,
01/01/2000,01:12:08.36,20.98,-57.95,-992.71,175.0,-726.25,-350.0,1,95.0,
01/01/2000,01:12:08.37,20.86,-58.07,-992.71,166.25,-787.50,-323.75,1,95.041,
01/01/2000,01:12:08.38,20.98,-57.95,-992.59,43.75,-638.75,-332.50,1,95.082,
01/01/2000,01:12:08.39,21.23,-58.07,-992.71,323.75,-638.75,-376.25,1,95.122,
01/01/2000,01:12:08.40,21.11,-58.07,-992.71,35.0,-612.50,-245.0,1,95.161,
01/01/2000,01:12:08.41,20.98,-58.07,-992.59,218.75,-682.50,-420.0,1,95.200,
01/01/2000,01:12:08.42,20.86,-58.07,-992.35,87.50,-595.0,-385.0,1,95.238,
01/01/2000,01:12:08.44,20.98,-58.07,-992.35,70.0,-735.0,-218.75,1,94.531,
01/01/2000,01:12:08.44,20.98,-57.95,-992.35,201.25,-708.75,-245.0,1,94.574,
01/01/2000,01:12:08.46,20.86,-58.19,-992.35,105.0,-770.0,-306.25,1,94.615,
01/01/2000,01:12:08.47,20.62,-58.19,-992.47,175.0,-700.0,-332.50,1,94.656,
01/01/2000,01:12:08.48,20.62,-58.32,-992.59,78.75,-726.25,-402.50,1,94.697,
01/01/2000,01:12:08.49,20.74,-58.19,-992.71,262.50,-726.25,-385.0,1,94.737,
01/01/2000,01:12:08.50,20.86,-58.07,-992.59,183.75,-700.0,-350.0,1,94.776,
01/01/2000,01:12:08.51,20.62,-58.19,-992.35,17.50,-595.0,-341.25,1,94.815,
01/01/2000,01:12:08.52,20.62,-58.19,-992.35,148.75,-612.50,-350.0,1,94.853,
01/01/2000,01:12:08.53,20.74,-58.07,-992.35,148.75,-726.25,-227.50,1,94.891,
01/01/2000,01:12:08.54,20.62,-58.07,-992.59,96.25,-682.50,-297.50,1,94.928,
01/01/2000,01:12:08.55,20.62,-58.19,-992.47,201.25,-700.0,-332.50,1,94.964,
01/01/2000,01:12:08.56,20.74,-58.32,-992.23,140.0,-778.75,-358.75,1,95.0,
01/01/2000,01:12:08.57,20.74,-58.19,-992.23,253.75,-735.0,-341.25,1,94.366,
01/01/2000,01:12:08.58,20.74,-58.32,-992.35,131.25,-682.50,-315.0,1,94.406,
01/01/2000,01:12:08.59,20.74,-58.32,-992.35,113.75,-700.0,-210.0,1,94.444,
01/01/2000,01:12:08.60,20.50,-58.32,-992.35,87.50,-700.0,-551.25,1,94.483,
01/01/2000,01:12:08.61,20.50,-58.07,-992.47,175.0,-647.50,-472.50,1,94.521,
01/01/2000,01:12:08.62,20.74,-57.95,-992.47,236.25,-708.75,-367.50,1,94.558,
01/01/2000,01:12:08.63,20.74,-57.83,-992.59,87.50,-717.50,-341.25,1,94.595,
01/01/2000,01:12:08.65,20.74,-58.19,-992.35,70.0,-665.0,-350.0,1,94.631,
01/01/2000,01:12:08.66,20.74,-58.32,-992.47,236.25,-682.50,-428.75,1,94.667,
01/01/2000,01:12:08.67,20.98,-58.32,-992.35,245.0,-682.50,-341.25,1,94.702,
01/01/2000,01:12:08.68,20.98,-57.95,-992.47,183.75,-673.75,-350.0,1,94.737,
01/01/2000,01:12:08.69,20.98,-57.95,-992.47,113.75,-708.75,-323.75,1,94.771,
01/01/2000,01:12:08.70,20.86,-58.07,-992.35,140.0,-752.50,-332.50,1,94.805,
01/01/2000,01:12:08.71,20.86,-58.32,-992.35,210.0,-682.50,-306.25,1,94.231,
01/01/2000,01:12:08.72,20.98,-58.32,-992.35,131.25,-761.25,-315.0,1,94.268,
01/01/2000,01:12:08.73,20.86,-58.32,-992.23,122.50,-726.25,-411.25,1,94.304,
01/01/2000,01:12:08.74,20.86,-58.44,-992.23,236.25,-665.0,-297.50,1,94.340,
01/01/2000,01:12:08.75,20.86,-58.19,-992.23,253.75,-770.0,-332.50,1,94.375,
01/01/2000,01:12:08.76,20.74,-58.07,-992.35,105.0,-735.0,-367.50,1,94.410,
01/01/2000,01:12:08.77,20.86,-58.32,-992.35,227.50,-691.25,-306.25,1,94.444,
01/01/2000,01:12:08.79,20.98,-58.32,-992.10,8.75,-796.25,-341.25,1,94.479,
01/01/2000,01:12:08.80,20.86,-58.44,-991.86,113.75,-638.75,-376.25,1,94.512,
01/01/2000,01:12:08.81,20.74,-58.32,-991.98,26.25,-743.75,-306.25,1,94.545,
01/01/2000,01:12:08.82,20.74,-58.32,-992.23,262.50,-752.50,-393.75,1,94.578,
01/01/2000,01:12:08.83,21.11,-58.07,-992.59,105.0,-621.25,-236.25,1,94.611,
01/01/2000,01:12:08.84,20.98,-58.32,-992.71,245.0,-577.50,-350.0,1,94.643,
01/01/2000,01:12:08.85,20.74,-58.56,-992.59,70.0,-656.25,-323.75,1,94.675,
01/01/2000,01:12:08.86,20.98,-58.44,-992.35,157.50,-752.50,-271.25,1,94.706,
01/01/2000,01:12:08.87,20.98,-58.32,-992.35,201.25,-735.0,-288.75,1,94.737,
01/01/2000,01:12:08.88,20.86,-58.07,-992.59,122.50,-708.75,-271.25,1,94.767,
01/01/2000,01:12:08.89,20.74,-58.19,-992.59,175.0,-673.75,-306.25,1,94.798,
01/01/2000,01:12:08.90,20.74,-58.32,-992.47,105.0,-638.75,-376.25,1,94.828,
01/01/2000,01:12:08.91,20.74,-58.19,-992.35,227.50,-700.0,-385.0,1,94.857,
01/01/2000,01:12:08.92,20.98,-58.07,-992.35,218.75,-778.75,-393.75,1,94.350,
01/01/2000,01:12:08.93,20.98,-58.07,-992.47,70.0,-770.0,-192.50,1,94.382,
01/01/2000,01:12:08.94,20.74,-58.32,-992.59,245.0,-735.0,-358.75,1,94.413,
01/01/2000,01:12:08.95,20.50,-58.32,-992.59,140.0,-586.25,-350.0,1,94.444,
01/01/2000,01:12:08.96,20.62,-58.32,-992.59,323.75,-647.50,-411.25,1,94.475,
01/01/2000,01:12:08.97,20.74,-58.32,-992.59,148.75,-726.25,-350.0,1,94.505,
01/01/2000,01:12:08.98,20.86,-58.19,-992.47,96.25,-796.25,-350.0,1,94.536,
01/01/2000,01:12:09.00,20.62,-58.56,-992.10,201.25,-673.75,-437.50,1,94.565,
01/01/2000,01:12:09.01,20.50,-58.44,-991.98,131.25,-743.75,-306.25,1,94.595,
01/01/2000,01:12:09.02,20.74,-58.44,-991.98,210.0,-726.25,-402.50,1,94.624,
01/01/2000,01:12:09.03,20.98,-58.32,-992.10,166.25,-796.25,-288.75,1,94.652,
01/01/2000,01:12:09.04,20.98,-58.19,-992.10,52.50,-778.75,-332.50,1,94.681,
01/01/2000,01:12:09.05,20.74,-58.32,-991.86,148.75,-577.50,-367.50,1,94.709,
01/01/2000,01:12:09.06,20.74,-58.44,-992.10,0.0,-665.0,-323.75,1,94.737,
01/01/2000,01:12:09.07,20.86,-58.32,-992.35,245.0,-560.0,-315.0,1,94.764,
01/01/2000,01:12:09.08,20.98,-58.32,-992.23,288.75,-770.0,-253.75,1,94.792,
01/01/2000,01:12:09.09,20.98,-58.19,-991.98,192.50,-691.25,-271.25,1,94.819,
01/01/2000,01:12:09.10,20.74,-58.32,-991.86,148.75,-717.50,-428.75,1,94.845,
01/01/2000,01:12:09.11,20.74,-58.32,-991.98,113.75,-691.25,-262.50,1,94.388,
01/01/2000,01:12:09.12,20.98,-58.32,-992.23,306.25,-813.75,-376.25,1,94.898,
01/01/2000,01:12:09.14,20.98,-58.32,-991.98,192.50,-630.0,-350.0,1,94.444,
01/01/2000,01:12:09.15,20.86,-58.32,-991.86,43.75,-647.50,-297.50,1,94.472,
01/01/2000,01:12:09.16,20.86,-58.44,-991.86,192.50,-656.25,-367.50,1,94.500,
01/01/2000,01:12:09.17,20.86,-58.56,-992.10,210.0,-656.25,-323.75,1,94.527,
01/01/2000,01:12:09.18,20.98,-58.07,-992.35,148.75,-595.0,-367.50,1,94.554,
01/01/2000,01:12:09.19,20.98,-58.07,-992.23,245.0,-717.50,-367.50,1,94.581,
01/01/2000,01:12:09.20,20.98,-57.95,-992.10,43.75,-656.25,-271.25,1,94.608,
01/01/2000,01:12:09.21,20.98,-58.07,-992.23,131.25,-577.50,-288.75,1,94.175,
01/01/2000,01:12:09.23,20.98,-58.19,-992.35,148.75,-708.75,-323.75,1,94.203,
01/01/2000,01:12:09.24,20.98,-58.44,-992.23,140.0,-700.0,-315.0,1,94.231,
01/01/2000,01:12:09.25,20.98,-58.44,-992.23,262.50,-735.0,-358.75,1,94.258,
01/01/2000,01:12:09.26,20.74,-58.32,-992.23,201.25,-621.25,-271.25,1,94.286,
01/01/2000,01:12:09.27,20.74,-58.32,-991.98,140.0,-638.75,-341.25,1,94.313,
01/01/2000,01:12:09.28,20.74,-58.32,-992.10,-52.50,-656.25,-262.50,1,94.340,
01/01/2000,01:12:09.29,20.86,-58.32,-992.23,140.0,-551.25,-376.25,1,94.366,
01/01/2000,01:12:09.30,20.86,-58.32,-992.10,148.75,-603.75,-323.75,1,94.393,
01/01/2000,01:12:09.31,20.74,-58.44,-992.10,43.75,-630.0,-385.0,1,94.419,
01/01/2000,01:12:09.32,20.74,-58.44,-992.10,210.0,-673.75,-385.0,1,94.444,
01/01/2000,01:12:09.33,20.74,-58.07,-992.10,140.0,-717.50,-358.75,1,94.470,
01/01/2000,01:12:09.34,20.74,-58.32,-992.10,227.50,-708.75,-437.50,1,94.495,
01/01/2000,01:12:09.35,20.74,-58.32,-991.98,218.75,-665.0,-253.75,1,94.521,
01/01/2000,01:12:09.36,20.74,-58.32,-992.10,183.75,-735.0,-358.75,1,94.545,
01/01/2000,01:12:09.37,20.98,-58.32,-992.10,157.50,-761.25,-323.75,1,94.570,
01/01/2000,01:12:09.38,20.86,-58.32,-992.47,148.75,-673.75,-376.25,1,94.595,
01/01/2000,01:12:09.39,20.74,-58.32,-992.35,131.25,-621.25,-332.50,1,94.619,
01/01/2000,01:12:09.40,20.62,-58.44,-992.35,131.25,-778.75,-306.25,1,94.643,
01/01/2000,01:12:09.41,20.86,-58.32,-992.10,192.50,-682.50,-358.75,1,94.667,
01/01/2000,01:12:09.42,21.35,-58.32,-992.23,227.50,-638.75,-323.75,1,94.690,
01/01/2000,01:12:09.43,21.23,-58.32,-992.35,175.0,-796.25,-288.75,1,94.714,
01/01/2000,01:12:09.44,21.23,-58.56,-992.35,236.25,-638.75,-297.50,1,94.737,
01/01/2000,01:12:09.45,20.98,-58.56,-992.35,140.0,-717.50,-393.75,1,94.760,
01/01/2000,01:12:09.46,21.11,-58.32,-992.23,148.75,-700.0,-358.75,1,94.783,
01/01/2000,01:12:09.47,20.98,-58.07,-992.35,201.25,-735.0,-297.50,1,94.805,
01/01/2000,01:12:09.48,20.98,-58.19,-992.10,210.0,-691.25,-262.50,1,94.421,
01/01/2000,01:12:09.50,20.86,-58.32,-992.10,78.75,-743.75,-306.25,1,94.444,
01/01/2000,01:12:09.50,20.86,-58.56,-992.10,157.50,-603.75,-367.50,1,94.468,
01/01/2000,01:12:09.52,20.98,-58.56,-992.23,148.75,-665.0,-358.75,1,94.492,
01/01/2000,01:12:09.53,20.98,-58.44,-992.47,105.0,-647.50,-297.50,1,94.515,
01/01/2000,01:12:09.54,20.98,-58.32,-992.23,78.75,-761.25,-227.50,1,94.538,
01/01/2000,01:12:09.55,20.74,-58.32,-992.23,148.75,-735.0,-350.0,1,94.561,
01/01/2000,01:12:09.56,20.74,-58.44,-992.35,122.50,-682.50,-323.75,1,94.583,
01/01/2000,01:12:09.57,20.86,-58.56,-992.35,280.0,-761.25,-428.75,1,94.606,
01/01/2000,01:12:09.58,20.86,-58.32,-992.35,157.50,-778.75,-315.0,1,94.628,
01/01/2000,01:12:09.59,20.74,-58.32,-992.10,166.25,-682.50,-437.50,1,94.650,
01/01/2000,01:12:09.60,20.62,-58.19,-991.98,105.0,-700.0,-332.50,1,94.672,
01/01/2000,01:12:09.61,20.74,-58.32,-992.10,96.25,-621.25,-472.50,1,94.694,
01/01/2000,01:12:09.62,20.86,-58.19,-992.23,210.0,-708.75,-323.75,1,94.715,
01/01/2000,01:12:09.63,20.86,-58.32,-992.23,70.0,-778.75,-358.75,1,94.355,
01/01/2000,01:12:09.64,20.62,-58.44,-992.10,122.50,-612.50,-350.0,1,94.378,
01/01/2000,01:12:09.65,20.86,-58.32,-992.35,157.50,-708.75,-376.25,1,94.400,
01/01/2000,01:12:09.66,20.86,-58.19,-992.47,218.75,-708.75,-280.0,1,94.422,
01/01/2000,01:12:09.67,20.98,-58.32,-992.59,43.75,-630.0,-367.50,1,94.444,
01/01/2000,01:12:09.68,20.74,-58.32,-992.59,157.50,-726.25,-367.50,1,94.466,
01/01/2000,01:12:09.70,20.74,-58.19,-992.35,271.25,-726.25,-446.25,1,94.488,
01/01/2000,01:12:09.71,20.86,-58.19,-992.35,253.75,-778.75,-323.75,1,94.510,
01/01/2000,01:12:09.72,20.86,-58.07,-992.35,35.0,-726.25,-332.50,1,94.531,
01/01/2000,01:12:09.73,20.86,-58.07,-992.35,236.25,-700.0,-280.0,1,94.186,
01/01/2000,01:12:09.74,20.74,-58.19,-992.59,210.0,-647.50,-280.0,1,94.208,
01/01/2000,01:12:09.75,20.98,-58.19,-992.71,332.50,-568.75,-446.25,1,94.231,
01/01/2000,01:12:09.76,21.11,-58.19,-992.59,131.25,-726.25,-288.75,1,94.253,
01/01/2000,01:12:09.77,20.98,-58.32,-992.47,227.50,-735.0,-297.50,1,94.275,
01/01/2000,01:12:09.78,20.98,-58.44,-992.35,96.25,-726.25,-332.50,1,94.297,
01/01/2000,01:12:09.79,20.86,-58.32,-992.23,87.50,-761.25,-323.75,1,94.318,
01/01/2000,01:12:09.80,20.74,-58.32,-992.35,210.0,-682.50,-332.50,1,94.340,
01/01/2000,01:12:09.81,20.74,-58.19,-992.35,183.75,-822.50,-280.0,1,94.361,
01/01/2000,01:12:09.82,20.86,-58.44,-992.35,183.75,-665.0,-376.25,1,94.382,
01/01/2000,01:12:09.83,20.74,-58.32,-992.47,131.25,-665.0,-341.25,1,94.403,
01/01/2000,01:12:09.85,20.74,-58.32,-992.35,122.50,-770.0,-411.25,1,94.424,
01/01/2000,01:12:09.86,20.74,-58.32,-992.35,218.75,-682.50,-446.25,1,94.444,
01/01/2000,01:12:09.87,20.74,-58.07,-992.35,87.50,-787.50,-271.25,1,94.465,
01/01/2000,01:12:09.88,20.74,-58.19,-992.35,192.50,-761.25,-323.75,1,94.485,
01/01/2000,01:12:09.89,20.86,-58.07,-992.35,140.0,-717.50,-271.25,1,94.505,
01/01/2000,01:12:09.90,20.74,-58.19,-992.35,96.25,-805.0,-341.25,1,94.526,
01/01/2000,01:12:09.91,20.74,-58.44,-992.23,113.75,-682.50,-420.0,1,94.545,
01/01/2000,01:12:09.92,20.86,-58.44,-992.35,183.75,-656.25,-280.0,1,94.565,
01/01/2000,01:12:09.93,20.74,-58.19,-992.23,253.75,-752.50,-385.0,1,94.585,
01/01/2000,01:12:09.94,20.62,-58.19,-992.10,157.50,-752.50,-376.25,1,94.604,
01/01/2000,01:12:09.95,20.62,-58.19,-992.10,253.75,-700.0,-367.50,1,94.624,
01/01/2000,01:12:09.96,20.62,-58.19,-992.10,201.25,-691.25,-262.50,1,94.643,
01/01/2000,01:12:09.97,20.98,-58.07,-992.23,140.0,-612.50,-393.75,1,94.662,
01/01/2000,01:12:09.98,20.98,-58.32,-992.47,175.0,-630.0,-376.25,1,94.346,
01/01/2000,01:12:09.99,20.98,-58.44,-992.23,122.50,-726.25,-376.25,1,94.366,
01/01/2000,01:12:10.00,20.98,-58.32,-992.10,157.50,-673.75,-367.50,1,94.386,
01/01/2000,01:12:10.01,20.98,-58.32,-992.10,140.0,-857.50,-481.25,1,94.406,
01/01/2000,01:12:10.02,21.23,-58.19,-992.35,140.0,-673.75,-288.75,1,94.425,
01/01/2000,01:12:10.03,21.23,-58.32,-992.35,210.0,-630.0,-358.75,1,94.444,
01/01/2000,01:12:10.04,20.98,-58.32,-992.23,175.0,-691.25,-393.75,1,94.464,
01/01/2000,01:12:10.06,20.74,-58.32,-992.35,218.75,-761.25,-358.75,1,94.483,
01/01/2000,01:12:10.07,20.98,-58.32,-992.35,122.50,-603.75,-315.0,1,94.502,
01/01/2000,01:12:10.08,20.98,-58.07,-992.59,148.75,-638.75,-288.75,1,94.521,
01/01/2000,01:12:10.09,20.98,-58.32,-992.71,105.0,-717.50,-385.0,1,94.539,
01/01/2000,01:12:10.10,20.98,-58.32,-992.47,227.50,-682.50,-393.75,1,94.558,
01/01/2000,01:12:10.11,20.98,-58.32,-992.35,105.0,-761.25,-385.0,1,94.576,
01/01/2000,01:12:10.12,21.11,-58.19,-992.47,236.25,-682.50,-385.0,1,94.595,
01/01/2000,01:12:10.13,21.11,-58.19,-992.35,236.25,-796.25,-315.0,1,94.613,
01/01/2000,01:12:10.14,21.11,-58.19,-992.10,210.0,-813.75,-350.0,1,94.314,
01/01/2000,01:12:10.15,20.98,-58.19,-992.10,157.50,-743.75,-315.0,1,94.333,
01/01/2000,01:12:10.16,20.98,-58.32,-992.10,288.75,-647.50,-420.0,1,94.352,
01/01/2000,01:12:10.17,21.11,-58.07,-992.10,253.75,-647.50,-253.75,1,94.371,
01/01/2000,01:12:10.18,20.98,-58.07,-992.23,245.0,-717.50,-323.75,1,94.389,
01/01/2000,01:12:10.20,20.74,-58.19,-992.23,201.25,-656.25,-385.0,1,94.408,
01/01/2000,01:12:10.21,20.74,-58.32,-992.35,70.0,-848.75,-463.75,1,94.426,
01/01/2000,01:12:10.22,20.86,-58.19,-992.23,122.50,-770.0,-332.50,1,94.444,
01/01/2000,01:12:10.23,21.11,-58.19,-992.35,236.25,-717.50,-280.0,1,94.463,
01/01/2000,01:12:10.24,20.98,-58.32,-992.35,192.50,-691.25,-385.0,1,94.481,
01/01/2000,01:12:10.25,20.86,-58.32,-992.35,131.25,-778.75,-332.50,1,94.498,
01/01/2000,01:12:10.26,20.98,-58.32,-992.35,175.0,-682.50,-455.0,1,94.516,
01/01/2000,01:12:10.27,21.11,-58.32,-992.35,288.75,-656.25,-323.75,1,94.231,
01/01/2000,01:12:10.28,21.23,-58.32,-992.35,113.75,-700.0,-297.50,1,94.249,
01/01/2000,01:12:10.29,21.23,-58.32,-992.35,166.25,-682.50,-245.0,1,94.268,
01/01/2000,01:12:10.30,21.23,-58.32,-992.35,113.75,-673.75,-306.25,1,94.286,
01/01/2000,01:12:10.31,21.23,-58.56,-992.35,245.0,-665.0,-411.25,1,94.304,
01/01/2000,01:12:10.32,21.23,-58.56,-992.47,148.75,-726.25,-367.50,1,94.322,
01/01/2000,01:12:10.33,21.23,-58.32,-992.47,52.50,-638.75,-297.50,1,94.340,
01/01/2000,01:12:10.34,21.11,-58.44,-992.35,157.50,-743.75,-350.0,1,94.357,
01/01/2000,01:12:10.35,20.98,-58.32,-992.23,122.50,-691.25,-271.25,1,94.375,
01/01/2000,01:12:10.36,21.23,-58.44,-992.47,192.50,-638.75,-393.75,1,94.393,
01/01/2000,01:12:10.37,21.23,-58.32,-992.59,113.75,-665.0,-280.0,1,94.410,
01/01/2000,01:12:10.38,21.11,-58.32,-992.47,253.75,-647.50,-341.25,1,94.427,
01/01/2000,01:12:10.40,20.98,-58.32,-992.35,218.75,-708.75,-288.75,1,94.444,
01/01/2000,01:12:10.41,20.98,-58.32,-992.10,192.50,-673.75,-358.75,1,94.462,
01/01/2000,01:12:10.42,20.98,-58.19,-992.23,61.25,-647.50,-455.0,1,94.479,
01/01/2000,01:12:10.43,20.86,-58.19,-992.35,218.75,-647.50,-350.0,1,94.495,
01/01/2000,01:12:10.44,20.74,-58.07,-992.23,140.0,-735.0,-315.0,1,94.512,
01/01/2000,01:12:10.45,20.86,-58.32,-992.23,166.25,-673.75,-332.50,1,94.529,
01/01/2000,01:12:10.46,20.74,-58.32,-992.23,122.50,-796.25,-297.50,1,94.545,
01/01/2000,01:12:10.47,20.98,-58.19,-992.23,87.50,-726.25,-262.50,1,94.562,
01/01/2000,01:12:10.48,20.98,-58.19,-992.23,183.75,-787.50,-341.25,1,94.578,
01/01/2000,01:12:10.49,20.86,-58.32,-992.10,192.50,-656.25,-332.50,1,94.595,
01/01/2000,01:12:10.50,20.98,-58.32,-992.10,183.75,-708.75,-288.75,1,94.611,
01/01/2000,01:12:10.51,20.98,-58.32,-992.10,166.25,-682.50,-428.75,1,94.627,
01/01/2000,01:12:10.52,20.98,-58.32,-992.23,148.75,-621.25,-280.0,1,94.643,
01/01/2000,01:12:10.53,21.11,-58.32,-992.35,175.0,-603.75,-455.0,1,94.659,
01/01/2000,01:12:10.54,20.98,-58.44,-992.35,148.75,-665.0,-385.0,1,94.395,
01/01/2000,01:12:10.55,21.11,-58.32,-992.35,87.50,-577.50,-358.75,1,94.412,
01/01/2000,01:12:10.56,21.11,-58.32,-992.23,96.25,-691.25,-350.0,1,94.428,
01/01/2000,01:12:10.57,21.11,-58.19,-992.23,218.75,-673.75,-341.25,1,94.444,
01/01/2000,01:12:10.58,21.23,-58.32,-992.35,96.25,-647.50,-332.50,1,94.461,
01/01/2000,01:12:10.59,21.23,-58.32,-992.35,227.50,-708.75,-358.75,1,94.477,
01/01/2000,01:12:10.60,21.11,-58.32,-992.23,201.25,-665.0,-297.50,1,94.493,
01/01/2000,01:12:10.62,20.86,-58.32,-992.23,140.0,-665.0,-280.0,1,94.509,
01/01/2000,01:12:10.63,20.98,-58.44,-992.23,210.0,-708.75,-332.50,1,94.524,
01/01/2000,01:12:10.64,20.98,-58.32,-992.23,175.0,-603.75,-341.25,1,94.540,
01/01/2000,01:12:10.65,20.86,-58.44,-992.23,192.50,-656.25,-385.0,1,94.556,
01/01/2000,01:12:10.66,20.86,-58.44,-992.10,113.75,-647.50,-341.25,1,94.571,
01/01/2000,01:12:10.67,20.86,-58.44,-992.23,43.75,-656.25,-350.0,1,94.587,
01/01/2000,01:12:10.68,20.86,-58.44,-992.47,122.50,-630.0,-393.75,1,94.334,
01/01/2000,01:12:10.69,20.74,-58.19,-992.35,306.25,-743.75,-262.50,1,94.350,
01/01/2000,01:12:10.70,20.74,-58.07,-992.47,236.25,-743.75,-245.0,1,94.366,
01/01/2000,01:12:10.71,20.74,-58.19,-992.35,140.0,-691.25,-350.0,1,94.382,
01/01/2000,01:12:10.72,20.74,-58.44,-992.35,201.25,-682.50,-315.0,1,94.398,
01/01/2000,01:12:10.73,20.86,-58.32,-992.35,148.75,-665.0,-315.0,1,94.413,
01/01/2000,01:12:10.75,20.86,-58.32,-992.47,210.0,-647.50,-341.25,1,94.429,
01/01/2000,01:12:10.76,20.86,-58.32,-992.35,96.25,-735.0,-306.25,1,94.183,
01/01/2000,01:12:10.77,20.74,-58.32,-992.23,113.75,-647.50,-280.0,1,94.460,
01/01/2000,01:12:10.78,20.74,-58.44,-992.10,148.75,-778.75,-341.25,1,94.215,
01/01/2000,01:12:10.79,20.98,-58.32,-992.23,192.50,-682.50,-262.50,1,94.231,
01/01/2000,01:12:10.80,20.98,-58.32,-992.35,78.75,-621.25,-358.75,1,94.247,
01/01/2000,01:12:10.81,20.74,-58.19,-992.35,148.75,-770.0,-271.25,1,94.262,
01/01/2000,01:12:10.82,20.62,-58.32,-992.23,78.75,-743.75,-332.50,1,94.278,
01/01/2000,01:12:10.83,20.62,-58.19,-992.10,183.75,-612.50,-315.0,1,94.293,
01/01/2000,01:12:10.84,20.74,-58.19,-992.10,70.0,-647.50,-236.25,1,94.309,
01/01/2000,01:12:10.85,20.74,-58.44,-992.10,131.25,-682.50,-341.25,1,94.324,
01/01/2000,01:12:10.86,20.62,-58.32,-992.10,236.25,-682.50,-297.50,1,94.340,
01/01/2000,01:12:10.87,20.62,-58.32,-992.23,183.75,-621.25,-367.50,1,94.355,
01/01/2000,01:12:10.88,20.50,-58.19,-992.23,17.50,-708.75,-297.50,1,94.370,
01/01/2000,01:12:10.90,20.62,-58.07,-992.10,52.50,-735.0,-332.50,1,94.385,
01/01/2000,01:12:10.91,20.74,-58.07,-992.10,70.0,-743.75,-323.75,1,94.400,
01/01/2000,01:12:10.92,20.74,-58.19,-992.10,236.25,-778.75,-420.0,1,94.415,
01/01/2000,01:12:10.93,20.62,-58.32,-992.10,131.25,-743.75,-367.50,1,94.430,
01/01/2000,01:12:10.94,20.50,-58.19,-992.23,157.50,-638.75,-385.0,1,94.444,
01/01/2000,01:12:10.95,20.62,-57.95,-992.35,113.75,-507.50,-306.25,1,94.459,
01/01/2000,01:12:10.96,21.11,-57.83,-992.23,131.25,-630.0,-367.50,1,94.474,
01/01/2000,01:12:10.97,20.98,-58.07,-992.10,183.75,-691.25,-332.50,1,94.241,
01/01/2000,01:12:10.98,20.98,-58.07,-991.98,87.50,-735.0,-341.25,1,94.503,
01/01/2000,01:12:10.99,20.98,-58.19,-991.98,175.0,-691.25,-332.50,1,94.271,
01/01/2000,01:12:11.00,20.86,-58.07,-992.10,140.0,-708.75,-262.50,1,94.531,
01/01/2000,01:12:11.01,20.74,-57.95,-991.98,192.50,-638.75,-463.75,1,94.301,
01/01/2000,01:12:11.02,20.86,-57.83,-991.86,140.0,-717.50,-192.50,1,94.315,
01/01/2000,01:12:11.03,21.11,-58.07,-991.86,210.0,-665.0,-245.0,1,94.330,
01/01/2000,01:12:11.05,20.74,-58.44,-992.10,262.50,-752.50,-262.50,1,94.344,
01/01/2000,01:12:11.06,20.74,-58.32,-992.35,70.0,-708.75,-525.0,1,94.359,
01/01/2000,01:12:11.07,20.98,-58.32,-992.35,262.50,-665.0,-463.75,1,94.373,
01/01/2000,01:12:11.08,20.98,-58.07,-992.10,148.75,-700.0,-175.0,1,94.388,
01/01/2000,01:12:11.09,20.98,-57.95,-991.86,148.75,-673.75,-376.25,1,94.402,
01/01/2000,01:12:11.10,20.74,-58.32,-991.98,166.25,-673.75,-253.75,1,94.416,
01/01/2000,01:12:11.11,20.86,-58.44,-992.35,17.50,-673.75,-463.75,1,94.430,
01/01/2000,01:12:11.12,20.86,-58.56,-992.47,201.25,-717.50,-420.0,1,94.444,
01/01/2000,01:12:11.13,20.98,-58.32,-992.10,131.25,-778.75,-218.75,1,94.458,
01/01/2000,01:12:11.14,20.86,-58.32,-991.98,218.75,-700.0,-297.50,1,94.472,
01/01/2000,01:12:11.15,20.74,-58.44,-992.10,-26.25,-656.25,-227.50,1,94.486,
01/01/2000,01:12:11.16,20.74,-58.56,-992.35,236.25,-700.0,-367.50,1,94.500,
01/01/2000,01:12:11.17,20.86,-58.56,-992.47,183.75,-673.75,-358.75,1,94.514,
01/01/2000,01:12:11.18,20.86,-58.44,-992.35,227.50,-761.25,-341.25,1,94.293,
01/01/2000,01:12:11.19,20.74,-58.32,-992.23,192.50,-700.0,-428.75,1,94.307,
01/01/2000,01:12:11.20,20.86,-58.32,-992.23,122.50,-717.50,-122.50,1,94.321,
01/01/2000,01:12:11.21,20.98,-58.44,-992.35,113.75,-682.50,-402.50,1,94.335,
01/01/2000,01:12:11.22,20.86,-58.56,-992.47,140.0,-700.0,-411.25,1,94.349,
01/01/2000,01:12:11.23,20.98,-58.44,-992.47,166.25,-647.50,-341.25,1,94.363,
01/01/2000,01:12:11.25,20.86,-58.19,-992.35,122.50,-743.75,-253.75,1,94.146,
01/01/2000,01:12:11.26,20.98,-58.07,-992.35,61.25,-665.0,-341.25,1,94.161,
01/01/2000,01:12:11.27,20.98,-58.19,-992.47,113.75,-787.50,-306.25,1,94.175,
01/01/2000,01:12:11.28,20.86,-58.19,-992.59,148.75,-708.75,-367.50,1,94.189,
01/01/2000,01:12:11.29,20.86,-58.32,-992.47,157.50,-647.50,-481.25,1,94.203,
01/01/2000,01:12:11.30,20.86,-58.07,-992.47,192.50,-630.0,-227.50,1,94.217,
01/01/2000,01:12:11.31,20.98,-58.19,-992.35,192.50,-726.25,-323.75,1,94.231,
01/01/2000,01:12:11.33,20.98,-58.07,-992.59,78.75,-700.0,-350.0,1,94.245,
01/01/2000,01:12:11.34,20.86,-58.32,-992.71,236.25,-708.75,-358.75,1,94.258,
01/01/2000,01:12:11.35,20.86,-58.32,-992.59,87.50,-682.50,-323.75,1,94.272,
01/01/2000,01:12:11.36,20.86,-58.44,-992.47,96.25,-708.75,-402.50,1,94.286,
01/01/2000,01:12:11.37,20.98,-58.19,-992.47,236.25,-717.50,-306.25,1,94.299,
01/01/2000,01:12:11.38,20.86,-58.32,-992.59,113.75,-700.0,-385.0,1,94.313,
01/01/2000,01:12:11.39,20.74,-58.32,-992.59,183.75,-752.50,-341.25,1,94.326,
01/01/2000,01:12:11.40,20.74,-58.32,-992.35,210.0,-621.25,-393.75,1,94.340,
01/01/2000,01:12:11.41,20.74,-58.32,-992.35,148.75,-621.25,-341.25,1,94.353,
01/01/2000,01:12:11.42,20.74,-58.44,-992.35,218.75,-630.0,-402.50,1,94.366,
01/01/2000,01:12:11.43,20.74,-58.32,-992.35,96.25,-761.25,-323.75,1,94.379,
01/01/2000,01:12:11.44,20.86,-58.44,-992.35,166.25,-717.50,-315.0,1,94.393,
01/01/2000,01:12:11.45,20.86,-58.32,-992.47,96.25,-656.25,-306.25,1,94.406,
01/01/2000,01:12:11.46,20.74,-58.56,-992.59,192.50,-568.75,-385.0,1,94.419,
01/01/2000,01:12:11.47,20.86,-58.44,-992.35,253.75,-787.50,-385.0,1,94.432,
01/01/2000,01:12:11.48,20.98,-58.56,-992.23,280.0,-708.75,-332.50,1,94.444,
01/01/2000,01:12:11.49,20.98,-58.32,-992.35,122.50,-717.50,-297.50,1,94.457,
01/01/2000,01:12:11.50,20.86,-58.44,-992.47,288.75,-682.50,-262.50,1,94.470,
01/01/2000,01:12:11.51,20.86,-58.32,-992.59,157.50,-752.50,-323.75,1,94.483,
01/01/2000,01:12:11.52,20.86,-58.32,-992.59,297.50,-691.25,-218.75,1,94.495,
01/01/2000,01:12:11.54,20.86,-58.19,-992.47,105.0,-691.25,-192.50,1,94.292,
01/01/2000,01:12:11.55,20.98,-58.32,-992.47,192.50,-778.75,-350.0,1,94.305,
01/01/2000,01:12:11.56,20.98,-58.19,-992.47,262.50,-577.50,-385.0,1,94.318,
01/01/2000,01:12:11.57,20.86,-58.07,-992.47,166.25,-656.25,-297.50,1,94.331,
01/01/2000,01:12:11.58,20.86,-58.19,-992.47,236.25,-595.0,-341.25,1,94.344,
01/01/2000,01:12:11.59,20.98,-58.32,-992.47,140.0,-647.50,-288.75,1,94.357,
01/01/2000,01:12:11.60,21.11,-58.19,-992.35,96.25,-691.25,-271.25,1,94.369,
01/01/2000,01:12:11.61,20.98,-58.44,-992.47,227.50,-743.75,-385.0,1,94.382,
01/01/2000,01:12:11.62,20.98,-58.44,-992.47,148.75,-603.75,-280.0,1,94.395,
01/01/2000,01:12:11.63,20.98,-58.32,-992.47,210.0,-673.75,-402.50,1,94.407,
01/01/2000,01:12:11.64,20.98,-58.07,-992.47,17.50,-665.0,-341.25,1,94.420,
01/01/2000,01:12:11.65,20.98,-58.19,-992.35,105.0,-665.0,-402.50,1,94.432,
01/01/2000,01:12:11.66,20.98,-58.19,-992.23,140.0,-735.0,-341.25,1,94.444,
01/01/2000,01:12:11.67,20.86,-58.32,-992.10,192.50,-630.0,-358.75,1,94.248,
01/01/2000,01:12:11.68,21.11,-58.32,-992.35,122.50,-638.75,-288.75,1,94.260,
01/01/2000,01:12:11.69,21.23,-58.19,-992.47,52.50,-647.50,-358.75,1,94.273,
01/01/2000,01:12:11.70,21.11,-58.32,-992.59,61.25,-743.75,-358.75,1,94.286,
01/01/2000,01:12:11.71,20.98,-58.32,-992.59,70.0,-665.0,-306.25,1,94.298,
01/01/2000,01:12:11.72,20.98,-58.44,-992.35,262.50,-700.0,-420.0,1,94.311,
01/01/2000,01:12:11.73,20.86,-58.68,-992.47,105.0,-673.75,-367.50,1,94.323,
01/01/2000,01:12:11.75,20.98,-58.68,-992.59,87.50,-656.25,-315.0,1,94.336,
01/01/2000,01:12:11.76,20.74,-58.56,-992.35,245.0,-743.75,-367.50,1,94.143,
01/01/2000,01:12:11.78,20.50,-58.56,-992.35,148.75,-752.50,-306.25,1,94.156,
01/01/2000,01:12:11.79,20.50,-58.56,-992.35,105.0,-717.50,-341.25,1,94.168,
01/01/2000,01:12:11.80,20.74,-58.56,-992.47,262.50,-551.25,-297.50,1,94.181,
01/01/2000,01:12:11.81,20.74,-58.56,-992.47,271.25,-726.25,-332.50,1,94.194,
01/01/2000,01:12:11.82,20.74,-58.44,-992.47,43.75,-700.0,-341.25,1,94.206,
01/01/2000,01:12:11.83,20.74,-58.44,-992.35,280.0,-752.50,-332.50,1,94.218,
01/01/2000,01:12:11.84,20.98,-58.32,-992.47,26.25,-630.0,-315.0,1,94.231,
01/01/2000,01:12:11.85,20.98,-58.32,-992.47,61.25,-735.0,-411.25,1,94.243,
01/01/2000,01:12:11.86,20.86,-58.32,-992.35,183.75,-743.75,-411.25,1,94.255,
01/01/2000,01:12:11.87,20.74,-58.19,-992.10,52.50,-735.0,-376.25,1,94.268,
01/01/2000,01:12:11.88,20.74,-58.19,-992.10,157.50,-770.0,-350.0,1,94.280,
01/01/2000,01:12:11.89,20.86,-58.32,-992.23,148.75,-603.75,-323.75,1,94.292,
01/01/2000,01:12:11.90,20.74,-58.32,-992.23,157.50,-708.75,-306.25,1,94.304,
01/01/2000,01:12:11.91,20.74,-58.32,-992.10,157.50,-735.0,-297.50,1,94.316,
01/01/2000,01:12:11.92,20.74,-58.19,-992.10,227.50,-717.50,-297.50,1,94.328,
01/01/2000,01:12:11.93,20.74,-58.32,-992.10,157.50,-735.0,-332.50,1,94.340,
01/01/2000,01:12:11.94,20.86,-58.32,-992.23,131.25,-726.25,-288.75,1,94.351,
01/01/2000,01:12:11.95,20.98,-58.32,-992.35,236.25,-787.50,-201.25,1,94.363,
01/01/2000,01:12:11.96,21.11,-58.44,-992.47,183.75,-665.0,-367.50,1,94.375,
01/01/2000,01:12:11.97,20.98,-58.56,-992.35,166.25,-656.25,-367.50,1,94.387,
01/01/2000,01:12:11.98,20.98,-58.32,-992.47,175.0,-691.25,-323.75,1,94.398,
01/01/2000,01:12:11.99,20.86,-58.32,-992.59,192.50,-700.0,-358.75,1,94.410,
01/01/2000,01:12:12.00,20.98,-58.32,-992.71,218.75,-647.50,-323.75,1,94.421,
01/01/2000,01:12:12.01,20.86,-58.32,-992.59,227.50,-621.25,-341.25,1,94.433,
01/01/2000,01:12:12.02,20.74,-58.56,-992.47,140.0,-647.50,-315.0,1,94.251,
01/01/2000,01:12:12.03,20.74,-58.44,-992.47,140.0,-682.50,-358.75,1,94.262,
01/01/2000,01:12:12.04,20.74,-58.32,-992.59,148.75,-665.0,-306.25,1,94.274,
01/01/2000,01:12:12.05,20.86,-58.32,-992.59,26.25,-673.75,-192.50,1,94.286,
01/01/2000,01:12:12.06,20.86,-58.32,-992.47,78.75,-796.25,-271.25,1,94.297,
01/01/2000,01:12:12.07,20.98,-58.32,-992.35,35.0,-691.25,-402.50,1,94.309,
01/01/2000,01:12:12.08,20.98,-58.32,-992.35,201.25,-647.50,-332.50,1,94.320,
01/01/2000,01:12:12.10,20.86,-58.32,-992.59,271.25,-621.25,-472.50,1,94.332,
01/01/2000,01:12:12.11,21.11,-57.95,-992.59,26.25,-752.50,-17.50,1,94.343,
01/01/2000,01:12:12.12,20.98,-58.19,-992.35,166.25,-770.0,-376.25,1,94.355,
01/01/2000,01:12:12.13,20.62,-58.56,-992.35,297.50,-665.0,-210.0,1,94.366,
01/01/2000,01:12:12.14,20.86,-58.19,-992.59,78.75,-603.75,-568.75,1,94.378,
01/01/2000,01:12:12.15,20.98,-58.32,-992.71,87.50,-682.50,-323.75,1,94.389,
01/01/2000,01:12:12.16,21.11,-58.07,-992.59,-78.75,-647.50,-297.50,1,94.400,
01/01/2000,01:12:12.17,20.74,-58.44,-992.35,131.25,-691.25,-560.0,1,94.223,
01/01/2000,01:12:12.18,20.86,-58.44,-992.23,262.50,-743.75,-192.50,1,94.235,
01/01/2000,01:12:12.19,20.86,-58.32,-992.35,113.75,-700.0,-376.25,1,94.246,
01/01/2000,01:12:12.20,20.86,-58.44,-992.47,227.50,-691.25,-245.0,1,94.257,
01/01/2000,01:12:12.21,20.98,-58.44,-992.47,166.25,-726.25,-358.75,1,94.269,
01/01/2000,01:12:12.22,21.11,-58.32,-992.10,148.75,-752.50,-332.50,1,94.280,
01/01/2000,01:12:12.24,20.98,-58.44,-992.10,201.25,-673.75,-332.50,1,94.291,
01/01/2000,01:12:12.25,20.86,-58.32,-992.35,96.25,-472.50,-341.25,1,94.303,
01/01/2000,01:12:12.26,20.50,-58.56,-992.47,385.0,-726.25,-271.25,1,94.314,
01/01/2000,01:12:12.27,21.23,-58.07,-992.23,-26.25,-700.0,-315.0,1,94.325,
01/01/2000,01:12:12.28,21.23,-58.44,-991.98,35.0,-682.50,-437.50,1,94.336,
01/01/2000,01:12:12.29,20.74,-58.68,-991.86,201.25,-708.75,-218.75,1,94.347,
01/01/2000,01:12:12.30,20.98,-58.32,-992.10,105.0,-691.25,-638.75,1,94.175,
01/01/2000,01:12:12.31,20.98,-58.44,-992.35,227.50,-708.75,-218.75,1,94.186,
01/01/2000,01:12:12.32,20.86,-58.07,-992.59,166.25,-787.50,-175.0,1,94.197,
01/01/2000,01:12:12.33,20.74,-58.19,-992.35,148.75,-647.50,-411.25,1,94.208,
01/01/2000,01:12:12.34,20.74,-58.07,-992.10,87.50,-726.25,-262.50,1,94.220,
01/01/2000,01:12:12.35,20.74,-58.44,-992.23,253.75,-726.25,-472.50,1,94.231,
01/01/2000,01:12:12.36,20.98,-58.44,-992.59,210.0,-761.25,-262.50,1,94.242,
01/01/2000,01:12:12.37,21.11,-58.32,-992.59,192.50,-638.75,-446.25,1,94.253,
01/01/2000,01:12:12.38,20.86,-58.32,-992.47,227.50,-726.25,-245.0,1,94.264,
01/01/2000,01:12:12.40,20.74,-58.19,-992.35,131.25,-743.75,-306.25,1,94.275,
01/01/2000,01:12:12.41,20.74,-58.32,-992.35,148.75,-568.75,-358.75,1,94.286,
01/01/2000,01:12:12.42,20.86,-58.44,-992.59,131.25,-665.0,-323.75,1,94.297,
01/01/2000,01:12:12.43,20.86,-58.56,-992.59,183.75,-700.0,-385.0,1,94.307,
01/01/2000,01:12:12.44,20.86,-58.56,-992.47,236.25,-761.25,-376.25,1,94.318,
01/01/2000,01:12:12.45,20.86,-58.19,-992.47,122.50,-743.75,-271.25,1,94.329,
01/01/2000,01:12:12.46,20.86,-58.07,-992.59,148.75,-673.75,-385.0,1,94.340,
01/01/2000,01:12:12.47,20.86,-58.07,-992.71,78.75,-612.50,-201.25,1,94.350,
01/01/2000,01:12:12.48,20.86,-58.07,-992.59,183.75,-638.75,-411.25,1,94.361,
01/01/2000,01:12:12.49,20.62,-58.19,-992.59,192.50,-735.0,-358.75,1,94.371,
01/01/2000,01:12:12.50,20.62,-58.19,-992.59,148.75,-805.0,-472.50,1,94.382,
01/01/2000,01:12:12.51,20.50,-58.32,-992.59,288.75,-656.25,-315.0,1,94.393,
01/01/2000,01:12:12.52,20.74,-58.07,-992.47,166.25,-761.25,-201.25,1,94.227,
01/01/2000,01:12:12.53,20.74,-58.32,-992.35,218.75,-665.0,-323.75,1,94.238,
01/01/2000,01:12:12.54,20.62,-58.32,-992.35,52.50,-708.75,-323.75,1,94.249,
01/01/2000,01:12:12.55,20.62,-58.44,-992.35,236.25,-743.75,-376.25,1,94.259,
01/01/2000,01:12:12.56,20.74,-58.19,-992.35,245.0,-656.25,-341.25,1,94.270,
01/01/2000,01:12:12.57,20.86,-58.32,-992.59,148.75,-717.50,-350.0,1,94.280,
01/01/2000,01:12:12.58,20.74,-58.32,-992.59,175.0,-673.75,-236.25,1,94.291,
01/01/2000,01:12:12.60,20.74,-58.44,-992.71,148.75,-735.0,-341.25,1,94.301,
01/01/2000,01:12:12.61,20.98,-58.32,-992.59,78.75,-656.25,-455.0,1,94.312,
01/01/2000,01:12:12.62,20.98,-58.32,-992.59,157.50,-673.75,-358.75,1,94.322,
01/01/2000,01:12:12.63,21.23,-58.32,-992.59,218.75,-752.50,-315.0,1,94.333,
01/01/2000,01:12:12.64,20.98,-58.32,-992.47,148.75,-717.50,-236.25,1,94.343,
01/01/2000,01:12:12.65,20.98,-58.19,-992.59,35.0,-673.75,-402.50,1,94.353,
01/01/2000,01:12:12.66,21.11,-58.32,-992.59,122.50,-778.75,-402.50,1,94.364,
01/01/2000,01:12:12.67,21.23,-58.32,-992.84,-26.25,-761.25,-323.75,1,94.374,
01/01/2000,01:12:12.68,21.23,-58.32,-992.59,183.75,-735.0,-332.50,1,94.384,
01/01/2000,01:12:12.69,20.86,-58.44,-992.59,140.0,-665.0,-218.75,1,94.394,
01/01/2000,01:12:12.70,20.74,-58.44,-992.47,183.75,-735.0,-350.0,1,94.404,
01/01/2000,01:12:12.71,20.86,-58.32,-992.59,78.75,-726.25,-385.0,1,94.414,
01/01/2000,01:12:12.72,20.98,-58.19,-992.47,245.0,-630.0,-297.50,1,94.424,
01/01/2000,01:12:12.73,20.98,-58.32,-992.35,280.0,-612.50,-315.0,1,94.265,
01/01/2000,01:12:12.74,20.98,-58.44,-992.35,201.25,-761.25,-385.0,1,94.275,
01/01/2000,01:12:12.75,20.98,-58.44,-992.35,148.75,-770.0,-411.25,1,94.286,
01/01/2000,01:12:12.76,20.98,-58.32,-992.59,271.25,-813.75,-402.50,1,94.296,
01/01/2000,01:12:12.77,21.11,-58.19,-992.59,218.75,-778.75,-297.50,1,94.306,
01/01/2000,01:12:12.79,20.98,-58.32,-992.59,175.0,-638.75,-271.25,1,94.316,
01/01/2000,01:12:12.80,20.86,-58.56,-992.47,262.50,-612.50,-271.25,1,94.326,
01/01/2000,01:12:12.81,20.98,-58.56,-992.47,113.75,-612.50,-367.50,1,94.336,
01/01/2000,01:12:12.82,20.98,-58.56,-992.35,166.25,-682.50,-437.50,1,94.180,
01/01/2000,01:12:12.83,20.98,-58.56,-992.47,78.75,-726.25,-341.25,1,94.356,
01/01/2000,01:12:12.84,20.98,-58.44,-992.35,140.0,-665.0,-393.75,1,94.200,
01/01/2000,01:12:12.85,20.98,-58.56,-992.47,35.0,-840.0,-385.0,1,94.376,
01/01/2000,01:12:12.86,20.86,-58.68,-992.47,166.25,-621.25,-341.25,1,94.221,
01/01/2000,01:12:12.87,20.74,-58.56,-992.47,148.75,-647.50,-306.25,1,94.231,
01/01/2000,01:12:12.88,20.74,-58.44,-992.59,87.50,-682.50,-332.50,1,94.241,
01/01/2000,01:12:12.89,20.86,-58.44,-992.71,113.75,-761.25,-288.75,1,94.251,
01/01/2000,01:12:12.90,20.86,-58.56,-992.35,201.25,-717.50,-323.75,1,94.261,
01/01/2000,01:12:12.91,20.98,-58.56,-992.23,192.50,-656.25,-376.25,1,94.271,
01/01/2000,01:12:12.92,20.98,-58.56,-992.35,166.25,-700.0,-341.25,1,94.281,
01/01/2000,01:12:12.93,20.98,-58.44,-992.35,166.25,-673.75,-280.0,1,94.291,
01/01/2000,01:12:12.95,20.98,-58.32,-992.35,245.0,-796.25,-271.25,1,94.301,
01/01/2000,01:12:12.96,20.74,-58.32,-992.35,131.25,-647.50,-367.50,1,94.310,
01/01/2000,01:12:12.97,20.86,-58.32,-992.35,105.0,-770.0,-341.25,1,94.320,
01/01/2000,01:12:12.98,20.86,-58.44,-992.35,236.25,-726.25,-385.0,1,94.330,
01/01/2000,01:12:12.99,20.86,-58.44,-992.47,105.0,-761.25,-376.25,1,94.340,
01/01/2000,01:12:13.00,20.98,-58.44,-992.47,227.50,-708.75,-358.75,1,94.349,
01/01/2000,01:12:13.01,20.86,-58.32,-992.35,210.0,-761.25,-367.50,1,94.359,
01/01/2000,01:12:13.02,20.86,-58.32,-992.35,166.25,-673.75,-393.75,1,94.369,
01/01/2000,01:12:13.03,20.86,-58.32,-992.59,210.0,-665.0,-323.75,1,94.378,
01/01/2000,01:12:13.04,20.98,-58.32,-992.84,175.0,-638.75,-376.25,1,94.388,
01/01/2000,01:12:13.05,20.98,-58.32,-992.96,35.0,-638.75,-253.75,1,94.237,
01/01/2000,01:12:13.06,20.98,-58.44,-992.71,210.0,-752.50,-280.0,1,94.407,
01/01/2000,01:12:13.07,21.11,-58.32,-992.59,61.25,-656.25,-385.0,1,94.257,
01/01/2000,01:12:13.09,21.11,-58.19,-992.71,376.25,-647.50,-385.0,1,94.266,
01/01/2000,01:12:13.10,20.98,-58.19,-992.71,140.0,-691.25,-288.75,1,94.276,
01/01/2000,01:12:13.11,20.98,-58.19,-992.71,218.75,-708.75,-393.75,1,94.286,
01/01/2000,01:12:13.12,20.98,-58.32,-992.59,288.75,-752.50,-393.75,1,94.295,
01/01/2000,01:12:13.13,20.98,-58.19,-992.47,201.25,-726.25,-393.75,1,94.305,
01/01/2000,01:12:13.14,20.86,-58.32,-992.59,210.0,-656.25,-271.25,1,94.314,
01/01/2000,01:12:13.15,20.86,-58.32,-992.59,148.75,-682.50,-253.75,1,94.324,
01/01/2000,01:12:13.16,20.86,-58.44,-992.71,140.0,-647.50,-350.0,1,94.333,
01/01/2000,01:12:13.17,20.98,-58.32,-992.71,140.0,-673.75,-280.0,1,94.343,
01/01/2000,01:12:13.18,20.86,-58.32,-992.59,148.75,-761.25,-253.75,1,94.352,
01/01/2000,01:12:13.19,20.74,-58.56,-992.35,131.25,-743.75,-315.0,1,94.362,
01/01/2000,01:12:13.20,20.86,-58.56,-992.35,96.25,-665.0,-358.75,1,94.371,
01/01/2000,01:12:13.21,20.98,-58.44,-992.47,236.25,-752.50,-385.0,1,94.380,
01/01/2000,01:12:13.22,20.98,-58.56,-992.47,96.25,-726.25,-271.25,1,94.234,
01/01/2000,01:12:13.23,20.86,-58.44,-992.59,140.0,-656.25,-262.50,1,94.243,
01/01/2000,01:12:13.24,20.98,-58.44,-992.47,166.25,-691.25,-411.25,1,94.253,
01/01/2000,01:12:13.25,21.11,-58.32,-992.47,70.0,-656.25,-306.25,1,94.262,
01/01/2000,01:12:13.26,20.98,-58.56,-992.47,210.0,-735.0,-306.25,1,94.272,
01/01/2000,01:12:13.27,20.98,-58.56,-992.35,192.50,-743.75,-332.50,1,94.281,
01/01/2000,01:12:13.28,20.98,-58.56,-992.35,175.0,-673.75,-376.25,1,94.290,
01/01/2000,01:12:13.30,20.98,-58.32,-992.59,157.50,-708.75,-245.0,1,94.300,
01/01/2000,01:12:13.31,20.86,-58.32,-992.59,175.0,-700.0,-376.25,1,94.156,
01/01/2000,01:12:13.32,20.86,-58.44,-992.59,262.50,-673.75,-332.50,1,94.165,
01/01/2000,01:12:13.33,20.98,-58.44,-992.59,61.25,-691.25,-280.0,1,94.175,
01/01/2000,01:12:13.34,21.11,-58.56,-992.59,113.75,-647.50,-411.25,1,94.184,
01/01/2000,01:12:13.35,20.98,-58.56,-992.59,113.75,-761.25,-393.75,1,94.194,
01/01/2000,01:12:13.36,20.86,-58.56,-992.59,70.0,-621.25,-358.75,1,94.203,
01/01/2000,01:12:13.37,20.86,-58.44,-992.59,78.75,-700.0,-411.25,1,94.212,
01/01/2000,01:12:13.38,20.74,-58.44,-992.35,157.50,-735.0,-350.0,1,94.222,
01/01/2000,01:12:13.39,20.74,-58.44,-992.35,96.25,-630.0,-245.0,1,94.231,
01/01/2000,01:12:13.40,20.86,-58.56,-992.35,210.0,-673.75,-341.25,1,94.240,
01/01/2000,01:12:13.42,20.86,-58.44,-992.47,43.75,-691.25,-306.25,1,94.249,
01/01/2000,01:12:13.42,20.86,-58.56,-992.35,122.50,-761.25,-385.0,1,94.258,
01/01/2000,01:12:13.44,20.74,-58.44,-992.35,140.0,-822.50,-297.50,1,94.268,
01/01/2000,01:12:13.45,20.62,-58.32,-992.59,288.75,-778.75,-306.25,1,94.277,
01/01/2000,01:12:13.46,20.74,-58.19,-992.59,157.50,-682.50,-288.75,1,94.286,
01/01/2000,01:12:13.47,20.74,-58.32,-992.59,201.25,-708.75,-428.75,1,94.295,
01/01/2000,01:12:13.48,20.62,-58.32,-992.71,78.75,-577.50,-315.0,1,94.304,
01/01/2000,01:12:13.49,20.62,-58.44,-992.71,148.75,-691.25,-367.50,1,94.313,
01/01/2000,01:12:13.50,20.74,-58.32,-992.59,87.50,-595.0,-385.0,1,94.322,
01/01/2000,01:12:13.51,20.50,-58.32,-992.71,245.0,-638.75,-288.75,1,94.331,
01/01/2000,01:12:13.52,20.50,-58.19,-992.84,61.25,-770.0,-253.75,1,94.340,
01/01/2000,01:12:13.53,20.74,-58.32,-992.84,288.75,-761.25,-288.75,1,94.349,
01/01/2000,01:12:13.54,20.74,-58.19,-992.84,87.50,-700.0,-332.50,1,94.357,
01/01/2000,01:12:13.55,20.74,-58.32,-992.71,201.25,-647.50,-350.0,1,94.366,
01/01/2000,01:12:13.56,20.62,-58.44,-992.71,122.50,-761.25,-350.0,1,94.375,
01/01/2000,01:12:13.57,20.50,-58.44,-992.71,253.75,-778.75,-437.50,1,94.384,
01/01/2000,01:12:13.58,20.62,-58.07,-992.59,183.75,-752.50,-428.75,1,94.393,
01/01/2000,01:12:13.59,20.50,-58.07,-992.59,157.50,-708.75,-323.75,1,94.255,
01/01/2000,01:12:13.60,20.62,-58.07,-992.59,148.75,-577.50,-385.0,1,94.410,
01/01/2000,01:12:13.61,20.74,-58.07,-992.47,61.25,-726.25,-341.25,1,94.272,
01/01/2000,01:12:13.62,20.86,-58.32,-992.47,70.0,-770.0,-393.75,1,94.281,
01/01/2000,01:12:13.63,20.86,-58.32,-992.35,157.50,-708.75,-332.50,1,94.290,
01/01/2000,01:12:13.65,20.74,-58.44,-992.35,43.75,-621.25,-323.75,1,94.299,
01/01/2000,01:12:13.66,20.74,-58.19,-992.23,166.25,-761.25,-323.75,1,94.308,
01/01/2000,01:12:13.67,20.98,-58.07,-992.35,157.50,-682.50,-341.25,1,94.316,
01/01/2000,01:12:13.68,20.98,-58.19,-992.35,157.50,-717.50,-393.75,1,94.325,
01/01/2000,01:12:13.69,20.98,-58.19,-992.35,131.25,-647.50,-253.75,1,94.334,
01/01/2000,01:12:13.70,20.98,-58.32,-992.23,78.75,-752.50,-385.0,1,94.343,
01/01/2000,01:12:13.71,20.98,-58.32,-992.10,113.75,-665.0,-210.0,1,94.351,
01/01/2000,01:12:13.72,20.98,-58.07,-992.23,87.50,-612.50,-323.75,1,94.360,
01/01/2000,01:12:13.73,20.86,-58.19,-992.35,192.50,-673.75,-306.25,1,94.368,
01/01/2000,01:12:13.74,20.86,-58.07,-992.47,227.50,-708.75,-315.0,1,94.377,
01/01/2000,01:12:13.75,20.86,-58.32,-992.59,96.25,-761.25,-332.50,1,94.385,
01/01/2000,01:12:13.76,20.98,-58.32,-992.84,210.0,-656.25,-350.0,1,94.394,
01/01/2000,01:12:13.77,20.98,-58.32,-992.71,122.50,-656.25,-393.75,1,94.402,
01/01/2000,01:12:13.78,20.98,-58.19,-992.47,78.75,-743.75,-280.0,1,94.411,
01/01/2000,01:12:13.79,20.98,-58.32,-992.59,166.25,-656.25,-201.25,1,94.277,
01/01/2000,01:12:13.80,20.86,-58.32,-992.59,218.75,-603.75,-385.0,1,94.286,
01/01/2000,01:12:13.82,20.74,-58.56,-992.59,148.75,-752.50,-367.50,1,94.294,
01/01/2000,01:12:13.83,20.86,-58.44,-992.47,227.50,-673.75,-393.75,1,94.303,
01/01/2000,01:12:13.84,20.86,-58.32,-992.47,61.25,-682.50,-297.50,1,94.311,
01/01/2000,01:12:13.85,20.86,-58.32,-992.35,271.25,-735.0,-306.25,1,94.320,
01/01/2000,01:12:13.86,20.74,-58.19,-992.35,105.0,-796.25,-393.75,1,94.328,
01/01/2000,01:12:13.87,20.86,-58.07,-992.35,122.50,-665.0,-350.0,1,94.337,
01/01/2000,01:12:13.88,20.98,-58.07,-992.47,236.25,-568.75,-341.25,1,94.345,
01/01/2000,01:12:13.89,21.23,-58.07,-992.35,262.50,-735.0,-323.75,1,94.354,
01/01/2000,01:12:13.90,20.98,-58.19,-992.47,183.75,-612.50,-358.75,1,94.362,
01/01/2000,01:12:13.91,20.86,-58.32,-992.47,166.25,-752.50,-358.75,1,94.370,
01/01/2000,01:12:13.92,20.86,-58.32,-992.47,262.50,-656.25,-306.25,1,94.379,
01/01/2000,01:12:13.93,20.86,-58.32,-992.59,96.25,-682.50,-367.50,1,94.248,
01/01/2000,01:12:13.94,20.74,-58.44,-992.47,201.25,-787.50,-376.25,1,94.256,
01/01/2000,01:12:13.95,20.50,-58.56,-992.23,166.25,-665.0,-446.25,1,94.265,
01/01/2000,01:12:13.96,20.50,-58.56,-992.23,236.25,-778.75,-323.75,1,94.273,
01/01/2000,01:12:13.97,20.62,-58.56,-992.23,227.50,-700.0,-402.50,1,94.282,
01/01/2000,01:12:13.98,20.74,-58.32,-992.35,61.25,-717.50,-332.50,1,94.290,
01/01/2000,01:12:14.00,20.74,-58.56,-992.35,105.0,-700.0,-376.25,1,94.298,
01/01/2000,01:12:14.01,20.62,-58.56,-992.35,122.50,-735.0,-411.25,1,94.307,
01/01/2000,01:12:14.02,20.74,-58.56,-992.47,175.0,-700.0,-323.75,1,94.315,
01/01/2000,01:12:14.03,20.74,-58.44,-992.47,96.25,-752.50,-306.25,1,94.323,
01/01/2000,01:12:14.04,20.74,-58.32,-992.35,175.0,-770.0,-367.50,1,94.331,
01/01/2000,01:12:14.05,20.74,-58.56,-992.35,113.75,-665.0,-323.75,1,94.340,
01/01/2000,01:12:14.06,20.74,-58.56,-992.35,157.50,-682.50,-332.50,1,94.348,
01/01/2000,01:12:14.07,20.74,-58.68,-992.35,52.50,-682.50,-315.0,1,94.356,
01/01/2000,01:12:14.08,20.74,-58.68,-992.35,43.75,-630.0,-385.0,1,94.364,
01/01/2000,01:12:14.09,20.74,-58.56,-992.47,157.50,-717.50,-402.50,1,94.372,
01/01/2000,01:12:14.10,20.74,-58.44,-992.59,183.75,-656.25,-358.75,1,94.380,
01/01/2000,01:12:14.11,20.74,-58.32,-992.59,113.75,-700.0,-297.50,1,94.388,
01/01/2000,01:12:14.12,20.74,-58.32,-992.59,70.0,-665.0,-350.0,1,94.397,
01/01/2000,01:12:14.13,20.74,-58.56,-992.59,113.75,-700.0,-218.75,1,94.405,
01/01/2000,01:12:14.14,20.74,-58.68,-992.59,236.25,-691.25,-341.25,1,94.278,
01/01/2000,01:12:14.15,20.86,-58.56,-992.59,280.0,-682.50,-350.0,1,94.286,
01/01/2000,01:12:14.16,20.86,-58.32,-992.59,192.50,-656.25,-280.0,1,94.294,
01/01/2000,01:12:14.17,20.86,-58.32,-992.59,175.0,-638.75,-332.50,1,94.302,
01/01/2000,01:12:14.18,20.86,-58.56,-992.59,70.0,-551.25,-315.0,1,94.310,
01/01/2000,01:12:14.19,20.98,-58.80,-992.59,131.25,-621.25,-428.75,1,94.318,
01/01/2000,01:12:14.21,20.98,-58.80,-992.71,105.0,-612.50,-323.75,1,94.326,
01/01/2000,01:12:14.22,20.98,-58.68,-992.71,210.0,-595.0,-306.25,1,94.334,
01/01/2000,01:12:14.23,20.86,-58.44,-992.59,105.0,-665.0,-323.75,1,94.342,
01/01/2000,01:12:14.24,20.74,-58.56,-992.59,201.25,-726.25,-315.0,1,94.350,
01/01/2000,01:12:14.25,20.74,-58.56,-992.47,236.25,-621.25,-306.25,1,94.358,
01/01/2000,01:12:14.26,20.86,-58.56,-992.47,210.0,-691.25,-323.75,1,94.366,
01/01/2000,01:12:14.27,20.62,-58.56,-992.59,140.0,-691.25,-280.0,1,94.374,
01/01/2000,01:12:14.28,20.62,-58.68,-992.59,175.0,-647.50,-288.75,1,94.250,
01/01/2000,01:12:14.29,20.74,-58.56,-992.59,175.0,-805.0,-271.25,1,94.258,
01/01/2000,01:12:14.30,20.74,-58.44,-992.59,245.0,-612.50,-341.25,1,94.266,
01/01/2000,01:12:14.31,20.98,-58.44,-992.71,201.25,-787.50,-297.50,1,94.274,
01/01/2000,01:12:14.33,20.86,-58.56,-992.84,96.25,-630.0,-323.75,1,94.282,
01/01/2000,01:12:14.34,20.98,-58.80,-992.84,0.0,-665.0,-350.0,1,94.290,
01/01/2000,01:12:14.35,20.98,-58.68,-992.71,201.25,-577.50,-402.50,1,94.298,
01/01/2000,01:12:14.36,20.98,-58.68,-992.71,166.25,-673.75,-297.50,1,94.306,
01/01/2000,01:12:14.37,20.98,-58.80,-992.84,131.25,-770.0,-297.50,1,94.313,
01/01/2000,01:12:14.38,20.98,-58.68,-992.84,157.50,-726.25,-350.0,1,94.321,
01/01/2000,01:12:14.39,21.11,-58.80,-992.84,157.50,-673.75,-315.0,1,94.329,
01/01/2000,01:12:14.40,21.11,-58.56,-992.71,78.75,-638.75,-227.50,1,94.337,
01/01/2000,01:12:14.41,20.98,-58.56,-992.47,201.25,-665.0,-358.75,1,94.345,
01/01/2000,01:12:14.42,20.86,-58.56,-992.47,113.75,-682.50,-350.0,1,94.353,
01/01/2000,01:12:14.43,20.98,-58.44,-992.47,70.0,-700.0,-341.25,1,94.360,
01/01/2000,01:12:14.44,20.98,-58.56,-992.71,271.25,-665.0,-332.50,1,94.368,
01/01/2000,01:12:14.45,20.98,-58.68,-992.84,113.75,-665.0,-271.25,1,94.376,
01/01/2000,01:12:14.46,20.98,-58.80,-992.84,87.50,-717.50,-393.75,1,94.384,
01/01/2000,01:12:14.47,21.11,-58.68,-992.84,52.50,-761.25,-245.0,1,94.391,
01/01/2000,01:12:14.48,21.11,-58.56,-992.84,183.75,-700.0,-385.0,1,94.399,
01/01/2000,01:12:14.49,20.98,-58.56,-992.96,332.50,-665.0,-350.0,1,94.278,
01/01/2000,01:12:14.50,20.98,-58.56,-992.84,140.0,-700.0,-350.0,1,94.286,
01/01/2000,01:12:14.51,20.98,-58.80,-992.84,253.75,-822.50,-341.25,1,94.293,
01/01/2000,01:12:14.52,20.86,-58.68,-992.84,210.0,-778.75,-341.25,1,94.301,
01/01/2000,01:12:14.53,20.74,-58.56,-992.96,113.75,-665.0,-341.25,1,94.309,
01/01/2000,01:12:14.54,20.74,-58.68,-992.96,306.25,-787.50,-315.0,1,94.317,
01/01/2000,01:12:14.55,20.86,-58.56,-992.84,218.75,-726.25,-280.0,1,94.324,
01/01/2000,01:12:14.57,20.98,-58.56,-992.84,157.50,-717.50,-367.50,1,94.332,
01/01/2000,01:12:14.58,20.98,-58.56,-992.71,201.25,-656.25,-358.75,1,94.340,
01/01/2000,01:12:14.59,20.98,-58.56,-992.47,105.0,-700.0,-236.25,1,94.347,
01/01/2000,01:12:14.60,20.86,-58.56,-992.59,192.50,-752.50,-376.25,1,94.355,
01/01/2000,01:12:14.61,20.86,-58.56,-992.59,78.75,-682.50,-332.50,1,94.362,
01/01/2000,01:12:14.62,20.86,-58.44,-992.59,43.75,-665.0,-323.75,1,94.370,
01/01/2000,01:12:14.63,20.86,-58.44,-992.47,192.50,-630.0,-376.25,1,94.378,
01/01/2000,01:12:14.64,20.86,-58.56,-992.47,140.0,-621.25,-306.25,1,94.385,
01/01/2000,01:12:14.65,20.98,-58.56,-992.47,157.50,-665.0,-315.0,1,94.393,
01/01/2000,01:12:14.66,20.98,-58.56,-992.59,245.0,-647.50,-332.50,1,94.400,
01/01/2000,01:12:14.67,20.98,-58.56,-992.59,157.50,-770.0,-280.0,1,94.407,
01/01/2000,01:12:14.68,20.86,-58.56,-992.71,192.50,-726.25,-297.50,1,94.415,
01/01/2000,01:12:14.69,20.98,-58.44,-992.71,87.50,-735.0,-376.25,1,94.422,
01/01/2000,01:12:14.70,20.98,-58.56,-992.59,105.0,-735.0,-323.75,1,94.305,
01/01/2000,01:12:14.71,20.98,-58.56,-992.59,122.50,-743.75,-306.25,1,94.312,
01/01/2000,01:12:14.72,20.86,-58.68,-992.71,105.0,-717.50,-446.25,1,94.320,
01/01/2000,01:12:14.73,20.86,-58.44,-992.84,35.0,-665.0,-341.25,1,94.327,
01/01/2000,01:12:14.74,20.86,-58.56,-992.96,140.0,-708.75,-385.0,1,94.335,
01/01/2000,01:12:14.75,20.86,-58.56,-992.96,148.75,-700.0,-350.0,1,94.342,
01/01/2000,01:12:14.76,20.86,-58.56,-992.84,122.50,-638.75,-280.0,1,94.350,
01/01/2000,01:12:14.78,20.86,-58.56,-992.96,183.75,-700.0,-271.25,1,94.357,
01/01/2000,01:12:14.79,20.86,-58.80,-993.08,315.0,-717.50,-332.50,1,94.364,
01/01/2000,01:12:14.80,20.98,-58.56,-993.20,140.0,-796.25,-323.75,1,94.372,
01/01/2000,01:12:14.81,20.98,-58.56,-993.08,96.25,-665.0,-332.50,1,94.379,
01/01/2000,01:12:14.82,20.98,-58.56,-992.96,96.25,-656.25,-315.0,1,94.386,
01/01/2000,01:12:14.83,20.98,-58.56,-992.84,157.50,-743.75,-376.25,1,94.271,
01/01/2000,01:12:14.85,21.23,-58.68,-992.96,227.50,-621.25,-332.50,1,94.278,
01/01/2000,01:12:14.85,21.11,-58.80,-992.96,166.25,-708.75,-297.50,1,94.286,
01/01/2000,01:12:14.87,20.98,-58.80,-992.84,183.75,-691.25,-385.0,1,94.293,
01/01/2000,01:12:14.88,20.98,-58.68,-992.59,157.50,-665.0,-481.25,1,94.301,
01/01/2000,01:12:14.89,20.98,-58.44,-992.71,201.25,-735.0,-393.75,1,94.308,
01/01/2000,01:12:14.90,20.98,-58.32,-992.84,166.25,-673.75,-271.25,1,94.315,
01/01/2000,01:12:14.91,20.98,-58.44,-992.84,35.0,-735.0,-306.25,1,94.323,
01/01/2000,01:12:14.92,21.11,-58.80,-992.96,131.25,-752.50,-446.25,1,94.330,
01/01/2000,01:12:14.93,20.98,-58.68,-992.84,61.25,-761.25,-315.0,1,94.337,
01/01/2000,01:12:14.94,20.98,-58.56,-992.96,175.0,-612.50,-315.0,1,94.344,
01/01/2000,01:12:14.95,20.98,-58.32,-993.08,245.0,-665.0,-350.0,1,94.352,
01/01/2000,01:12:14.96,20.98,-58.07,-993.20,-70.0,-630.0,-218.75,1,94.359,
01/01/2000,01:12:14.97,20.98,-58.19,-993.08,315.0,-752.50,-332.50,1,94.366,
01/01/2000,01:12:14.98,20.98,-58.32,-992.84,253.75,-603.75,-297.50,1,94.373,
01/01/2000,01:12:14.99,21.11,-58.56,-992.96,166.25,-752.50,-350.0,1,94.381,
01/01/2000,01:12:15.00,20.98,-58.56,-993.08,43.75,-708.75,-332.50,1,94.388,
01/01/2000,01:12:15.01,20.98,-58.44,-993.08,271.25,-717.50,-236.25,1,94.395,
01/01/2000,01:12:15.02,20.98,-58.44,-992.96,-35.0,-595.0,-323.75,1,94.402,
01/01/2000,01:12:15.03,20.74,-58.44,-992.84,87.50,-656.25,-271.25,1,94.409,
01/01/2000,01:12:15.04,20.74,-58.44,-992.96,210.0,-787.50,-402.50,1,94.416,
01/01/2000,01:12:15.05,20.98,-58.44,-993.08,131.25,-691.25,-323.75,1,94.304,
01/01/2000,01:12:15.06,20.98,-58.32,-992.96,245.0,-770.0,-271.25,1,94.311,
01/01/2000,01:12:15.07,20.74,-58.32,-992.71,306.25,-761.25,-315.0,1,94.318,
01/01/2000,01:12:15.08,20.62,-58.44,-992.71,61.25,-656.25,-385.0,1,94.325,
01/01/2000,01:12:15.09,20.74,-58.44,-992.84,271.25,-665.0,-358.75,1,94.332,
01/01/2000,01:12:15.10,20.74,-58.32,-993.08,157.50,-603.75,-315.0,1,94.340,
01/01/2000,01:12:15.12,20.74,-58.44,-992.96,157.50,-630.0,-262.50,1,94.347,
01/01/2000,01:12:15.13,20.62,-58.56,-992.84,113.75,-682.50,-393.75,1,94.354,
01/01/2000,01:12:15.14,20.50,-58.68,-992.71,175.0,-647.50,-341.25,1,94.361,
01/01/2000,01:12:15.15,20.74,-58.68,-992.96,245.0,-647.50,-358.75,1,94.368,
01/01/2000,01:12:15.16,20.86,-58.68,-992.96,210.0,-700.0,-341.25,1,94.375,
01/01/2000,01:12:15.17,20.86,-58.56,-992.96,140.0,-673.75,-393.75,1,94.382,
01/01/2000,01:12:15.18,20.74,-58.80,-992.96,140.0,-796.25,-437.50,1,94.389,
01/01/2000,01:12:15.19,20.74,-58.56,-993.08,140.0,-647.50,-393.75,1,94.396,
01/01/2000,01:12:15.20,20.86,-58.56,-992.96,166.25,-647.50,-367.50,1,94.286,
01/01/2000,01:12:15.21,20.98,-58.56,-992.84,17.50,-752.50,-297.50,1,94.293,
01/01/2000,01:12:15.22,20.98,-58.44,-992.84,210.0,-595.0,-341.25,1,94.300,
01/01/2000,01:12:15.23,20.86,-58.44,-993.08,131.25,-647.50,-271.25,1,94.307,
01/01/2000,01:12:15.24,20.74,-58.32,-993.08,166.25,-717.50,-271.25,1,94.314,
01/01/2000,01:12:15.25,20.98,-58.07,-993.20,280.0,-612.50,-376.25,1,94.321,
01/01/2000,01:12:15.27,21.23,-58.32,-993.08,192.50,-770.0,-358.75,1,94.328,
01/01/2000,01:12:15.28,21.11,-58.32,-992.96,192.50,-665.0,-288.75,1,94.335,
01/01/2000,01:12:15.29,20.98,-58.32,-992.71,131.25,-656.25,-446.25,1,94.342,
01/01/2000,01:12:15.30,20.98,-58.32,-992.84,105.0,-595.0,-420.0,1,94.349,
01/01/2000,01:12:15.31,20.98,-58.19,-992.96,96.25,-761.25,-218.75,1,94.356,
01/01/2000,01:12:15.32,20.98,-58.32,-992.96,113.75,-761.25,-297.50,1,94.363,
01/01/2000,01:12:15.33,20.86,-58.32,-992.84,113.75,-542.50,-358.75,1,94.370,
01/01/2000,01:12:15.34,20.86,-58.32,-992.84,192.50,-621.25,-306.25,1,94.261,
01/01/2000,01:12:15.36,20.98,-58.32,-992.84,148.75,-717.50,-332.50,1,94.268,
01/01/2000,01:12:15.37,20.74,-58.32,-992.84,183.75,-673.75,-358.75,1,94.275,
01/01/2000,01:12:15.38,20.74,-58.19,-992.71,157.50,-726.25,-323.75,1,94.282,
01/01/2000,01:12:15.39,20.74,-58.32,-992.59,175.0,-770.0,-332.50,1,94.289,
01/01/2000,01:12:15.40,20.74,-58.19,-992.84,157.50,-752.50,-280.0,1,94.296,
01/01/2000,01:12:15.41,20.74,-58.32,-992.96,183.75,-638.75,-393.75,1,94.303,
01/01/2000,01:12:15.42,20.86,-58.32,-993.08,96.25,-665.0,-253.75,1,94.310,
01/01/2000,01:12:15.43,20.86,-58.32,-992.84,192.50,-708.75,-341.25,1,94.317,
01/01/2000,01:12:15.44,20.74,-58.07,-992.71,245.0,-778.75,-315.0,1,94.324,
01/01/2000,01:12:15.45,20.74,-58.07,-992.59,131.25,-665.0,-402.50,1,94.331,
01/01/2000,01:12:15.46,20.74,-58.32,-992.71,262.50,-691.25,-385.0,1,94.337,
01/01/2000,01:12:15.47,20.86,-58.19,-992.84,113.75,-638.75,-297.50,1,94.344,
01/01/2000,01:12:15.48,20.74,-58.32,-992.84,201.25,-691.25,-367.50,1,94.351,
01/01/2000,01:12:15.49,20.62,-58.44,-992.71,26.25,-743.75,-358.75,1,94.358,
01/01/2000,01:12:15.50,20.74,-58.44,-992.59,166.25,-700.0,-411.25,1,94.365,
01/01/2000,01:12:15.51,20.74,-58.56,-992.84,113.75,-726.25,-245.0,1,94.371,
01/01/2000,01:12:15.52,20.74,-58.32,-992.96,131.25,-787.50,-236.25,1,94.378,
01/01/2000,01:12:15.53,20.74,-58.44,-992.84,122.50,-770.0,-455.0,1,94.385,
01/01/2000,01:12:15.54,20.62,-58.44,-992.84,201.25,-770.0,-358.75,1,94.391,
01/01/2000,01:12:15.55,20.74,-58.44,-992.71,70.0,-743.75,-253.75,1,94.398,
01/01/2000,01:12:15.56,20.98,-58.56,-992.84,280.0,-665.0,-385.0,1,94.405,
01/01/2000,01:12:15.57,20.98,-58.68,-993.08,148.75,-673.75,-297.50,1,94.411,
01/01/2000,01:12:15.58,20.86,-58.93,-993.08,70.0,-743.75,-280.0,1,94.418,
01/01/2000,01:12:15.59,20.74,-58.80,-992.84,166.25,-813.75,-376.25,1,94.425,
01/01/2000,01:12:15.60,20.74,-58.68,-992.96,297.50,-805.0,-428.75,1,94.431,
01/01/2000,01:12:15.61,20.74,-58.56,-992.96,183.75,-743.75,-358.75,1,94.438,
01/01/2000,01:12:15.63,20.74,-58.56,-992.96,175.0,-577.50,-376.25,1,94.333,
01/01/2000,01:12:15.64,20.74,-58.56,-992.96,218.75,-630.0,-315.0,1,94.340,
01/01/2000,01:12:15.65,20.62,-58.68,-992.96,236.25,-778.75,-367.50,1,94.346,
01/01/2000,01:12:15.66,20.74,-58.56,-992.84,227.50,-700.0,-358.75,1,94.353,
01/01/2000,01:12:15.67,20.74,-58.56,-992.71,210.0,-691.25,-253.75,1,94.360,
01/01/2000,01:12:15.68,20.86,-58.56,-992.84,253.75,-665.0,-350.0,1,94.366,
01/01/2000,01:12:15.69,20.74,-58.56,-992.84,78.75,-700.0,-262.50,1,94.373,
01/01/2000,01:12:15.70,20.74,-58.68,-992.96,175.0,-743.75,-332.50,1,94.379,
01/01/2000,01:12:15.71,20.50,-58.80,-993.08,262.50,-621.25,-402.50,1,94.386,
01/01/2000,01:12:15.72,20.62,-58.68,-992.84,105.0,-621.25,-385.0,1,94.393,
01/01/2000,01:12:15.73,20.74,-58.56,-992.71,210.0,-787.50,-332.50,1,94.399,
01/01/2000,01:12:15.74,20.74,-58.44,-992.59,166.25,-726.25,-288.75,1,94.406,
01/01/2000,01:12:15.75,20.50,-58.56,-992.59,148.75,-761.25,-323.75,1,94.412,
01/01/2000,01:12:15.76,20.50,-58.56,-992.59,166.25,-612.50,-332.50,1,94.309,
01/01/2000,01:12:15.77,20.74,-58.56,-992.71,157.50,-796.25,-262.50,1,94.316,
01/01/2000,01:12:15.78,20.98,-58.56,-992.84,227.50,-778.75,-306.25,1,94.322,
01/01/2000,01:12:15.79,20.86,-58.68,-992.71,175.0,-752.50,-245.0,1,94.329,
01/01/2000,01:12:15.80,20.74,-58.68,-992.59,105.0,-673.75,-280.0,1,94.335,
01/01/2000,01:12:15.81,20.74,-58.56,-992.71,227.50,-752.50,-315.0,1,94.342,
01/01/2000,01:12:15.82,20.86,-58.44,-992.84,78.75,-656.25,-367.50,1,94.348,
01/01/2000,01:12:15.84,20.86,-58.32,-992.71,140.0,-726.25,-367.50,1,94.355,
01/01/2000,01:12:15.85,20.98,-58.56,-992.59,113.75,-700.0,-332.50,1,94.361,
01/01/2000,01:12:15.86,20.98,-58.56,-992.84,175.0,-647.50,-306.25,1,94.259,
01/01/2000,01:12:15.87,20.86,-58.44,-992.96,183.75,-700.0,-332.50,1,94.266,
01/01/2000,01:12:15.88,20.98,-58.19,-992.96,131.25,-796.25,-420.0,1,94.273,
01/01/2000,01:12:15.89,20.98,-58.19,-992.71,157.50,-700.0,-253.75,1,94.279,
01/01/2000,01:12:15.90,20.98,-58.32,-992.59,227.50,-708.75,-323.75,1,94.286,
01/01/2000,01:12:15.91,20.98,-58.56,-992.59,131.25,-665.0,-297.50,1,94.292,
01/01/2000,01:12:15.92,21.11,-58.56,-992.59,87.50,-743.75,-341.25,1,94.299,
01/01/2000,01:12:15.93,20.98,-58.56,-992.71,113.75,-647.50,-350.0,1,94.305,
01/01/2000,01:12:15.94,20.98,-58.44,-992.59,288.75,-691.25,-323.75,1,94.312,
01/01/2000,01:12:15.95,20.98,-58.44,-992.59,148.75,-770.0,-358.75,1,94.318,
01/01/2000,01:12:15.96,20.98,-58.32,-992.59,96.25,-787.50,-280.0,1,94.325,
01/01/2000,01:12:15.98,21.23,-58.44,-992.71,166.25,-603.75,-376.25,1,94.331,
01/01/2000,01:12:15.99,21.23,-58.44,-992.71,70.0,-805.0,-271.25,1,94.337,
01/01/2000,01:12:16.00,21.23,-58.44,-992.71,210.0,-612.50,-402.50,1,94.344,
01/01/2000,01:12:16.01,20.86,-58.56,-992.59,140.0,-595.0,-341.25,1,94.350,
01/01/2000,01:12:16.02,20.86,-58.56,-992.59,166.25,-761.25,-367.50,1,94.357,
01/01/2000,01:12:16.03,20.86,-58.56,-992.84,192.50,-630.0,-437.50,1,94.363,
01/01/2000,01:12:16.04,20.98,-58.44,-993.08,140.0,-630.0,-280.0,1,94.369,
01/01/2000,01:12:16.05,20.98,-58.56,-993.08,227.50,-665.0,-350.0,1,94.376,
01/01/2000,01:12:16.06,20.98,-58.56,-992.84,140.0,-682.50,-332.50,1,94.382,
01/01/2000,01:12:16.07,21.11,-58.80,-992.96,192.50,-717.50,-315.0,1,94.388,
01/01/2000,01:12:16.08,20.98,-58.68,-993.08,61.25,-682.50,-367.50,1,94.395,
01/01/2000,01:12:16.09,20.98,-58.56,-993.08,43.75,-770.0,-411.25,1,94.401,
01/01/2000,01:12:16.10,20.98,-58.44,-993.08,131.25,-770.0,-288.75,1,94.407,
01/01/2000,01:12:16.11,20.98,-58.56,-992.84,148.75,-761.25,-385.0,1,94.308,
01/01/2000,01:12:16.12,20.98,-58.56,-992.84,183.75,-778.75,-280.0,1,94.314,
01/01/2000,01:12:16.13,20.98,-58.56,-992.84,271.25,-603.75,-323.75,1,94.321,
01/01/2000,01:12:16.14,20.98,-58.44,-992.84,175.0,-665.0,-306.25,1,94.327,
01/01/2000,01:12:16.15,20.74,-58.56,-992.84,183.75,-726.25,-393.75,1,94.333,
01/01/2000,01:12:16.16,20.74,-58.44,-992.96,210.0,-665.0,-350.0,1,94.340,
01/01/2000,01:12:16.17,20.74,-58.44,-992.96,157.50,-621.25,-358.75,1,94.346,
01/01/2000,01:12:16.19,20.74,-58.44,-993.08,131.25,-603.75,-358.75,1,94.352,
01/01/2000,01:12:16.20,20.74,-58.44,-992.96,201.25,-735.0,-393.75,1,94.358,
01/01/2000,01:12:16.21,20.86,-58.56,-992.84,262.50,-691.25,-393.75,1,94.365,
01/01/2000,01:12:16.22,20.98,-58.44,-992.84,148.75,-621.25,-358.75,1,94.371,
01/01/2000,01:12:16.23,20.98,-58.32,-992.96,192.50,-735.0,-323.75,1,94.377,
01/01/2000,01:12:16.24,20.74,-58.32,-992.96,192.50,-673.75,-376.25,1,94.383,
01/01/2000,01:12:16.25,20.74,-58.32,-992.84,105.0,-708.75,-288.75,1,94.389,
01/01/2000,01:12:16.26,20.86,-58.56,-992.71,236.25,-656.25,-385.0,1,94.396,
01/01/2000,01:12:16.27,20.98,-58.68,-992.59,297.50,-700.0,-323.75,1,94.402,
01/01/2000,01:12:16.28,20.98,-58.80,-992.23,61.25,-595.0,-358.75,1,94.304,
01/01/2000,01:12:16.29,20.62,-58.56,-992.23,245.0,-708.75,-297.50,1,94.414,
01/01/2000,01:12:16.30,20.50,-58.32,-992.35,122.50,-752.50,-323.75,1,94.317,
01/01/2000,01:12:16.31,20.74,-58.44,-992.35,43.75,-647.50,-306.25,1,94.323,
01/01/2000,01:12:16.33,20.98,-58.44,-992.59,157.50,-630.0,-332.50,1,94.329,
01/01/2000,01:12:16.34,20.86,-58.56,-992.35,140.0,-700.0,-376.25,1,94.336,
01/01/2000,01:12:16.35,20.98,-58.44,-992.10,210.0,-638.75,-297.50,1,94.342,
01/01/2000,01:12:16.36,20.98,-58.07,-992.35,131.25,-595.0,-262.50,1,94.245,
01/01/2000,01:12:16.37,20.86,-58.07,-992.35,201.25,-708.75,-332.50,1,94.252,
01/01/2000,01:12:16.38,20.74,-58.32,-992.23,113.75,-612.50,-385.0,1,94.258,
01/01/2000,01:12:16.39,20.74,-58.44,-992.23,218.75,-778.75,-402.50,1,94.264,
01/01/2000,01:12:16.41,20.86,-58.32,-992.35,113.75,-770.0,-358.75,1,94.270,
01/01/2000,01:12:16.42,20.98,-58.32,-992.35,288.75,-638.75,-271.25,1,94.276,
01/01/2000,01:12:16.43,20.74,-58.32,-992.23,166.25,-673.75,-271.25,1,94.283,
01/01/2000,01:12:16.44,20.50,-58.32,-992.35,245.0,-673.75,-367.50,1,94.289,
01/01/2000,01:12:16.45,20.62,-58.32,-992.59,140.0,-665.0,-358.75,1,94.295,
01/01/2000,01:12:16.46,20.74,-58.32,-992.59,175.0,-621.25,-341.25,1,94.301,
01/01/2000,01:12:16.47,20.98,-58.32,-992.84,122.50,-796.25,-271.25,1,94.307,
01/01/2000,01:12:16.48,20.86,-58.56,-992.59,157.50,-638.75,-411.25,1,94.313,
01/01/2000,01:12:16.49,20.74,-58.44,-992.59,192.50,-673.75,-420.0,1,94.319,
01/01/2000,01:12:16.50,20.98,-58.32,-992.59,96.25,-708.75,-341.25,1,94.325,
01/01/2000,01:12:16.51,21.11,-58.19,-992.71,105.0,-595.0,-341.25,1,94.332,
01/01/2000,01:12:16.52,20.98,-58.32,-992.71,140.0,-761.25,-341.25,1,94.338,
01/01/2000,01:12:16.53,20.86,-58.56,-992.71,236.25,-735.0,-306.25,1,94.344,
01/01/2000,01:12:16.54,20.86,-58.80,-992.59,140.0,-682.50,-350.0,1,94.350,
01/01/2000,01:12:16.55,20.86,-58.56,-992.71,140.0,-726.25,-385.0,1,94.356,
01/01/2000,01:12:16.56,20.98,-58.56,-992.84,358.75,-770.0,-376.25,1,94.362,
01/01/2000,01:12:16.57,20.98,-58.44,-992.84,148.75,-787.50,-358.75,1,94.368,
01/01/2000,01:12:16.58,20.86,-58.44,-992.71,113.75,-673.75,-253.75,1,94.374,
01/01/2000,01:12:16.59,20.86,-58.56,-992.59,70.0,-735.0,-332.50,1,94.380,
01/01/2000,01:12:16.60,20.86,-58.56,-992.59,271.25,-647.50,-376.25,1,94.386,
01/01/2000,01:12:16.61,20.98,-58.56,-992.59,148.75,-813.75,-271.25,1,94.292,
01/01/2000,01:12:16.62,20.86,-58.44,-992.47,157.50,-770.0,-332.50,1,94.298,
01/01/2000,01:12:16.63,20.86,-58.44,-992.47,131.25,-726.25,-350.0,1,94.304,
01/01/2000,01:12:16.64,20.98,-58.32,-992.59,166.25,-568.75,-367.50,1,94.310,
01/01/2000,01:12:16.65,20.98,-58.44,-992.84,148.75,-840.0,-315.0,1,94.316,
01/01/2000,01:12:16.66,21.23,-58.56,-992.71,227.50,-708.75,-420.0,1,94.322,
01/01/2000,01:12:16.68,20.98,-58.56,-992.47,105.0,-752.50,-402.50,1,94.328,
01/01/2000,01:12:16.69,20.86,-58.56,-992.35,70.0,-638.75,-306.25,1,94.334,
01/01/2000,01:12:16.70,20.86,-58.56,-992.47,122.50,-665.0,-367.50,1,94.340,
01/01/2000,01:12:16.71,20.98,-58.44,-992.71,113.75,-647.50,-420.0,1,94.346,
01/01/2000,01:12:16.72,20.98,-58.32,-992.84,131.25,-735.0,-332.50,1,94.351,
01/01/2000,01:12:16.73,20.98,-58.56,-992.71,227.50,-630.0,-271.25,1,94.357,
01/01/2000,01:12:16.74,20.74,-58.56,-992.59,297.50,-726.25,-315.0,1,94.363,
01/01/2000,01:12:16.75,20.86,-58.44,-992.59,271.25,-621.25,-210.0,1,94.369,
01/01/2000,01:12:16.76,20.98,-58.32,-992.71,210.0,-621.25,-428.75,1,94.375,
01/01/2000,01:12:16.77,20.98,-58.32,-992.84,183.75,-717.50,-376.25,1,94.381,
01/01/2000,01:12:16.78,20.98,-58.32,-992.71,166.25,-673.75,-332.50,1,94.387,
01/01/2000,01:12:16.79,20.86,-58.44,-992.59,210.0,-595.0,-332.50,1,94.393,
01/01/2000,01:12:16.80,20.74,-58.56,-992.71,201.25,-700.0,-367.50,1,94.398,
01/01/2000,01:12:16.81,20.86,-58.56,-992.59,175.0,-673.75,-376.25,1,94.404,
01/01/2000,01:12:16.82,20.74,-58.56,-992.59,131.25,-770.0,-358.75,1,94.312,
01/01/2000,01:12:16.83,20.50,-58.44,-992.35,306.25,-770.0,-280.0,1,94.318,
01/01/2000,01:12:16.85,20.62,-58.44,-992.35,253.75,-665.0,-341.25,1,94.324,
01/01/2000,01:12:16.85,20.86,-58.44,-992.47,70.0,-630.0,-367.50,1,94.330,
01/01/2000,01:12:16.87,20.98,-58.56,-992.47,218.75,-805.0,-288.75,1,94.336,
01/01/2000,01:12:16.88,20.86,-58.56,-992.35,105.0,-700.0,-288.75,1,94.342,
01/01/2000,01:12:16.89,20.74,-58.44,-992.35,113.75,-770.0,-393.75,1,94.251,
01/01/2000,01:12:16.90,20.86,-58.32,-992.59,113.75,-577.50,-350.0,1,94.353,
01/01/2000,01:12:16.91,20.86,-58.07,-992.71,87.50,-726.25,-280.0,1,94.262,
01/01/2000,01:12:16.92,20.86,-58.32,-992.71,113.75,-673.75,-280.0,1,94.268,
01/01/2000,01:12:16.93,20.86,-58.44,-992.59,87.50,-743.75,-350.0,1,94.274,
01/01/2000,01:12:16.94,20.86,-58.56,-992.47,262.50,-682.50,-455.0,1,94.280,
01/01/2000,01:12:16.95,20.86,-58.56,-992.47,183.75,-743.75,-350.0,1,94.286,
01/01/2000,01:12:16.96,20.74,-58.32,-992.59,210.0,-612.50,-306.25,1,94.292,
01/01/2000,01:12:16.97,20.62,-58.32,-992.59,210.0,-752.50,-358.75,1,94.297,
01/01/2000,01:12:16.98,20.62,-58.19,-992.59,148.75,-717.50,-271.25,1,94.303,
01/01/2000,01:12:16.99,20.74,-58.32,-992.47,148.75,-735.0,-358.75,1,94.309,
01/01/2000,01:12:17.00,20.74,-58.32,-992.47,140.0,-673.75,-393.75,1,94.315,
01/01/2000,01:12:17.01,20.74,-58.32,-992.47,87.50,-752.50,-271.25,1,94.320,
01/01/2000,01:12:17.02,20.62,-58.32,-992.35,262.50,-665.0,-315.0,1,94.326,
01/01/2000,01:12:17.04,20.74,-58.07,-992.47,218.75,-770.0,-280.0,1,94.332,
01/01/2000,01:12:17.05,20.74,-58.19,-992.47,245.0,-568.75,-385.0,1,94.338,
01/01/2000,01:12:17.06,20.74,-58.07,-992.59,70.0,-831.25,-385.0,1,94.343,
01/01/2000,01:12:17.07,20.86,-58.19,-992.35,175.0,-726.25,-402.50,1,94.349,
01/01/2000,01:12:17.08,20.86,-58.32,-992.23,253.75,-647.50,-350.0,1,94.355,
01/01/2000,01:12:17.09,20.86,-58.32,-992.10,61.25,-682.50,-315.0,1,94.361,
01/01/2000,01:12:17.10,20.74,-58.44,-992.10,183.75,-656.25,-393.75,1,94.366,
01/01/2000,01:12:17.11,20.86,-58.44,-992.35,96.25,-743.75,-306.25,1,94.372,
01/01/2000,01:12:17.12,21.11,-58.44,-992.59,113.75,-621.25,-358.75,1,94.378,
01/01/2000,01:12:17.13,21.11,-58.56,-992.47,166.25,-603.75,-350.0,1,94.383,
01/01/2000,01:12:17.14,21.23,-58.80,-992.10,105.0,-726.25,-393.75,1,94.389,
01/01/2000,01:12:17.15,20.98,-58.80,-991.86,131.25,-743.75,-455.0,1,94.394,
01/01/2000,01:12:17.16,20.98,-58.80,-991.98,192.50,-717.50,-358.75,1,94.400,
01/01/2000,01:12:17.18,21.23,-58.44,-992.47,175.0,-717.50,-306.25,1,94.311,
01/01/2000,01:12:17.19,20.98,-58.44,-992.59,148.75,-656.25,-332.50,1,94.317,
01/01/2000,01:12:17.20,20.98,-58.68,-992.47,157.50,-691.25,-358.75,1,94.323,
01/01/2000,01:12:17.21,20.98,-58.80,-992.35,280.0,-665.0,-297.50,1,94.328,
01/01/2000,01:12:17.22,21.23,-58.68,-992.23,166.25,-708.75,-245.0,1,94.334,
01/01/2000,01:12:17.23,21.23,-58.80,-992.23,175.0,-612.50,-323.75,1,94.340,
01/01/2000,01:12:17.24,20.98,-58.80,-992.35,140.0,-735.0,-385.0,1,94.345,
01/01/2000,01:12:17.25,20.86,-58.68,-992.59,280.0,-770.0,-367.50,1,94.351,
01/01/2000,01:12:17.26,21.11,-58.56,-992.71,61.25,-656.25,-288.75,1,94.356,
01/01/2000,01:12:17.27,21.23,-58.56,-992.59,271.25,-551.25,-341.25,1,94.362,
01/01/2000,01:12:17.28,21.23,-58.56,-992.35,78.75,-673.75,-428.75,1,94.368,
01/01/2000,01:12:17.29,20.86,-58.80,-992.10,78.75,-770.0,-385.0,1,94.373,
01/01/2000,01:12:17.30,20.98,-58.68,-992.35,17.50,-621.25,-315.0,1,94.379,
01/01/2000,01:12:17.31,21.11,-58.32,-992.71,245.0,-621.25,-323.75,1,94.291,
01/01/2000,01:12:17.32,21.11,-58.07,-992.71,183.75,-682.50,-236.25,1,94.297,
01/01/2000,01:12:17.33,20.98,-57.95,-992.35,96.25,-673.75,-253.75,1,94.303,
01/01/2000,01:12:17.34,20.98,-58.32,-992.35,315.0,-743.75,-262.50,1,94.308,
01/01/2000,01:12:17.35,21.11,-58.56,-992.35,105.0,-761.25,-358.75,1,94.314,
01/01/2000,01:12:17.36,21.35,-58.68,-992.59,122.50,-717.50,-411.25,1,94.319,
01/01/2000,01:12:17.37,21.35,-58.56,-992.59,297.50,-691.25,-385.0,1,94.325,
01/01/2000,01:12:17.39,21.11,-58.07,-992.35,122.50,-717.50,-297.50,1,94.330,
01/01/2000,01:12:17.40,21.11,-58.07,-992.47,105.0,-621.25,-262.50,1,94.244,
01/01/2000,01:12:17.41,21.11,-58.32,-992.59,43.75,-700.0,-376.25,1,94.250,
01/01/2000,01:12:17.42,21.23,-58.56,-992.59,148.75,-638.75,-411.25,1,94.255,
01/01/2000,01:12:17.43,20.98,-58.68,-992.47,288.75,-770.0,-306.25,1,94.261,
01/01/2000,01:12:17.44,20.74,-58.56,-992.47,183.75,-735.0,-385.0,1,94.266,
01/01/2000,01:12:17.45,20.74,-58.44,-992.71,148.75,-708.75,-315.0,1,94.272,
01/01/2000,01:12:17.46,20.74,-58.44,-992.84,96.25,-761.25,-306.25,1,94.277,
01/01/2000,01:12:17.47,20.74,-58.32,-992.84,280.0,-595.0,-367.50,1,94.283,
01/01/2000,01:12:17.48,20.74,-58.32,-992.35,183.75,-735.0,-271.25,1,94.288,
01/01/2000,01:12:17.49,20.86,-58.44,-992.10,175.0,-735.0,-463.75,1,94.294,
01/01/2000,01:12:17.50,20.86,-58.56,-992.23,166.25,-778.75,-306.25,1,94.300,
01/01/2000,01:12:17.51,20.74,-58.56,-992.35,262.50,-735.0,-297.50,1,94.305,
01/01/2000,01:12:17.53,20.74,-58.32,-992.59,218.75,-717.50,-367.50,1,94.311,
01/01/2000,01:12:17.54,20.74,-58.19,-992.47,148.75,-665.0,-350.0,1,94.316,
01/01/2000,01:12:17.55,20.74,-58.07,-992.23,218.75,-726.25,-175.0,1,94.321,
01/01/2000,01:12:17.56,20.74,-58.19,-992.10,210.0,-743.75,-297.50,1,94.327,
01/01/2000,01:12:17.57,20.86,-58.32,-992.35,183.75,-822.50,-297.50,1,94.332,
01/01/2000,01:12:17.58,20.98,-58.44,-992.47,140.0,-796.25,-376.25,1,94.338,
01/01/2000,01:12:17.59,20.86,-58.44,-992.59,262.50,-708.75,-385.0,1,94.343,
01/01/2000,01:12:17.60,20.74,-58.07,-992.35,87.50,-717.50,-315.0,1,94.349,
01/01/2000,01:12:17.61,20.74,-58.07,-992.35,78.75,-726.25,-288.75,1,94.354,
01/01/2000,01:12:17.62,20.74,-58.07,-992.35,201.25,-682.50,-323.75,1,94.359,
01/01/2000,01:12:17.63,20.74,-58.07,-992.23,227.50,-603.75,-323.75,1,94.365,
01/01/2000,01:12:17.64,20.86,-58.32,-992.23,113.75,-708.75,-297.50,1,94.370,
01/01/2000,01:12:17.65,20.86,-58.56,-992.23,87.50,-700.0,-350.0,1,94.376,
01/01/2000,01:12:17.66,20.98,-58.56,-992.47,148.75,-542.50,-341.25,1,94.381,
01/01/2000,01:12:17.67,20.98,-58.44,-992.59,148.75,-586.25,-280.0,1,94.386,
01/01/2000,01:12:17.68,21.11,-58.44,-992.47,70.0,-735.0,-332.50,1,94.392,
01/01/2000,01:12:17.69,20.86,-58.68,-992.35,218.75,-717.50,-315.0,1,94.397,
01/01/2000,01:12:17.70,20.62,-58.68,-992.10,253.75,-595.0,-350.0,1,94.402,
01/01/2000,01:12:17.71,20.74,-58.56,-992.10,183.75,-726.25,-498.75,1,94.408,
01/01/2000,01:12:17.72,20.74,-58.44,-992.35,105.0,-691.25,-332.50,1,94.413,
01/01/2000,01:12:17.73,20.74,-58.32,-992.59,175.0,-752.50,-350.0,1,94.329,
01/01/2000,01:12:17.75,20.74,-58.56,-992.71,140.0,-603.75,-323.75,1,94.334,
01/01/2000,01:12:17.76,20.86,-58.56,-992.84,218.75,-735.0,-332.50,1,94.340,
01/01/2000,01:12:17.77,21.11,-58.56,-992.71,70.0,-656.25,-227.50,1,94.345,
01/01/2000,01:12:17.78,20.98,-58.68,-992.59,201.25,-533.75,-376.25,1,94.350,
01/01/2000,01:12:17.79,20.74,-58.80,-992.35,183.75,-770.0,-350.0,1,94.356,
01/01/2000,01:12:17.80,20.62,-58.56,-992.10,96.25,-691.25,-245.0,1,94.361,
01/01/2000,01:12:17.81,20.74,-58.32,-992.47,70.0,-735.0,-245.0,1,94.366,
01/01/2000,01:12:17.82,20.86,-58.32,-992.84,140.0,-787.50,-183.75,1,94.371,
01/01/2000,01:12:17.83,20.98,-58.56,-993.08,122.50,-647.50,-358.75,1,94.377,
01/01/2000,01:12:17.84,21.11,-58.93,-992.84,166.25,-708.75,-402.50,1,94.382,
01/01/2000,01:12:17.85,21.11,-59.05,-992.59,87.50,-673.75,-341.25,1,94.387,
01/01/2000,01:12:17.86,21.23,-58.80,-992.47,183.75,-770.0,-411.25,1,94.393,
01/01/2000,01:12:17.87,21.23,-58.56,-992.47,210.0,-638.75,-393.75,1,94.310,
01/01/2000,01:12:17.88,20.98,-58.44,-992.35,87.50,-630.0,-332.50,1,94.315,
01/01/2000,01:12:17.89,20.86,-58.56,-992.23,271.25,-735.0,-288.75,1,94.320,
01/01/2000,01:12:17.91,20.98,-58.56,-992.23,43.75,-735.0,-271.25,1,94.326,
01/01/2000,01:12:17.92,20.98,-58.68,-992.35,96.25,-665.0,-358.75,1,94.331,
01/01/2000,01:12:17.93,20.98,-58.56,-992.59,131.25,-647.50,-385.0,1,94.336,
01/01/2000,01:12:17.94,20.98,-58.44,-992.47,70.0,-743.75,-323.75,1,94.341,
01/01/2000,01:12:17.95,21.11,-58.19,-992.47,70.0,-647.50,-271.25,1,94.347,
01/01/2000,01:12:17.96,21.23,-58.07,-992.59,148.75,-726.25,-315.0,1,94.352,
01/01/2000,01:12:17.97,21.23,-58.56,-992.35,227.50,-691.25,-262.50,1,94.357,
01/01/2000,01:12:17.98,20.98,-58.80,-992.23,218.75,-700.0,-358.75,1,94.362,
01/01/2000,01:12:17.99,20.50,-58.80,-992.47,131.25,-735.0,-420.0,1,94.368,
01/01/2000,01:12:18.00,20.62,-58.56,-992.59,227.50,-770.0,-350.0,1,94.373,
01/01/2000,01:12:18.01,20.74,-58.07,-992.96,280.0,-708.75,-280.0,1,94.378,
01/01/2000,01:12:18.02,20.86,-58.19,-992.84,183.75,-726.25,-262.50,1,94.383,
01/01/2000,01:12:18.03,20.74,-58.44,-992.59,166.25,-743.75,-323.75,1,94.388,
01/01/2000,01:12:18.04,20.74,-58.80,-992.47,131.25,-743.75,-393.75,1,94.393,
01/01/2000,01:12:18.05,20.86,-58.80,-992.59,192.50,-700.0,-393.75,1,94.399,
01/01/2000,01:12:18.06,21.11,-58.68,-992.71,210.0,-717.50,-402.50,1,94.404,
01/01/2000,01:12:18.07,21.23,-58.32,-992.59,96.25,-665.0,-271.25,1,94.409,
01/01/2000,01:12:18.08,20.86,-58.32,-992.47,122.50,-665.0,-306.25,1,94.414,
01/01/2000,01:12:18.10,20.74,-58.32,-992.59,210.0,-665.0,-332.50,1,94.333,
01/01/2000,01:12:18.11,20.74,-58.44,-992.59,201.25,-647.50,-393.75,1,94.338,
01/01/2000,01:12:18.12,20.98,-58.68,-992.59,78.75,-682.50,-323.75,1,94.343,
01/01/2000,01:12:18.13,20.98,-58.68,-992.59,245.0,-805.0,-271.25,1,94.348,
01/01/2000,01:12:18.14,20.74,-58.56,-992.47,175.0,-796.25,-271.25,1,94.353,
01/01/2000,01:12:18.15,20.86,-58.44,-992.59,140.0,-726.25,-288.75,1,94.359,
01/01/2000,01:12:18.16,20.98,-58.07,-992.59,253.75,-603.75,-280.0,1,94.364,
01/01/2000,01:12:18.17,20.86,-58.32,-992.47,218.75,-726.25,-297.50,1,94.369,
01/01/2000,01:12:18.18,20.50,-58.44,-992.35,166.25,-761.25,-402.50,1,94.374,
01/01/2000,01:12:18.19,20.50,-58.56,-992.10,96.25,-735.0,-323.75,1,94.379,
01/01/2000,01:12:18.20,20.74,-58.56,-992.10,192.50,-726.25,-437.50,1,94.384,
01/01/2000,01:12:18.21,20.86,-58.44,-992.35,96.25,-682.50,-227.50,1,94.389,
01/01/2000,01:12:18.22,20.86,-58.44,-992.35,131.25,-787.50,-323.75,1,94.394,
01/01/2000,01:12:18.23,20.74,-58.56,-992.10,201.25,-770.0,-315.0,1,94.314,
01/01/2000,01:12:18.24,20.86,-58.56,-992.35,271.25,-796.25,-402.50,1,94.319,
01/01/2000,01:12:18.25,20.98,-58.56,-992.59,131.25,-831.25,-341.25,1,94.324,
01/01/2000,01:12:18.26,21.23,-58.56,-992.71,78.75,-586.25,-236.25,1,94.329,
01/01/2000,01:12:18.27,20.98,-58.80,-992.59,227.50,-673.75,-376.25,1,94.335,
01/01/2000,01:12:18.28,20.86,-58.80,-992.47,166.25,-717.50,-411.25,1,94.340,
01/01/2000,01:12:18.30,20.74,-58.80,-992.47,183.75,-761.25,-420.0,1,94.345,
01/01/2000,01:12:18.31,20.86,-58.32,-992.47,157.50,-735.0,-315.0,1,94.350,
01/01/2000,01:12:18.32,20.98,-58.32,-992.35,113.75,-743.75,-315.0,1,94.355,
01/01/2000,01:12:18.33,20.86,-58.32,-992.47,131.25,-717.50,-271.25,1,94.360,
01/01/2000,01:12:18.34,20.74,-58.68,-992.71,87.50,-717.50,-306.25,1,94.365,
01/01/2000,01:12:18.35,20.74,-58.68,-992.96,157.50,-761.25,-376.25,1,94.370,
01/01/2000,01:12:18.36,20.86,-58.56,-992.84,148.75,-691.25,-332.50,1,94.375,
01/01/2000,01:12:18.37,20.98,-58.32,-992.59,43.75,-638.75,-315.0,1,94.380,
01/01/2000,01:12:18.38,20.74,-58.44,-992.35,166.25,-647.50,-315.0,1,94.385,
01/01/2000,01:12:18.39,20.74,-58.44,-992.23,113.75,-682.50,-297.50,1,94.390,
01/01/2000,01:12:18.40,20.74,-58.44,-992.35,262.50,-673.75,-306.25,1,94.395,
01/01/2000,01:12:18.42,20.74,-58.19,-992.71,201.25,-700.0,-385.0,1,94.316,
01/01/2000,01:12:18.43,20.86,-58.32,-992.84,0.0,-673.75,-358.75,1,94.321,
01/01/2000,01:12:18.44,20.86,-58.68,-992.84,140.0,-647.50,-341.25,1,94.326,
01/01/2000,01:12:18.45,20.86,-58.80,-992.71,87.50,-533.75,-350.0,1,94.331,
01/01/2000,01:12:18.46,20.74,-58.80,-992.71,166.25,-717.50,-358.75,1,94.336,
01/01/2000,01:12:18.47,20.98,-58.56,-992.71,236.25,-752.50,-385.0,1,94.341,
01/01/2000,01:12:18.48,20.98,-58.44,-992.47,131.25,-647.50,-262.50,1,94.346,
01/01/2000,01:12:18.49,20.74,-58.56,-992.23,166.25,-778.75,-341.25,1,94.351,
01/01/2000,01:12:18.50,20.62,-58.56,-992.23,140.0,-647.50,-288.75,1,94.356,
01/01/2000,01:12:18.51,20.74,-58.56,-992.84,148.75,-691.25,-367.50,1,94.361,
01/01/2000,01:12:18.52,20.98,-58.44,-993.20,210.0,-743.75,-350.0,1,94.366,
01/01/2000,01:12:18.53,20.98,-58.32,-993.20,131.25,-770.0,-341.25,1,94.371,
01/01/2000,01:12:18.54,20.74,-58.56,-992.84,52.50,-638.75,-315.0,1,94.376,
01/01/2000,01:12:18.55,20.74,-58.68,-992.59,288.75,-577.50,-393.75,1,94.381,
01/01/2000,01:12:18.56,21.11,-58.68,-992.71,105.0,-717.50,-297.50,1,94.386,
01/01/2000,01:12:18.57,21.47,-58.56,-992.96,175.0,-717.50,-367.50,1,94.391,
01/01/2000,01:12:18.58,21.35,-58.56,-992.71,122.50,-656.25,-323.75,1,94.396,
01/01/2000,01:12:18.59,20.98,-58.56,-992.35,122.50,-700.0,-402.50,1,94.401,
01/01/2000,01:12:18.60,20.98,-58.56,-992.23,78.75,-682.50,-358.75,1,94.406,
01/01/2000,01:12:18.61,21.23,-58.44,-992.47,140.0,-778.75,-323.75,1,94.410,
01/01/2000,01:12:18.62,21.47,-58.44,-992.84,262.50,-647.50,-271.25,1,94.415,
01/01/2000,01:12:18.63,21.23,-58.44,-992.71,192.50,-708.75,-306.25,1,94.338,
01/01/2000,01:12:18.64,20.86,-58.56,-992.35,148.75,-735.0,-297.50,1,94.343,
01/01/2000,01:12:18.66,20.86,-58.56,-992.23,105.0,-691.25,-358.75,1,94.348,
01/01/2000,01:12:18.67,21.11,-58.56,-992.10,140.0,-665.0,-393.75,1,94.353,
01/01/2000,01:12:18.68,21.23,-58.44,-992.23,122.50,-700.0,-288.75,1,94.358,
01/01/2000,01:12:18.69,20.98,-58.56,-992.10,183.75,-656.25,-297.50,1,94.363,
01/01/2000,01:12:18.70,20.62,-58.56,-992.10,183.75,-708.75,-332.50,1,94.367,
01/01/2000,01:12:18.71,20.74,-58.56,-992.35,192.50,-630.0,-288.75,1,94.372,
01/01/2000,01:12:18.72,21.11,-58.32,-992.59,245.0,-700.0,-236.25,1,94.377,
01/01/2000,01:12:18.73,21.23,-58.32,-992.59,245.0,-638.75,-271.25,1,94.382,
01/01/2000,01:12:18.74,20.98,-58.56,-992.47,87.50,-770.0,-420.0,1,94.387,
01/01/2000,01:12:18.75,20.86,-58.68,-992.47,192.50,-726.25,-350.0,1,94.392,
01/01/2000,01:12:18.76,20.98,-58.56,-992.47,96.25,-682.50,-358.75,1,94.397,
01/01/2000,01:12:18.77,21.11,-58.32,-992.59,78.75,-735.0,-280.0,1,94.401,
01/01/2000,01:12:18.78,20.98,-58.32,-992.47,131.25,-857.50,-236.25,1,94.406,
01/01/2000,01:12:18.79,20.74,-58.56,-992.35,148.75,-805.0,-411.25,1,94.330,
01/01/2000,01:12:18.80,20.74,-58.80,-992.35,157.50,-665.0,-402.50,1,94.335,
01/01/2000,01:12:18.81,20.74,-58.56,-992.47,113.75,-691.25,-297.50,1,94.340,
01/01/2000,01:12:18.82,20.86,-58.44,-992.59,341.25,-708.75,-376.25,1,94.344,
01/01/2000,01:12:18.83,20.86,-58.32,-992.35,192.50,-735.0,-297.50,1,94.349,
01/01/2000,01:12:18.84,20.62,-58.32,-992.23,271.25,-673.75,-367.50,1,94.354,
01/01/2000,01:12:18.85,20.50,-58.44,-992.23,192.50,-708.75,-376.25,1,94.359,
01/01/2000,01:12:18.87,20.62,-58.80,-992.59,113.75,-743.75,-358.75,1,94.364,
01/01/2000,01:12:18.88,20.86,-58.80,-992.59,157.50,-621.25,-350.0,1,94.369,
01/01/2000,01:12:18.89,20.86,-58.80,-992.47,175.0,-717.50,-385.0,1,94.373,
01/01/2000,01:12:18.90,20.74,-58.68,-992.23,157.50,-700.0,-332.50,1,94.378,
01/01/2000,01:12:18.91,20.62,-58.44,-991.86,201.25,-735.0,-367.50,1,94.383,
01/01/2000,01:12:18.92,20.98,-58.44,-992.10,210.0,-770.0,-262.50,1,94.308,
01/01/2000,01:12:18.94,20.98,-58.44,-992.23,96.25,-761.25,-385.0,1,94.312,
01/01/2000,01:12:18.94,20.86,-58.80,-992.35,113.75,-708.75,-332.50,1,94.317,
01/01/2000,01:12:18.96,20.86,-58.56,-992.23,61.25,-691.25,-420.0,1,94.322,
01/01/2000,01:12:18.96,20.98,-58.32,-992.10,140.0,-726.25,-411.25,1,94.327,
01/01/2000,01:12:18.98,21.35,-58.07,-992.23,245.0,-700.0,-288.75,1,94.332,
01/01/2000,01:12:18.99,21.47,-58.07,-992.10,105.0,-700.0,-297.50,1,94.336,
01/01/2000,01:12:19.00,21.11,-58.32,-991.86,105.0,-691.25,-367.50,1,94.341,
01/01/2000,01:12:19.01,20.98,-58.32,-991.74,183.75,-717.50,-367.50,1,94.346,
01/01/2000,01:12:19.02,21.11,-58.32,-991.86,183.75,-735.0,-376.25,1,94.351,
01/01/2000,01:12:19.03,21.23,-58.32,-992.35,227.50,-787.50,-323.75,1,94.356,
01/01/2000,01:12:19.04,21.11,-58.19,-992.35,96.25,-787.50,-323.75,1,94.360,
01/01/2000,01:12:19.05,20.98,-58.32,-992.35,131.25,-665.0,-376.25,1,94.365,
01/01/2000,01:12:19.06,20.86,-58.32,-992.10,113.75,-691.25,-236.25,1,94.370,
01/01/2000,01:12:19.07,20.98,-58.32,-991.86,253.75,-682.50,-332.50,1,94.374,
01/01/2000,01:12:19.08,21.11,-58.19,-991.74,78.75,-752.50,-262.50,1,94.379,
01/01/2000,01:12:19.09,20.98,-58.32,-991.74,288.75,-691.25,-288.75,1,94.384,
01/01/2000,01:12:19.10,20.74,-58.32,-991.98,70.0,-708.75,-315.0,1,94.389,
01/01/2000,01:12:19.11,20.74,-58.32,-992.35,113.75,-603.75,-393.75,1,94.393,
01/01/2000,01:12:19.12,20.98,-58.32,-992.35,166.25,-717.50,-341.25,1,94.398,
01/01/2000,01:12:19.13,21.11,-58.32,-992.10,17.50,-726.25,-262.50,1,94.403,
01/01/2000,01:12:19.14,20.98,-58.56,-991.74,35.0,-603.75,-350.0,1,94.329,
01/01/2000,01:12:19.15,20.74,-58.68,-991.86,157.50,-735.0,-315.0,1,94.333,
01/01/2000,01:12:19.16,20.74,-58.44,-991.98,210.0,-656.25,-358.75,1,94.338,
01/01/2000,01:12:19.17,20.74,-58.32,-992.10,175.0,-708.75,-428.75,1,94.343,
01/01/2000,01:12:19.19,20.74,-58.19,-992.10,105.0,-796.25,-236.25,1,94.347,
01/01/2000,01:12:19.19,20.74,-58.44,-991.86,113.75,-612.50,-350.0,1,94.352,
01/01/2000,01:12:19.21,20.74,-58.56,-991.98,61.25,-717.50,-350.0,1,94.357,
01/01/2000,01:12:19.22,20.86,-58.68,-992.23,52.50,-700.0,-385.0,1,94.362,
01/01/2000,01:12:19.23,20.98,-58.56,-992.35,52.50,-708.75,-332.50,1,94.366,
01/01/2000,01:12:19.24,20.86,-58.44,-992.23,78.75,-761.25,-341.25,1,94.371,
01/01/2000,01:12:19.25,20.74,-58.44,-991.86,61.25,-743.75,-306.25,1,94.376,
01/01/2000,01:12:19.26,20.62,-58.44,-991.86,218.75,-726.25,-306.25,1,94.380,
01/01/2000,01:12:19.27,20.74,-58.56,-992.10,96.25,-761.25,-358.75,1,94.385,
01/01/2000,01:12:19.28,20.86,-58.68,-992.35,183.75,-647.50,-323.75,1,94.312,
01/01/2000,01:12:19.29,20.86,-58.56,-992.35,8.75,-761.25,-367.50,1,94.316,
01/01/2000,01:12:19.30,20.74,-58.56,-991.98,52.50,-752.50,-385.0,1,94.321,
01/01/2000,01:12:19.31,20.86,-58.32,-991.86,61.25,-630.0,-297.50,1,94.326,
01/01/2000,01:12:19.32,20.98,-58.32,-992.10,218.75,-743.75,-367.50,1,94.330,
01/01/2000,01:12:19.33,20.98,-58.44,-992.35,157.50,-708.75,-297.50,1,94.335,
01/01/2000,01:12:19.34,20.74,-58.56,-992.47,245.0,-691.25,-428.75,1,94.340,
01/01/2000,01:12:19.36,20.50,-58.44,-992.23,157.50,-700.0,-367.50,1,94.344,
01/01/2000,01:12:19.37,20.62,-58.19,-992.10,183.75,-708.75,-385.0,1,94.349,
01/01/2000,01:12:19.38,20.74,-58.19,-992.10,218.75,-665.0,-306.25,1,94.354,
01/01/2000,01:12:19.39,20.86,-58.32,-992.23,122.50,-621.25,-297.50,1,94.358,
01/01/2000,01:12:19.40,20.74,-58.56,-992.23,192.50,-708.75,-385.0,1,94.363,
01/01/2000,01:12:19.41,20.86,-58.56,-991.98,157.50,-568.75,-350.0,1,94.367,
01/01/2000,01:12:19.42,20.98,-58.32,-991.86,175.0,-612.50,-350.0,1,94.372,
01/01/2000,01:12:19.43,20.74,-58.56,-991.98,52.50,-761.25,-358.75,1,94.300,
01/01/2000,01:12:19.45,20.62,-58.56,-992.23,35.0,-656.25,-332.50,1,94.304,
01/01/2000,01:12:19.46,20.62,-58.68,-992.35,210.0,-761.25,-376.25,1,94.309,
01/01/2000,01:12:19.47,20.74,-58.19,-992.47,-8.75,-673.75,-253.75,1,94.314,
01/01/2000,01:12:19.48,20.86,-58.32,-992.35,236.25,-647.50,-323.75,1,94.318,
01/01/2000,01:12:19.49,20.98,-58.32,-991.98,157.50,-682.50,-288.75,1,94.323,
01/01/2000,01:12:19.50,20.86,-58.56,-991.86,210.0,-770.0,-350.0,1,94.327,
01/01/2000,01:12:19.51,20.74,-58.68,-992.10,245.0,-665.0,-402.50,1,94.332,
01/01/2000,01:12:19.52,20.74,-58.32,-992.59,78.75,-726.25,-463.75,1,94.337,
01/01/2000,01:12:19.53,20.86,-58.07,-992.71,157.50,-848.75,-271.25,1,94.341,
01/01/2000,01:12:19.54,20.86,-58.19,-992.35,253.75,-630.0,-218.75,1,94.346,
01/01/2000,01:12:19.55,20.62,-58.32,-992.10,148.75,-586.25,-236.25,1,94.350,
01/01/2000,01:12:19.56,20.50,-58.56,-992.10,227.50,-743.75,-315.0,1,94.355,
01/01/2000,01:12:19.57,20.50,-58.56,-992.10,-17.50,-656.25,-376.25,1,94.359,
01/01/2000,01:12:19.58,20.50,-58.56,-992.35,113.75,-647.50,-350.0,1,94.364,
01/01/2000,01:12:19.59,20.50,-58.56,-992.47,253.75,-761.25,-280.0,1,94.368,
01/01/2000,01:12:19.60,20.50,-58.44,-992.59,166.25,-682.50,-271.25,1,94.373,
01/01/2000,01:12:19.61,20.37,-58.44,-992.47,157.50,-761.25,-341.25,1,94.378,
01/01/2000,01:12:19.62,20.50,-58.56,-992.59,122.50,-665.0,-315.0,1,94.382,
01/01/2000,01:12:19.63,20.86,-58.56,-992.59,113.75,-700.0,-350.0,1,94.387,
01/01/2000,01:12:19.64,20.98,-58.56,-992.23,245.0,-691.25,-332.50,1,94.315,
01/01/2000,01:12:19.65,20.98,-58.44,-992.10,148.75,-717.50,-218.75,1,94.320,
01/01/2000,01:12:19.66,20.98,-58.56,-991.86,280.0,-656.25,-358.75,1,94.325,
01/01/2000,01:12:19.67,20.98,-58.32,-992.23,105.0,-822.50,-393.75,1,94.329,
01/01/2000,01:12:19.68,21.23,-58.56,-992.71,140.0,-665.0,-280.0,1,94.334,
01/01/2000,01:12:19.69,21.35,-58.56,-992.84,87.50,-682.50,-297.50,1,94.338,
01/01/2000,01:12:19.71,21.11,-58.56,-992.35,35.0,-542.50,-315.0,1,94.343,
01/01/2000,01:12:19.72,21.11,-58.56,-992.35,140.0,-708.75,-323.75,1,94.347,
01/01/2000,01:12:19.73,21.23,-58.56,-992.47,166.25,-673.75,-385.0,1,94.352,
01/01/2000,01:12:19.74,21.35,-58.44,-992.71,201.25,-621.25,-385.0,1,94.356,
01/01/2000,01:12:19.75,21.23,-58.44,-992.47,122.50,-708.75,-376.25,1,94.361,
01/01/2000,01:12:19.76,21.11,-58.56,-992.23,122.50,-700.0,-323.75,1,94.365,
01/01/2000,01:12:19.77,20.98,-58.32,-992.10,148.75,-673.75,-367.50,1,94.370,
01/01/2000,01:12:19.78,21.35,-58.56,-992.47,17.50,-726.25,-332.50,1,94.374,
01/01/2000,01:12:19.79,21.35,-58.56,-992.59,96.25,-603.75,-306.25,1,94.378,
01/01/2000,01:12:19.80,21.11,-58.68,-992.23,183.75,-708.75,-367.50,1,94.383,
01/01/2000,01:12:19.81,20.74,-58.44,-992.10,245.0,-630.0,-472.50,1,94.387,
01/01/2000,01:12:19.82,20.86,-58.32,-992.35,218.75,-595.0,-280.0,1,94.392,
01/01/2000,01:12:19.83,21.11,-58.32,-992.59,122.50,-682.50,-358.75,1,94.396,
01/01/2000,01:12:19.84,21.11,-58.56,-992.59,148.75,-778.75,-253.75,1,94.401,
01/01/2000,01:12:19.86,20.98,-58.80,-992.35,148.75,-691.25,-490.0,1,94.331,
01/01/2000,01:12:19.87,21.23,-58.68,-992.35,245.0,-665.0,-411.25,1,94.335,
01/01/2000,01:12:19.88,21.11,-58.68,-992.59,96.25,-743.75,-210.0,1,94.340,
01/01/2000,01:12:19.89,21.11,-58.68,-992.71,245.0,-682.50,-358.75,1,94.344,
01/01/2000,01:12:19.90,21.11,-58.80,-992.71,183.75,-752.50,-341.25,1,94.349,
01/01/2000,01:12:19.91,21.11,-58.80,-992.47,148.75,-770.0,-385.0,1,94.353,
01/01/2000,01:12:19.92,20.98,-58.80,-992.35,166.25,-595.0,-280.0,1,94.357,
01/01/2000,01:12:19.93,21.11,-58.80,-992.35,183.75,-630.0,-315.0,1,94.362,
01/01/2000,01:12:19.94,21.23,-58.68,-992.47,78.75,-656.25,-201.25,1,94.292,
01/01/2000,01:12:19.95,21.23,-58.80,-992.35,78.75,-805.0,-315.0,1,94.297,
01/01/2000,01:12:19.96,21.11,-58.80,-992.35,227.50,-735.0,-350.0,1,94.301,
01/01/2000,01:12:19.97,21.23,-58.56,-992.23,271.25,-560.0,-428.75,1,94.306,
01/01/2000,01:12:19.98,21.23,-58.56,-992.10,52.50,-708.75,-332.50,1,94.310,
01/01/2000,01:12:20.00,21.23,-58.44,-992.10,87.50,-708.75,-297.50,1,94.315,
01/01/2000,01:12:20.01,20.98,-58.68,-992.23,157.50,-621.25,-297.50,1,94.319,
01/01/2000,01:12:20.02,20.74,-58.80,-992.35,262.50,-603.75,-420.0,1,94.323,
01/01/2000,01:12:20.03,20.98,-58.80,-992.84,183.75,-647.50,-350.0,1,94.328,
01/01/2000,01:12:20.04,21.11,-58.68,-992.71,183.75,-612.50,-332.50,1,94.332,
01/01/2000,01:12:20.05,21.11,-58.80,-992.35,218.75,-647.50,-376.25,1,94.337,
01/01/2000,01:12:20.06,20.86,-58.93,-992.10,192.50,-621.25,-306.25,1,94.341,
01/01/2000,01:12:20.07,20.74,-58.80,-992.10,148.75,-630.0,-358.75,1,94.345,
01/01/2000,01:12:20.08,20.86,-58.68,-992.59,96.25,-673.75,-367.50,1,94.350,
01/01/2000,01:12:20.09,20.98,-58.56,-992.71,87.50,-647.50,-227.50,1,94.354,
01/01/2000,01:12:20.10,20.98,-58.56,-992.71,166.25,-673.75,-350.0,1,94.359,
01/01/2000,01:12:20.11,20.98,-58.56,-992.59,122.50,-752.50,-332.50,1,94.363,
01/01/2000,01:12:20.12,20.98,-58.68,-992.59,210.0,-717.50,-341.25,1,94.367,
01/01/2000,01:12:20.13,20.98,-58.80,-992.84,131.25,-673.75,-428.75,1,94.372,
01/01/2000,01:12:20.14,20.86,-58.68,-992.71,210.0,-673.75,-358.75,1,94.303,
01/01/2000,01:12:20.15,20.74,-58.56,-992.59,148.75,-717.50,-323.75,1,94.308,
01/01/2000,01:12:20.16,20.62,-58.56,-992.35,96.25,-621.25,-306.25,1,94.312,
01/01/2000,01:12:20.17,20.74,-58.56,-992.35,332.50,-638.75,-358.75,1,94.316,
01/01/2000,01:12:20.18,20.86,-58.68,-992.47,157.50,-700.0,-306.25,1,94.321,
01/01/2000,01:12:20.19,21.11,-58.80,-992.59,210.0,-638.75,-402.50,1,94.325,
01/01/2000,01:12:20.21,20.86,-58.68,-992.59,218.75,-603.75,-358.75,1,94.329,
01/01/2000,01:12:20.22,20.86,-58.32,-992.35,210.0,-717.50,-297.50,1,94.334,
01/01/2000,01:12:20.23,20.74,-58.19,-992.23,96.25,-778.75,-297.50,1,94.338,
01/01/2000,01:12:20.24,20.74,-58.32,-992.23,140.0,-805.0,-323.75,1,94.343,
01/01/2000,01:12:20.25,20.86,-58.56,-992.35,78.75,-717.50,-332.50,1,94.347,
01/01/2000,01:12:20.26,20.86,-58.68,-992.35,280.0,-752.50,-288.75,1,94.351,
01/01/2000,01:12:20.27,20.74,-58.80,-992.10,87.50,-726.25,-323.75,1,94.355,
01/01/2000,01:12:20.28,20.74,-58.68,-992.10,210.0,-726.25,-341.25,1,94.288,
01/01/2000,01:12:20.29,20.74,-58.56,-992.10,140.0,-665.0,-385.0,1,94.292,
01/01/2000,01:12:20.30,20.74,-58.56,-992.23,157.50,-700.0,-280.0,1,94.297,
01/01/2000,01:12:20.31,20.62,-58.56,-992.35,175.0,-691.25,-385.0,1,94.301,
01/01/2000,01:12:20.32,20.74,-58.68,-992.35,122.50,-656.25,-306.25,1,94.305,
01/01/2000,01:12:20.33,20.74,-58.80,-992.35,131.25,-726.25,-323.75,1,94.310,
01/01/2000,01:12:20.35,20.98,-58.68,-992.35,131.25,-708.75,-288.75,1,94.314,
01/01/2000,01:12:20.36,20.98,-58.56,-992.35,87.50,-621.25,-367.50,1,94.318,
01/01/2000,01:12:20.37,20.86,-58.56,-992.35,35.0,-647.50,-411.25,1,94.322,
01/01/2000,01:12:20.38,20.86,-58.56,-992.23,122.50,-805.0,-376.25,1,94.327,
01/01/2000,01:12:20.39,20.98,-58.56,-992.35,175.0,-638.75,-323.75,1,94.331,
01/01/2000,01:12:20.40,21.11,-58.44,-992.35,192.50,-673.75,-367.50,1,94.335,
01/01/2000,01:12:20.41,21.11,-58.44,-992.59,96.25,-682.50,-376.25,1,94.340,
01/01/2000,01:12:20.42,20.74,-58.56,-992.35,157.50,-735.0,-350.0,1,94.344,
01/01/2000,01:12:20.43,20.74,-58.56,-992.23,122.50,-647.50,-323.75,1,94.348,
01/01/2000,01:12:20.44,20.74,-58.32,-992.35,192.50,-743.75,-358.75,1,94.352,
01/01/2000,01:12:20.46,20.86,-58.44,-992.59,201.25,-656.25,-385.0,1,94.286,
01/01/2000,01:12:20.47,20.74,-58.32,-992.47,192.50,-638.75,-341.25,1,94.290,
01/01/2000,01:12:20.48,20.74,-58.56,-992.35,245.0,-656.25,-376.25,1,94.294,
01/01/2000,01:12:20.49,20.98,-58.56,-992.10,113.75,-691.25,-367.50,1,94.299,
01/01/2000,01:12:20.50,20.98,-58.56,-992.35,78.75,-708.75,-437.50,1,94.303,
01/01/2000,01:12:20.51,21.11,-58.44,-992.47,280.0,-735.0,-306.25,1,94.307,
01/01/2000,01:12:20.52,20.98,-58.56,-992.47,122.50,-822.50,-262.50,1,94.311,
01/01/2000,01:12:20.53,20.98,-58.44,-992.59,70.0,-708.75,-358.75,1,94.316,
01/01/2000,01:12:20.54,21.11,-58.32,-992.59,113.75,-700.0,-411.25,1,94.320,
01/01/2000,01:12:20.55,21.23,-58.32,-992.84,210.0,-665.0,-376.25,1,94.324,
01/01/2000,01:12:20.56,21.23,-58.44,-992.71,201.25,-551.25,-245.0,1,94.328,
01/01/2000,01:12:20.57,21.11,-58.56,-992.59,175.0,-691.25,-297.50,1,94.333,
01/01/2000,01:12:20.58,20.98,-58.56,-992.35,96.25,-630.0,-385.0,1,94.337,
01/01/2000,01:12:20.59,20.98,-58.56,-992.35,96.25,-743.75,-245.0,1,94.341,
01/01/2000,01:12:20.60,20.86,-58.56,-992.59,175.0,-691.25,-385.0,1,94.345,
01/01/2000,01:12:20.61,20.74,-58.56,-992.71,78.75,-621.25,-376.25,1,94.349,
01/01/2000,01:12:20.62,20.86,-58.56,-992.96,166.25,-752.50,-315.0,1,94.354,
01/01/2000,01:12:20.63,20.98,-58.68,-992.84,175.0,-682.50,-253.75,1,94.288,
01/01/2000,01:12:20.64,20.98,-58.68,-992.84,70.0,-700.0,-271.25,1,94.292,
01/01/2000,01:12:20.65,20.98,-58.68,-992.59,148.75,-717.50,-332.50,1,94.296,
01/01/2000,01:12:20.66,20.86,-58.56,-992.59,78.75,-603.75,-350.0,1,94.301,
01/01/2000,01:12:20.67,20.86,-58.56,-992.59,175.0,-717.50,-271.25,1,94.305,
01/01/2000,01:12:20.68,20.86,-58.44,-992.47,192.50,-656.25,-350.0,1,94.309,
01/01/2000,01:12:20.70,20.74,-58.68,-992.35,183.75,-700.0,-323.75,1,94.313,
01/01/2000,01:12:20.71,20.86,-58.80,-992.35,201.25,-647.50,-358.75,1,94.317,
01/01/2000,01:12:20.72,20.98,-58.68,-992.59,131.25,-735.0,-350.0,1,94.322,
01/01/2000,01:12:20.73,21.11,-58.68,-992.59,201.25,-621.25,-306.25,1,94.326,
01/01/2000,01:12:20.74,20.86,-58.56,-992.47,210.0,-691.25,-393.75,1,94.330,
01/01/2000,01:12:20.75,20.74,-58.56,-992.35,105.0,-673.75,-323.75,1,94.334,
01/01/2000,01:12:20.76,20.74,-58.80,-992.23,175.0,-708.75,-420.0,1,94.338,
01/01/2000,01:12:20.77,20.74,-58.80,-992.23,113.75,-726.25,-358.75,1,94.342,
01/01/2000,01:12:20.78,20.74,-58.93,-992.35,87.50,-638.75,-393.75,1,94.347,
01/01/2000,01:12:20.79,20.74,-58.80,-992.35,253.75,-603.75,-332.50,1,94.351,
01/01/2000,01:12:20.80,20.74,-58.80,-992.59,122.50,-673.75,-297.50,1,94.286,
01/01/2000,01:12:20.81,20.86,-58.80,-992.84,166.25,-691.25,-236.25,1,94.359,
01/01/2000,01:12:20.82,20.98,-58.80,-992.71,122.50,-682.50,-262.50,1,94.294,
01/01/2000,01:12:20.83,20.98,-58.80,-992.35,157.50,-638.75,-280.0,1,94.298,
01/01/2000,01:12:20.85,20.74,-58.80,-992.23,157.50,-717.50,-411.25,1,94.302,
01/01/2000,01:12:20.86,20.74,-58.80,-992.47,140.0,-577.50,-358.75,1,94.307,
01/01/2000,01:12:20.87,20.74,-58.68,-992.84,271.25,-726.25,-323.75,1,94.311,
01/01/2000,01:12:20.88,20.98,-58.56,-993.08,227.50,-638.75,-297.50,1,94.315,
01/01/2000,01:12:20.89,20.74,-58.56,-992.59,70.0,-717.50,-420.0,1,94.319,
01/01/2000,01:12:20.90,20.74,-58.80,-992.59,210.0,-726.25,-245.0,1,94.323,
01/01/2000,01:12:20.91,20.74,-58.68,-992.71,131.25,-761.25,-332.50,1,94.327,
01/01/2000,01:12:20.92,20.74,-58.56,-992.84,105.0,-735.0,-358.75,1,94.331,
01/01/2000,01:12:20.93,20.86,-58.56,-992.84,166.25,-595.0,-323.75,1,94.336,
01/01/2000,01:12:20.94,20.74,-58.56,-992.59,262.50,-630.0,-393.75,1,94.340,
01/01/2000,01:12:20.95,20.74,-58.56,-992.59,288.75,-735.0,-385.0,1,94.344,
01/01/2000,01:12:20.97,20.86,-58.68,-992.47,166.25,-743.75,-393.75,1,94.280,
01/01/2000,01:12:20.98,20.98,-58.56,-992.59,35.0,-630.0,-315.0,1,94.284,
01/01/2000,01:12:20.99,20.74,-58.44,-992.47,105.0,-752.50,-315.0,1,94.288,
01/01/2000,01:12:21.00,20.86,-58.32,-992.47,192.50,-708.75,-350.0,1,94.292,
01/01/2000,01:12:21.01,20.86,-58.32,-992.47,210.0,-621.25,-253.75,1,94.296,
01/01/2000,01:12:21.02,20.86,-58.44,-992.59,122.50,-630.0,-280.0,1,94.300,
01/01/2000,01:12:21.03,20.74,-58.68,-992.71,227.50,-656.25,-376.25,1,94.304,
01/01/2000,01:12:21.04,20.98,-58.56,-992.59,218.75,-638.75,-367.50,1,94.308,
01/01/2000,01:12:21.05,20.98,-58.56,-992.59,157.50,-700.0,-358.75,1,94.312,
01/01/2000,01:12:21.06,21.11,-58.44,-992.47,323.75,-752.50,-315.0,1,94.317,
01/01/2000,01:12:21.07,21.11,-58.32,-992.47,122.50,-778.75,-306.25,1,94.321,
01/01/2000,01:12:21.08,21.23,-58.56,-992.84,201.25,-708.75,-367.50,1,94.325,
01/01/2000,01:12:21.09,21.23,-58.56,-992.84,157.50,-778.75,-218.75,1,94.329,
01/01/2000,01:12:21.10,21.11,-58.68,-992.84,157.50,-656.25,-385.0,1,94.333,
01/01/2000,01:12:21.11,20.98,-58.56,-992.59,78.75,-735.0,-350.0,1,94.337,
01/01/2000,01:12:21.12,20.98,-58.56,-992.23,297.50,-621.25,-332.50,1,94.273,
01/01/2000,01:12:21.13,20.98,-58.68,-992.35,122.50,-603.75,-367.50,1,94.278,
01/01/2000,01:12:21.14,20.98,-58.68,-992.71,166.25,-726.25,-315.0,1,94.282,
01/01/2000,01:12:21.15,20.98,-58.68,-992.84,227.50,-726.25,-297.50,1,94.286,
01/01/2000,01:12:21.17,20.98,-58.56,-992.59,43.75,-621.25,-227.50,1,94.290,
01/01/2000,01:12:21.17,20.98,-58.44,-992.47,131.25,-796.25,-385.0,1,94.294,
01/01/2000,01:12:21.19,20.74,-58.56,-992.35,192.50,-665.0,-332.50,1,94.298,
01/01/2000,01:12:21.20,20.86,-58.56,-992.59,131.25,-682.50,-306.25,1,94.302,
01/01/2000,01:12:21.21,20.74,-58.56,-992.71,183.75,-752.50,-358.75,1,94.306,
01/01/2000,01:12:21.22,20.86,-58.32,-992.84,131.25,-568.75,-271.25,1,94.310,
01/01/2000,01:12:21.23,20.86,-58.32,-992.59,122.50,-656.25,-297.50,1,94.314,
01/01/2000,01:12:21.24,20.74,-58.56,-992.23,166.25,-665.0,-332.50,1,94.318,
01/01/2000,01:12:21.25,20.86,-58.80,-992.10,61.25,-796.25,-358.75,1,94.322,
01/01/2000,01:12:21.26,20.86,-59.05,-992.35,113.75,-603.75,-297.50,1,94.326,
01/01/2000,01:12:21.27,20.98,-58.80,-992.84,26.25,-743.75,-350.0,1,94.263,
01/01/2000,01:12:21.28,20.98,-58.56,-992.71,227.50,-647.50,-253.75,1,94.268,
01/01/2000,01:12:21.29,20.86,-58.68,-992.59,315.0,-638.75,-323.75,1,94.272,
01/01/2000,01:12:21.30,20.86,-58.80,-992.35,192.50,-612.50,-358.75,1,94.276,
01/01/2000,01:12:21.31,20.86,-58.68,-992.47,157.50,-603.75,-385.0,1,94.280,
01/01/2000,01:12:21.32,20.86,-58.68,-992.59,201.25,-647.50,-288.75,1,94.284,
01/01/2000,01:12:21.34,20.86,-58.56,-992.59,105.0,-717.50,-306.25,1,94.288,
01/01/2000,01:12:21.35,20.62,-58.56,-992.47,131.25,-743.75,-350.0,1,94.292,
01/01/2000,01:12:21.36,20.62,-58.56,-992.35,236.25,-682.50,-236.25,1,94.296,
01/01/2000,01:12:21.37,20.74,-58.56,-992.47,166.25,-700.0,-393.75,1,94.300,
01/01/2000,01:12:21.38,20.98,-58.56,-992.59,192.50,-665.0,-323.75,1,94.304,
01/01/2000,01:12:21.39,20.86,-58.80,-992.71,131.25,-726.25,-315.0,1,94.308,
01/01/2000,01:12:21.40,20.74,-58.80,-992.71,157.50,-752.50,-350.0,1,94.312,
01/01/2000,01:12:21.41,20.86,-58.56,-992.59,96.25,-761.25,-323.75,1,94.316,
01/01/2000,01:12:21.42,20.98,-58.32,-992.59,122.50,-708.75,-280.0,1,94.320,
01/01/2000,01:12:21.43,20.98,-58.44,-992.59,253.75,-726.25,-341.25,1,94.324,
01/01/2000,01:12:21.44,20.74,-58.56,-992.59,192.50,-656.25,-376.25,1,94.328,
01/01/2000,01:12:21.45,20.62,-58.68,-992.59,201.25,-673.75,-420.0,1,94.332,
01/01/2000,01:12:21.46,20.74,-58.56,-992.59,105.0,-743.75,-271.25,1,94.336,
01/01/2000,01:12:21.48,21.11,-58.32,-992.84,253.75,-743.75,-253.75,1,94.274,
01/01/2000,01:12:21.49,20.86,-58.44,-992.59,105.0,-691.25,-358.75,1,94.278,
01/01/2000,01:12:21.50,20.74,-58.56,-992.47,140.0,-708.75,-280.0,1,94.282,
01/01/2000,01:12:21.51,20.74,-58.56,-992.47,140.0,-638.75,-402.50,1,94.286,
01/01/2000,01:12:21.52,21.23,-58.56,-992.84,52.50,-621.25,-367.50,1,94.290,
01/01/2000,01:12:21.53,20.98,-58.56,-992.84,148.75,-770.0,-323.75,1,94.294,
01/01/2000,01:12:21.54,20.86,-58.56,-992.59,131.25,-787.50,-288.75,1,94.298,
01/01/2000,01:12:21.55,20.86,-58.56,-992.35,218.75,-805.0,-280.0,1,94.236,
01/01/2000,01:12:21.56,20.86,-58.56,-992.47,148.75,-568.75,-332.50,1,94.240,
01/01/2000,01:12:21.57,20.98,-58.56,-992.59,70.0,-700.0,-367.50,1,94.244,
01/01/2000,01:12:21.58,20.98,-58.56,-992.71,192.50,-638.75,-367.50,1,94.248,
01/01/2000,01:12:21.59,20.98,-58.56,-992.84,87.50,-656.25,-332.50,1,94.252,
01/01/2000,01:12:21.60,20.86,-58.44,-992.84,78.75,-630.0,-358.75,1,94.256,
01/01/2000,01:12:21.61,20.74,-58.56,-992.71,105.0,-656.25,-350.0,1,94.260,
01/01/2000,01:12:21.62,20.74,-58.56,-992.59,175.0,-656.25,-376.25,1,94.264,
01/01/2000,01:12:21.63,20.74,-58.44,-992.35,148.75,-752.50,-297.50,1,94.268,
01/01/2000,01:12:21.64,20.74,-58.32,-992.47,201.25,-656.25,-367.50,1,94.272,
01/01/2000,01:12:21.65,20.74,-58.32,-992.71,253.75,-726.25,-297.50,1,94.276,
01/01/2000,01:12:21.66,20.98,-58.44,-992.96,35.0,-735.0,-262.50,1,94.280,
01/01/2000,01:12:21.67,20.74,-58.56,-992.84,210.0,-717.50,-323.75,1,94.284,
01/01/2000,01:12:21.69,20.62,-58.44,-992.47,78.75,-761.25,-402.50,1,94.288,
01/01/2000,01:12:21.70,20.74,-58.19,-992.47,131.25,-656.25,-350.0,1,94.292,
01/01/2000,01:12:21.71,20.86,-58.19,-992.59,157.50,-813.75,-306.25,1,94.296,
01/01/2000,01:12:21.72,20.86,-58.19,-992.71,105.0,-630.0,-288.75,1,94.299,
01/01/2000,01:12:21.73,20.74,-58.44,-992.59,140.0,-726.25,-385.0,1,94.303,
01/01/2000,01:12:21.74,20.74,-58.32,-992.71,280.0,-638.75,-393.75,1,94.307,
01/01/2000,01:12:21.75,21.11,-58.19,-992.84,253.75,-752.50,-367.50,1,94.311,
01/01/2000,01:12:21.76,21.35,-58.32,-992.71,201.25,-682.50,-297.50,1,94.251,
01/01/2000,01:12:21.77,20.98,-58.32,-992.47,122.50,-656.25,-367.50,1,94.319,
01/01/2000,01:12:21.78,20.98,-58.44,-992.47,131.25,-638.75,-376.25,1,94.258,
01/01/2000,01:12:21.79,20.98,-58.32,-992.59,166.25,-586.25,-350.0,1,94.262,
01/01/2000,01:12:21.80,21.23,-58.07,-992.59,113.75,-595.0,-341.25,1,94.266,
01/01/2000,01:12:21.81,21.11,-58.07,-992.47,113.75,-665.0,-306.25,1,94.270,
01/01/2000,01:12:21.82,20.98,-58.07,-992.47,96.25,-665.0,-297.50,1,94.274,
01/01/2000,01:12:21.84,20.98,-58.32,-992.71,70.0,-708.75,-367.50,1,94.278,
01/01/2000,01:12:21.85,21.23,-58.32,-993.08,236.25,-630.0,-262.50,1,94.282,
01/01/2000,01:12:21.86,21.23,-58.32,-992.59,87.50,-665.0,-332.50,1,94.286,
01/01/2000,01:12:21.87,20.98,-58.44,-992.35,96.25,-743.75,-358.75,1,94.290,
01/01/2000,01:12:21.88,20.98,-58.44,-992.10,113.75,-682.50,-280.0,1,94.293,
01/01/2000,01:12:21.89,20.98,-58.56,-992.35,297.50,-630.0,-332.50,1,94.297,
01/01/2000,01:12:21.90,21.11,-58.56,-992.84,96.25,-612.50,-385.0,1,94.301,
01/01/2000,01:12:21.91,21.11,-58.56,-992.84,236.25,-708.75,-332.50,1,94.305,
01/01/2000,01:12:21.92,20.98,-58.56,-992.47,122.50,-638.75,-385.0,1,94.309,
01/01/2000,01:12:21.93,20.98,-58.56,-992.35,280.0,-568.75,-437.50,1,94.313,
01/01/2000,01:12:21.94,21.11,-58.32,-992.35,227.50,-787.50,-446.25,1,94.317,
01/01/2000,01:12:21.95,21.11,-58.32,-992.59,70.0,-682.50,-332.50,1,94.320,
01/01/2000,01:12:21.96,20.98,-58.44,-992.84,105.0,-743.75,-315.0,1,94.324,
01/01/2000,01:12:21.97,20.74,-58.68,-992.71,323.75,-691.25,-288.75,1,94.265,
01/01/2000,01:12:21.99,20.74,-58.44,-992.47,140.0,-691.25,-341.25,1,94.268,
01/01/2000,01:12:22.00,20.74,-58.32,-992.35,245.0,-691.25,-350.0,1,94.272,
01/01/2000,01:12:22.01,20.86,-58.19,-992.35,140.0,-708.75,-288.75,1,94.276,
01/01/2000,01:12:22.02,20.74,-58.32,-992.71,201.25,-691.25,-402.50,1,94.280,
01/01/2000,01:12:22.03,20.74,-58.32,-992.59,288.75,-603.75,-306.25,1,94.284,
01/01/2000,01:12:22.04,20.86,-58.19,-992.59,122.50,-743.75,-358.75,1,94.288,
01/01/2000,01:12:22.05,21.11,-58.07,-992.84,157.50,-621.25,-262.50,1,94.291,
01/01/2000,01:12:22.06,21.11,-58.32,-993.20,323.75,-682.50,-280.0,1,94.295,
01/01/2000,01:12:22.07,20.98,-58.44,-993.08,148.75,-708.75,-367.50,1,94.299,
01/01/2000,01:12:22.08,20.74,-58.56,-992.84,87.50,-761.25,-341.25,1,94.303,
01/01/2000,01:12:22.09,20.74,-58.32,-992.47,262.50,-682.50,-341.25,1,94.307,
01/01/2000,01:12:22.10,20.74,-58.07,-992.35,166.25,-691.25,-280.0,1,94.311,
01/01/2000,01:12:22.11,20.74,-58.07,-992.59,148.75,-726.25,-201.25,1,94.251,
01/01/2000,01:12:22.12,20.74,-58.19,-992.59,253.75,-673.75,-297.50,1,94.255,
01/01/2000,01:12:22.13,20.74,-58.32,-992.47,52.50,-638.75,-411.25,1,94.259,
01/01/2000,01:12:22.14,20.74,-58.56,-992.47,157.50,-673.75,-437.50,1,94.263,
01/01/2000,01:12:22.15,20.86,-58.56,-992.47,183.75,-673.75,-341.25,1,94.267,
01/01/2000,01:12:22.16,20.98,-58.32,-992.35,78.75,-770.0,-411.25,1,94.270,
01/01/2000,01:12:22.17,20.98,-58.19,-992.59,192.50,-735.0,-367.50,1,94.274,
01/01/2000,01:12:22.18,20.86,-58.32,-992.47,210.0,-691.25,-332.50,1,94.278,
01/01/2000,01:12:22.19,20.74,-58.44,-992.47,157.50,-708.75,-323.75,1,94.282,
01/01/2000,01:12:22.20,20.86,-58.56,-992.47,210.0,-638.75,-297.50,1,94.286,
01/01/2000,01:12:22.21,21.11,-58.56,-992.59,192.50,-700.0,-315.0,1,94.290,
01/01/2000,01:12:22.22,20.98,-58.56,-992.84,43.75,-630.0,-332.50,1,94.293,
01/01/2000,01:12:22.23,21.11,-58.32,-992.96,157.50,-665.0,-306.25,1,94.297,
01/01/2000,01:12:22.25,20.98,-58.32,-992.96,166.25,-647.50,-227.50,1,94.301,
01/01/2000,01:12:22.26,20.98,-58.44,-992.59,113.75,-682.50,-341.25,1,94.305,
01/01/2000,01:12:22.27,21.11,-58.56,-992.35,175.0,-630.0,-525.0,1,94.308,
01/01/2000,01:12:22.28,20.98,-58.32,-991.98,157.50,-726.25,-350.0,1,94.312,
01/01/2000,01:12:22.29,21.11,-58.32,-991.86,227.50,-726.25,-341.25,1,94.316,
01/01/2000,01:12:22.30,21.11,-58.32,-992.10,166.25,-700.0,-288.75,1,94.320,
01/01/2000,01:12:22.31,21.11,-58.19,-992.47,157.50,-647.50,-271.25,1,94.323,
01/01/2000,01:12:22.32,21.23,-58.32,-992.59,201.25,-761.25,-358.75,1,94.265,
01/01/2000,01:12:22.33,21.23,-58.44,-992.35,131.25,-787.50,-385.0,1,94.269,
01/01/2000,01:12:22.34,21.35,-58.56,-992.10,113.75,-691.25,-306.25,1,94.273,
01/01/2000,01:12:22.35,21.23,-58.68,-991.86,35.0,-752.50,-393.75,1,94.276,
01/01/2000,01:12:22.36,21.11,-58.56,-991.98,148.75,-630.0,-455.0,1,94.280,
01/01/2000,01:12:22.37,20.98,-58.44,-992.23,140.0,-752.50,-271.25,1,94.284,
01/01/2000,01:12:22.38,20.98,-58.19,-992.35,166.25,-630.0,-271.25,1,94.288,
01/01/2000,01:12:22.40,20.98,-58.07,-992.59,140.0,-708.75,-376.25,1,94.291,
01/01/2000,01:12:22.41,21.23,-58.19,-992.59,113.75,-647.50,-280.0,1,94.295,
01/01/2000,01:12:22.42,21.23,-58.32,-992.59,201.25,-630.0,-288.75,1,94.299,
01/01/2000,01:12:22.43,21.23,-58.32,-992.59,122.50,-665.0,-323.75,1,94.303,
01/01/2000,01:12:22.44,21.23,-58.19,-992.47,70.0,-586.25,-350.0,1,94.306,
01/01/2000,01:12:22.45,21.11,-57.95,-992.35,166.25,-778.75,-411.25,1,94.310,
01/01/2000,01:12:22.46,21.11,-57.95,-992.35,192.50,-700.0,-297.50,1,94.314,
01/01/2000,01:12:22.47,21.23,-58.07,-992.35,175.0,-805.0,-367.50,1,94.317,
01/01/2000,01:12:22.48,21.35,-58.32,-992.59,183.75,-708.75,-315.0,1,94.321,
01/01/2000,01:12:22.49,21.23,-58.32,-992.59,87.50,-726.25,-332.50,1,94.263,
01/01/2000,01:12:22.51,21.23,-58.32,-992.35,140.0,-673.75,-420.0,1,94.267,
01/01/2000,01:12:22.52,21.23,-58.32,-992.35,87.50,-595.0,-323.75,1,94.271,
01/01/2000,01:12:22.53,21.47,-58.32,-992.47,131.25,-787.50,-315.0,1,94.275,
01/01/2000,01:12:22.54,21.47,-58.56,-992.59,227.50,-682.50,-428.75,1,94.278,
01/01/2000,01:12:22.55,21.23,-58.80,-992.35,245.0,-752.50,-376.25,1,94.282,
01/01/2000,01:12:22.56,21.23,-58.93,-992.35,166.25,-717.50,-332.50,1,94.286,
01/01/2000,01:12:22.57,21.23,-58.80,-992.35,131.25,-717.50,-385.0,1,94.289,
01/01/2000,01:12:22.58,21.47,-58.32,-992.59,166.25,-621.25,-192.50,1,94.293,
01/01/2000,01:12:22.59,21.59,-58.32,-992.35,245.0,-708.75,-367.50,1,94.297,
01/01/2000,01:12:22.60,21.35,-58.44,-992.35,122.50,-673.75,-288.75,1,94.301,
01/01/2000,01:12:22.61,21.11,-58.56,-992.23,271.25,-665.0,-455.0,1,94.304,
01/01/2000,01:12:22.62,21.11,-58.56,-992.23,166.25,-743.75,-358.75,1,94.308,
01/01/2000,01:12:22.63,21.11,-58.56,-992.35,122.50,-691.25,-402.50,1,94.312,
01/01/2000,01:12:22.64,21.11,-58.44,-992.35,122.50,-770.0,-271.25,1,94.315,
01/01/2000,01:12:22.65,20.98,-58.44,-992.35,227.50,-656.25,-376.25,1,94.319,
01/01/2000,01:12:22.66,20.74,-58.44,-992.47,183.75,-726.25,-323.75,1,94.323,
01/01/2000,01:12:22.67,20.98,-58.44,-992.71,227.50,-726.25,-332.50,1,94.265,
01/01/2000,01:12:22.68,20.98,-58.44,-992.59,113.75,-691.25,-323.75,1,94.269,
01/01/2000,01:12:22.69,20.98,-58.32,-992.35,236.25,-621.25,-315.0,1,94.273,
01/01/2000,01:12:22.70,21.11,-58.32,-992.23,227.50,-665.0,-306.25,1,94.277,
01/01/2000,01:12:22.71,20.98,-58.56,-992.35,183.75,-717.50,-323.75,1,94.280,
01/01/2000,01:12:22.72,20.98,-58.56,-992.47,192.50,-647.50,-288.75,1,94.284,
01/01/2000,01:12:22.73,20.98,-58.56,-992.59,183.75,-726.25,-341.25,1,94.288,
01/01/2000,01:12:22.75,20.98,-58.32,-992.59,236.25,-708.75,-402.50,1,94.291,
01/01/2000,01:12:22.76,20.98,-58.32,-992.47,122.50,-673.75,-420.0,1,94.295,
01/01/2000,01:12:22.77,20.98,-58.32,-992.59,70.0,-700.0,-323.75,1,94.299,
01/01/2000,01:12:22.78,21.11,-58.56,-992.47,175.0,-612.50,-323.75,1,94.302,
01/01/2000,01:12:22.79,20.98,-58.56,-992.47,218.75,-726.25,-358.75,1,94.306,
01/01/2000,01:12:22.80,20.98,-58.32,-992.35,105.0,-673.75,-376.25,1,94.309,
01/01/2000,01:12:22.81,20.86,-58.19,-992.23,183.75,-638.75,-245.0,1,94.313,
01/01/2000,01:12:22.82,21.11,-58.07,-992.35,183.75,-665.0,-236.25,1,94.317,
01/01/2000,01:12:22.83,20.98,-58.56,-992.35,140.0,-700.0,-306.25,1,94.320,
01/01/2000,01:12:22.84,20.86,-58.68,-992.47,61.25,-638.75,-402.50,1,94.324,
01/01/2000,01:12:22.85,21.11,-58.80,-992.35,315.0,-735.0,-323.75,1,94.328,
01/01/2000,01:12:22.86,21.11,-58.56,-992.35,201.25,-770.0,-315.0,1,94.331,
01/01/2000,01:12:22.87,20.98,-58.56,-992.35,87.50,-665.0,-315.0,1,94.335,
01/01/2000,01:12:22.88,20.98,-58.44,-992.10,166.25,-691.25,-253.75,1,94.278,
01/01/2000,01:12:22.90,20.98,-58.68,-992.23,183.75,-603.75,-350.0,1,94.282,
01/01/2000,01:12:22.91,20.86,-58.80,-992.35,122.50,-735.0,-323.75,1,94.286,
01/01/2000,01:12:22.92,20.86,-58.80,-992.35,140.0,-726.25,-367.50,1,94.289,
01/01/2000,01:12:22.93,20.98,-58.68,-992.35,201.25,-691.25,-315.0,1,94.293,
01/01/2000,01:12:22.94,21.11,-58.68,-992.35,157.50,-726.25,-376.25,1,94.297,
01/01/2000,01:12:22.95,20.98,-58.44,-992.35,140.0,-822.50,-218.75,1,94.300,
01/01/2000,01:12:22.96,20.86,-58.32,-992.35,131.25,-805.0,-315.0,1,94.304,
01/01/2000,01:12:22.97,20.86,-58.32,-992.35,78.75,-656.25,-315.0,1,94.307,
01/01/2000,01:12:22.98,20.98,-58.32,-992.35,78.75,-726.25,-411.25,1,94.311,
01/01/2000,01:12:22.99,20.86,-58.56,-992.10,236.25,-665.0,-297.50,1,94.315,
01/01/2000,01:12:23.00,20.86,-58.56,-992.10,140.0,-752.50,-393.75,1,94.259,
01/01/2000,01:12:23.01,20.86,-58.44,-992.35,105.0,-700.0,-323.75,1,94.262,
01/01/2000,01:12:23.02,20.98,-58.44,-992.47,96.25,-586.25,-393.75,1,94.266,
01/01/2000,01:12:23.04,20.98,-58.56,-992.10,105.0,-691.25,-350.0,1,94.270,
01/01/2000,01:12:23.05,20.98,-58.44,-992.10,297.50,-717.50,-393.75,1,94.273,
01/01/2000,01:12:23.06,20.98,-58.44,-992.10,245.0,-700.0,-262.50,1,94.277,
01/01/2000,01:12:23.07,21.11,-58.32,-992.10,0.0,-708.75,-315.0,1,94.280,
01/01/2000,01:12:23.08,20.98,-58.56,-992.10,148.75,-682.50,-271.25,1,94.284,
01/01/2000,01:12:23.09,20.98,-58.56,-992.23,192.50,-665.0,-358.75,1,94.288,
01/01/2000,01:12:23.10,20.98,-58.56,-992.35,61.25,-595.0,-446.25,1,94.291,
01/01/2000,01:12:23.11,21.11,-58.56,-992.47,166.25,-656.25,-288.75,1,94.295,
01/01/2000,01:12:23.12,21.11,-58.56,-992.23,183.75,-647.50,-358.75,1,94.298,
01/01/2000,01:12:23.13,21.11,-58.56,-992.10,271.25,-691.25,-288.75,1,94.302,
01/01/2000,01:12:23.14,20.98,-58.56,-991.98,183.75,-700.0,-402.50,1,94.305,
01/01/2000,01:12:23.15,20.98,-58.44,-992.10,218.75,-691.25,-358.75,1,94.309,
01/01/2000,01:12:23.16,20.98,-58.19,-992.47,131.25,-708.75,-341.25,1,94.313,
01/01/2000,01:12:23.17,21.23,-58.19,-992.47,52.50,-752.50,-271.25,1,94.316,
01/01/2000,01:12:23.18,21.23,-58.44,-992.35,131.25,-630.0,-245.0,1,94.320,
01/01/2000,01:12:23.19,21.11,-58.56,-992.23,236.25,-682.50,-420.0,1,94.323,
01/01/2000,01:12:23.20,20.98,-58.68,-992.10,140.0,-647.50,-420.0,1,94.327,
01/01/2000,01:12:23.21,21.11,-58.44,-992.23,140.0,-726.25,-350.0,1,94.330,
01/01/2000,01:12:23.22,21.23,-58.44,-992.23,166.25,-700.0,-297.50,1,94.334,
01/01/2000,01:12:23.23,21.23,-58.32,-992.10,227.50,-673.75,-280.0,1,94.337,
01/01/2000,01:12:23.24,21.23,-58.44,-991.86,131.25,-665.0,-376.25,1,94.282,
01/01/2000,01:12:23.25,21.35,-58.68,-992.10,113.75,-638.75,-341.25,1,94.286,
01/01/2000,01:12:23.26,21.47,-58.68,-992.10,166.25,-717.50,-385.0,1,94.289,
01/01/2000,01:12:23.27,21.47,-58.56,-992.23,332.50,-691.25,-385.0,1,94.293,
01/01/2000,01:12:23.28,21.35,-58.44,-992.10,157.50,-805.0,-315.0,1,94.296,
01/01/2000,01:12:23.29,21.35,-58.32,-991.98,218.75,-743.75,-262.50,1,94.300,
01/01/2000,01:12:23.31,21.23,-58.56,-991.86,245.0,-796.25,-332.50,1,94.303,
01/01/2000,01:12:23.32,21.11,-58.68,-991.98,183.75,-638.75,-455.0,1,94.307,
01/01/2000,01:12:23.33,21.11,-58.56,-991.86,140.0,-735.0,-280.0,1,94.310,
01/01/2000,01:12:23.34,21.11,-58.44,-991.98,192.50,-717.50,-350.0,1,94.314,
01/01/2000,01:12:23.35,20.98,-58.32,-992.10,192.50,-638.75,-306.25,1,94.317,
01/01/2000,01:12:23.36,20.98,-58.44,-992.35,70.0,-735.0,-332.50,1,94.321,
01/01/2000,01:12:23.37,21.11,-58.44,-992.47,113.75,-577.50,-393.75,1,94.324,
01/01/2000,01:12:23.38,20.98,-58.56,-992.35,183.75,-761.25,-420.0,1,94.328,
01/01/2000,01:12:23.39,20.98,-58.56,-992.35,218.75,-586.25,-385.0,1,94.331,
01/01/2000,01:12:23.40,20.74,-58.44,-992.35,157.50,-761.25,-376.25,1,94.335,
01/01/2000,01:12:23.41,20.86,-58.19,-992.47,105.0,-630.0,-280.0,1,94.338,
01/01/2000,01:12:23.42,20.98,-58.07,-992.59,227.50,-603.75,-358.75,1,94.342,
01/01/2000,01:12:23.43,20.98,-58.07,-992.47,245.0,-656.25,-385.0,1,94.345,
01/01/2000,01:12:23.44,20.98,-58.19,-992.23,183.75,-805.0,-297.50,1,94.349,
01/01/2000,01:12:23.46,21.11,-58.07,-992.10,341.25,-638.75,-297.50,1,94.294,
01/01/2000,01:12:23.47,21.23,-58.07,-992.10,87.50,-866.25,-297.50,1,94.298,
01/01/2000,01:12:23.48,20.98,-58.07,-992.10,140.0,-682.50,-288.75,1,94.301,
01/01/2000,01:12:23.49,20.86,-58.07,-992.10,122.50,-717.50,-358.75,1,94.305,
01/01/2000,01:12:23.50,20.86,-58.07,-992.10,157.50,-717.50,-332.50,1,94.308,
01/01/2000,01:12:23.51,20.86,-58.19,-992.10,148.75,-700.0,-306.25,1,94.312,
01/01/2000,01:12:23.52,20.98,-58.32,-992.10,113.75,-638.75,-306.25,1,94.258,
01/01/2000,01:12:23.53,20.98,-58.32,-992.10,288.75,-586.25,-323.75,1,94.261,
01/01/2000,01:12:23.54,20.86,-58.32,-992.10,183.75,-735.0,-323.75,1,94.265,
01/01/2000,01:12:23.55,20.86,-58.07,-992.23,227.50,-708.75,-288.75,1,94.268,
01/01/2000,01:12:23.56,20.86,-58.07,-992.35,297.50,-656.25,-271.25,1,94.272,
01/01/2000,01:12:23.57,20.86,-58.19,-992.10,280.0,-621.25,-376.25,1,94.275,
01/01/2000,01:12:23.58,20.86,-58.32,-992.10,236.25,-682.50,-350.0,1,94.279,
01/01/2000,01:12:23.59,20.98,-58.56,-992.23,210.0,-700.0,-402.50,1,94.282,
01/01/2000,01:12:23.60,21.11,-58.32,-992.35,96.25,-770.0,-332.50,1,94.286,
01/01/2000,01:12:23.61,21.23,-58.32,-992.23,113.75,-691.25,-350.0,1,94.289,
01/01/2000,01:12:23.62,21.23,-58.32,-992.10,271.25,-691.25,-262.50,1,94.293,
01/01/2000,01:12:23.63,21.11,-58.56,-992.10,183.75,-813.75,-280.0,1,94.296,
01/01/2000,01:12:23.64,21.11,-58.44,-992.10,236.25,-708.75,-437.50,1,94.300,
01/01/2000,01:12:23.66,20.98,-58.07,-992.10,280.0,-630.0,-288.75,1,94.303,
01/01/2000,01:12:23.67,20.98,-58.07,-992.10,192.50,-647.50,-306.25,1,94.306,
01/01/2000,01:12:23.68,20.98,-58.32,-992.10,271.25,-665.0,-428.75,1,94.310,
01/01/2000,01:12:23.69,20.98,-58.19,-991.98,122.50,-691.25,-367.50,1,94.313,
01/01/2000,01:12:23.70,21.23,-58.32,-992.10,183.75,-665.0,-306.25,1,94.317,
01/01/2000,01:12:23.71,21.11,-58.32,-992.23,87.50,-673.75,-385.0,1,94.320,
01/01/2000,01:12:23.72,20.98,-58.32,-992.23,157.50,-673.75,-402.50,1,94.324,
01/01/2000,01:12:23.73,20.86,-58.19,-992.10,70.0,-735.0,-350.0,1,94.270,
01/01/2000,01:12:23.74,20.98,-58.32,-991.98,-17.50,-656.25,-315.0,1,94.274,
01/01/2000,01:12:23.75,21.11,-58.44,-991.98,218.75,-743.75,-280.0,1,94.277,
01/01/2000,01:12:23.76,20.98,-58.44,-992.10,271.25,-647.50,-402.50,1,94.281,
01/01/2000,01:12:23.77,20.98,-58.44,-991.98,140.0,-778.75,-367.50,1,94.284,
01/01/2000,01:12:23.78,20.98,-58.32,-991.86,262.50,-665.0,-428.75,1,94.287,
01/01/2000,01:12:23.79,20.86,-58.07,-991.86,245.0,-673.75,-288.75,1,94.291,
01/01/2000,01:12:23.81,20.74,-58.32,-991.86,332.50,-656.25,-297.50,1,94.294,
01/01/2000,01:12:23.82,20.86,-58.32,-991.98,-8.75,-673.75,-297.50,1,94.298,
01/01/2000,01:12:23.83,20.74,-58.56,-991.86,183.75,-822.50,-358.75,1,94.301,
01/01/2000,01:12:23.84,20.74,-58.44,-991.74,8.75,-603.75,-323.75,1,94.305,
01/01/2000,01:12:23.85,20.86,-58.32,-991.62,175.0,-726.25,-315.0,1,94.308,
01/01/2000,01:12:23.86,20.98,-58.19,-991.86,166.25,-630.0,-315.0,1,94.311,
01/01/2000,01:12:23.87,20.98,-58.19,-991.98,271.25,-770.0,-393.75,1,94.315,
01/01/2000,01:12:23.88,20.98,-58.32,-991.86,210.0,-603.75,-350.0,1,94.318,
