rtcDate,rtcTime,aX,aY,aZ,gX,gY,gZ,dataRdy,output_Hz,
01/01/2000,01:30:06.80,16.35,-54.41,-862.78,122.50,-612.50,-236.25,1,100.0,
01/01/2000,01:30:06.82,16.71,-56.12,-892.80,201.25,-717.50,-297.50,1,100.0,
01/01/2000,01:30:06.83,17.20,-56.97,-905.12,218.75,-621.25,-280.0,1,100.0,
01/01/2000,01:30:06.84,17.57,-57.58,-915.61,210.0,-726.25,-341.25,1,100.0,
01/01/2000,01:30:06.85,17.81,-58.07,-924.88,157.50,-735.0,-411.25,1,100.0,
01/01/2000,01:30:06.86,17.93,-58.80,-936.96,70.0,-656.25,-341.25,1,100.0,
01/01/2000,01:30:06.87,18.18,-59.29,-943.91,245.0,-647.50,-315.0,1,100.0,
01/01/2000,01:30:06.88,18.30,-59.66,-949.89,183.75,-700.0,-315.0,1,88.889,
01/01/2000,01:30:06.89,18.42,-60.27,-957.46,122.50,-673.75,-376.25,1,90.0,
01/01/2000,01:30:06.90,18.54,-60.63,-961.60,78.75,-656.25,-472.50,1,90.909,
01/01/2000,01:30:06.91,18.79,-60.76,-965.63,105.0,-656.25,-367.50,1,91.667,
01/01/2000,01:30:06.92,18.79,-61.24,-969.05,157.50,-630.0,-341.25,1,92.308,
01/01/2000,01:30:06.93,18.79,-61.49,-972.10,192.50,-682.50,-358.75,1,92.857,
01/01/2000,01:30:06.94,18.54,-61.85,-975.63,262.50,-612.50,-393.75,1,93.333,
01/01/2000,01:30:06.95,18.54,-61.98,-977.71,175.0,-743.75,-306.25,1,93.750,
01/01/2000,01:30:06.96,18.67,-61.98,-979.54,175.0,-665.0,-297.50,1,94.118,
01/01/2000,01:30:06.97,18.67,-62.22,-981.98,113.75,-656.25,-297.50,1,94.444,
01/01/2000,01:30:06.98,18.67,-62.34,-983.32,113.75,-726.25,-288.75,1,94.737,
01/01/2000,01:30:06.99,18.79,-62.46,-984.42,52.50,-638.75,-315.0,1,95.0,
01/01/2000,01:30:07.00,18.91,-62.46,-985.52,122.50,-708.75,-280.0,1,95.238,
01/01/2000,01:30:07.02,19.03,-62.46,-986.98,140.0,-603.75,-402.50,1,95.455,
01/01/2000,01:30:07.03,19.03,-62.34,-987.71,105.0,-682.50,-341.25,1,95.652,
01/01/2000,01:30:07.04,18.91,-62.46,-988.44,166.25,-691.25,-271.25,1,95.833,
01/01/2000,01:30:07.05,18.79,-62.59,-988.93,175.0,-778.75,-350.0,1,96.0,
01/01/2000,01:30:07.06,18.79,-62.46,-989.66,201.25,-726.25,-393.75,1,96.154,
01/01/2000,01:30:07.07,18.91,-62.46,-990.15,271.25,-656.25,-367.50,1,96.296,
01/01/2000,01:30:07.08,18.91,-62.34,-990.64,122.50,-700.0,-367.50,1,96.429,
01/01/2000,01:30:07.09,18.91,-62.59,-991.13,131.25,-700.0,-393.75,1,96.552,
01/01/2000,01:30:07.10,18.91,-62.46,-991.37,271.25,-743.75,-218.75,1,96.667,
01/01/2000,01:30:07.11,18.91,-62.46,-991.74,210.0,-787.50,-323.75,1,96.774,
01/01/2000,01:30:07.12,18.91,-62.34,-991.86,113.75,-647.50,-350.0,1,96.875,
01/01/2000,01:30:07.13,18.91,-62.34,-991.86,175.0,-700.0,-306.25,1,96.970,
01/01/2000,01:30:07.14,18.79,-62.22,-991.98,210.0,-682.50,-463.75,1,97.059,
01/01/2000,01:30:07.15,18.79,-62.46,-991.98,245.0,-735.0,-332.50,1,94.444,
01/01/2000,01:30:07.16,18.79,-62.46,-992.10,113.75,-787.50,-262.50,1,94.595,
01/01/2000,01:30:07.17,18.91,-62.59,-992.35,113.75,-796.25,-271.25,1,94.737,
01/01/2000,01:30:07.18,18.79,-62.46,-992.23,271.25,-638.75,-402.50,1,94.872,
01/01/2000,01:30:07.19,18.79,-62.59,-992.23,61.25,-665.0,-332.50,1,95.0,
01/01/2000,01:30:07.20,18.79,-62.46,-992.35,78.75,-761.25,-306.25,1,95.122,
01/01/2000,01:30:07.21,18.79,-62.46,-992.35,131.25,-717.50,-350.0,1,95.238,
01/01/2000,01:30:07.23,19.03,-62.46,-992.35,70.0,-717.50,-332.50,1,95.349,
01/01/2000,01:30:07.24,18.91,-62.46,-992.35,166.25,-656.25,-315.0,1,95.455,
01/01/2000,01:30:07.25,18.79,-62.46,-992.35,157.50,-726.25,-341.25,1,95.556,
01/01/2000,01:30:07.26,18.79,-62.46,-992.23,175.0,-761.25,-367.50,1,95.652,
01/01/2000,01:30:07.27,18.79,-62.46,-992.47,157.50,-752.50,-315.0,1,95.745,
01/01/2000,01:30:07.28,18.79,-62.59,-992.59,78.75,-665.0,-323.75,1,95.833,
01/01/2000,01:30:07.29,18.79,-62.46,-992.71,105.0,-691.25,-280.0,1,95.918,
01/01/2000,01:30:07.30,18.79,-62.46,-992.59,96.25,-726.25,-297.50,1,96.0,
01/01/2000,01:30:07.31,18.79,-62.34,-992.59,227.50,-752.50,-367.50,1,96.078,
01/01/2000,01:30:07.33,18.79,-62.46,-992.59,218.75,-831.25,-227.50,1,94.340,
01/01/2000,01:30:07.34,18.67,-62.46,-992.71,218.75,-691.25,-376.25,1,94.444,
01/01/2000,01:30:07.35,18.67,-62.34,-992.71,122.50,-621.25,-367.50,1,94.545,
01/01/2000,01:30:07.36,18.67,-62.34,-992.71,96.25,-708.75,-227.50,1,94.643,
01/01/2000,01:30:07.37,18.67,-62.46,-992.84,26.25,-761.25,-297.50,1,94.737,
01/01/2000,01:30:07.38,18.79,-62.71,-992.84,183.75,-673.75,-332.50,1,94.828,
01/01/2000,01:30:07.39,18.79,-62.71,-992.84,210.0,-700.0,-315.0,1,94.915,
01/01/2000,01:30:07.40,18.54,-62.59,-992.59,52.50,-708.75,-376.25,1,95.0,
01/01/2000,01:30:07.41,18.54,-62.71,-992.47,105.0,-770.0,-297.50,1,95.082,
01/01/2000,01:30:07.42,18.79,-62.46,-992.59,157.50,-726.25,-297.50,1,95.161,
01/01/2000,01:30:07.43,18.91,-62.46,-992.71,175.0,-656.25,-376.25,1,95.238,
01/01/2000,01:30:07.44,18.79,-62.46,-992.59,227.50,-647.50,-271.25,1,95.313,
01/01/2000,01:30:07.45,18.79,-62.59,-992.47,140.0,-743.75,-297.50,1,95.385,
01/01/2000,01:30:07.46,18.79,-62.46,-992.47,70.0,-717.50,-288.75,1,95.455,
01/01/2000,01:30:07.47,19.03,-62.34,-992.47,148.75,-656.25,-332.50,1,95.522,
01/01/2000,01:30:07.48,19.03,-62.22,-992.59,157.50,-743.75,-315.0,1,95.588,
01/01/2000,01:30:07.49,19.03,-62.46,-992.47,280.0,-691.25,-341.25,1,95.652,
01/01/2000,01:30:07.50,19.03,-62.59,-992.59,61.25,-752.50,-341.25,1,94.366,
01/01/2000,01:30:07.51,19.15,-62.59,-992.59,245.0,-647.50,-306.25,1,94.444,
01/01/2000,01:30:07.52,19.03,-62.59,-992.47,122.50,-665.0,-358.75,1,94.521,
01/01/2000,01:30:07.53,19.03,-62.59,-992.47,218.75,-726.25,-385.0,1,94.595,
01/01/2000,01:30:07.54,19.03,-62.71,-992.59,131.25,-691.25,-341.25,1,94.667,
01/01/2000,01:30:07.55,18.79,-62.71,-992.59,122.50,-708.75,-411.25,1,94.737,
01/01/2000,01:30:07.56,18.79,-62.71,-992.47,245.0,-708.75,-288.75,1,94.805,
01/01/2000,01:30:07.58,18.79,-62.46,-992.47,87.50,-673.75,-315.0,1,94.872,
01/01/2000,01:30:07.59,18.79,-62.46,-992.47,122.50,-691.25,-332.50,1,94.937,
01/01/2000,01:30:07.60,18.79,-62.59,-992.47,78.75,-682.50,-341.25,1,95.0,
01/01/2000,01:30:07.61,18.91,-62.71,-992.47,262.50,-735.0,-385.0,1,95.062,
01/01/2000,01:30:07.62,18.79,-62.46,-992.47,157.50,-778.75,-393.75,1,95.122,
01/01/2000,01:30:07.63,18.79,-62.46,-992.59,61.25,-647.50,-306.25,1,95.181,
01/01/2000,01:30:07.64,18.79,-62.46,-992.35,157.50,-752.50,-350.0,1,95.238,
01/01/2000,01:30:07.65,18.91,-62.46,-992.35,306.25,-691.25,-253.75,1,94.186,
01/01/2000,01:30:07.66,18.91,-62.59,-992.10,131.25,-691.25,-332.50,1,94.253,
01/01/2000,01:30:07.67,18.91,-62.71,-992.35,131.25,-743.75,-306.25,1,94.318,
01/01/2000,01:30:07.68,18.91,-62.59,-992.23,78.75,-673.75,-306.25,1,94.382,
01/01/2000,01:30:07.69,19.03,-62.46,-992.23,227.50,-805.0,-315.0,1,94.444,
01/01/2000,01:30:07.70,19.03,-62.34,-992.10,183.75,-612.50,-306.25,1,94.505,
01/01/2000,01:30:07.72,19.03,-62.46,-992.23,280.0,-717.50,-341.25,1,94.565,
01/01/2000,01:30:07.73,18.91,-62.59,-992.35,87.50,-630.0,-385.0,1,94.624,
01/01/2000,01:30:07.74,19.03,-62.59,-992.35,70.0,-621.25,-315.0,1,94.681,
01/01/2000,01:30:07.75,19.03,-62.59,-992.10,166.25,-883.75,-367.50,1,94.737,
01/01/2000,01:30:07.76,19.03,-62.46,-992.10,183.75,-770.0,-385.0,1,94.792,
01/01/2000,01:30:07.77,19.03,-62.46,-991.98,35.0,-665.0,-253.75,1,94.845,
01/01/2000,01:30:07.78,19.03,-62.46,-992.10,131.25,-656.25,-332.50,1,94.898,
01/01/2000,01:30:07.79,19.15,-62.46,-992.35,157.50,-665.0,-332.50,1,94.949,
01/01/2000,01:30:07.80,19.28,-62.46,-992.23,271.25,-682.50,-420.0,1,95.0,
01/01/2000,01:30:07.81,19.15,-62.71,-992.23,122.50,-840.0,-288.75,1,95.050,
01/01/2000,01:30:07.82,19.15,-62.71,-992.23,122.50,-743.75,-332.50,1,95.098,
01/01/2000,01:30:07.84,19.03,-62.71,-992.10,271.25,-735.0,-350.0,1,94.231,
01/01/2000,01:30:07.85,19.15,-62.71,-992.10,166.25,-691.25,-201.25,1,94.286,
01/01/2000,01:30:07.86,19.03,-62.83,-992.10,148.75,-656.25,-393.75,1,94.340,
01/01/2000,01:30:07.87,18.91,-62.71,-992.10,297.50,-612.50,-367.50,1,94.393,
01/01/2000,01:30:07.88,18.91,-62.71,-992.10,183.75,-621.25,-245.0,1,94.444,
01/01/2000,01:30:07.89,19.03,-62.59,-992.23,140.0,-638.75,-253.75,1,94.495,
01/01/2000,01:30:07.90,19.03,-62.71,-992.35,140.0,-770.0,-402.50,1,94.545,
01/01/2000,01:30:07.91,19.03,-62.71,-992.35,70.0,-708.75,-323.75,1,94.595,
01/01/2000,01:30:07.92,19.03,-62.71,-992.35,201.25,-761.25,-288.75,1,94.643,
01/01/2000,01:30:07.93,19.03,-62.59,-992.35,192.50,-770.0,-315.0,1,94.690,
01/01/2000,01:30:07.94,19.03,-62.46,-992.47,113.75,-630.0,-332.50,1,94.737,
01/01/2000,01:30:07.95,19.03,-62.34,-992.35,192.50,-726.25,-376.25,1,94.783,
01/01/2000,01:30:07.96,18.91,-62.46,-992.23,175.0,-708.75,-420.0,1,94.828,
01/01/2000,01:30:07.97,18.91,-62.46,-992.23,52.50,-700.0,-341.25,1,94.872,
01/01/2000,01:30:07.98,19.03,-62.59,-992.10,35.0,-743.75,-288.75,1,94.915,
01/01/2000,01:30:07.99,19.03,-62.59,-992.35,96.25,-691.25,-367.50,1,94.958,
01/01/2000,01:30:08.00,19.15,-62.46,-992.47,122.50,-673.75,-411.25,1,95.0,
01/01/2000,01:30:08.01,19.03,-62.46,-992.35,96.25,-752.50,-367.50,1,95.041,
01/01/2000,01:30:08.02,19.03,-62.46,-992.35,175.0,-787.50,-428.75,1,95.082,
01/01/2000,01:30:08.03,18.91,-62.71,-992.35,175.0,-700.0,-280.0,1,95.122,
01/01/2000,01:30:08.04,19.03,-62.59,-992.47,175.0,-778.75,-376.25,1,95.161,
01/01/2000,01:30:08.05,19.03,-62.59,-992.47,113.75,-717.50,-306.25,1,95.200,
01/01/2000,01:30:08.06,18.91,-62.59,-992.35,-17.50,-630.0,-271.25,1,95.238,
01/01/2000,01:30:08.08,18.79,-62.71,-992.35,157.50,-726.25,-280.0,1,94.531,
01/01/2000,01:30:08.09,18.79,-62.71,-992.10,210.0,-682.50,-280.0,1,94.574,
01/01/2000,01:30:08.10,18.91,-62.71,-992.10,306.25,-665.0,-385.0,1,94.615,
01/01/2000,01:30:08.11,19.03,-62.59,-992.10,218.75,-682.50,-280.0,1,94.656,
01/01/2000,01:30:08.12,18.91,-62.71,-992.10,236.25,-665.0,-402.50,1,94.697,
01/01/2000,01:30:08.13,18.91,-62.59,-992.10,43.75,-665.0,-393.75,1,94.737,
01/01/2000,01:30:08.14,19.03,-62.71,-992.23,166.25,-656.25,-315.0,1,94.776,
01/01/2000,01:30:08.15,19.15,-62.71,-992.23,113.75,-630.0,-393.75,1,94.815,
01/01/2000,01:30:08.16,19.03,-62.71,-992.10,78.75,-735.0,-385.0,1,94.853,
01/01/2000,01:30:08.17,18.91,-62.71,-991.98,280.0,-682.50,-437.50,1,94.891,
01/01/2000,01:30:08.18,18.91,-62.71,-991.98,35.0,-647.50,-402.50,1,94.928,
01/01/2000,01:30:08.19,19.03,-62.71,-992.10,105.0,-717.50,-271.25,1,94.964,
01/01/2000,01:30:08.20,19.03,-62.95,-992.10,175.0,-717.50,-332.50,1,95.0,
01/01/2000,01:30:08.21,18.79,-62.95,-992.10,87.50,-743.75,-332.50,1,94.366,
01/01/2000,01:30:08.22,18.79,-62.95,-991.98,43.75,-673.75,-323.75,1,94.406,
01/01/2000,01:30:08.23,18.79,-62.95,-992.10,175.0,-638.75,-393.75,1,94.444,
01/01/2000,01:30:08.24,18.91,-62.95,-992.35,253.75,-595.0,-262.50,1,94.483,
01/01/2000,01:30:08.25,19.03,-62.71,-992.23,253.75,-752.50,-323.75,1,94.521,
01/01/2000,01:30:08.26,19.03,-62.71,-992.23,218.75,-726.25,-288.75,1,94.558,
01/01/2000,01:30:08.27,18.91,-62.83,-992.23,175.0,-708.75,-288.75,1,94.595,
01/01/2000,01:30:08.29,19.03,-62.83,-992.10,131.25,-673.75,-323.75,1,94.631,
01/01/2000,01:30:08.30,19.03,-62.71,-992.10,140.0,-656.25,-262.50,1,94.667,
01/01/2000,01:30:08.31,19.03,-62.59,-991.98,96.25,-691.25,-420.0,1,94.702,
01/01/2000,01:30:08.32,19.03,-62.71,-991.86,288.75,-673.75,-420.0,1,94.737,
01/01/2000,01:30:08.33,19.03,-62.59,-991.86,26.25,-673.75,-358.75,1,94.771,
01/01/2000,01:30:08.34,19.03,-62.46,-991.98,140.0,-586.25,-350.0,1,94.805,
01/01/2000,01:30:08.35,19.15,-62.46,-992.23,183.75,-682.50,-367.50,1,94.231,
01/01/2000,01:30:08.36,19.15,-62.59,-992.10,175.0,-717.50,-358.75,1,94.268,
01/01/2000,01:30:08.37,19.03,-62.59,-992.10,175.0,-682.50,-253.75,1,94.304,
01/01/2000,01:30:08.38,19.15,-62.59,-992.10,166.25,-682.50,-358.75,1,94.340,
01/01/2000,01:30:08.39,19.28,-62.59,-992.23,175.0,-682.50,-297.50,1,94.375,
01/01/2000,01:30:08.40,19.28,-62.46,-992.35,183.75,-665.0,-288.75,1,94.410,
01/01/2000,01:30:08.41,19.28,-62.46,-992.23,157.50,-656.25,-420.0,1,94.444,
01/01/2000,01:30:08.43,19.03,-62.22,-992.10,148.75,-761.25,-315.0,1,94.479,
01/01/2000,01:30:08.44,19.03,-62.34,-992.23,201.25,-682.50,-323.75,1,94.512,
01/01/2000,01:30:08.45,19.03,-62.46,-992.35,192.50,-717.50,-367.50,1,94.545,
01/01/2000,01:30:08.46,19.15,-62.46,-992.35,122.50,-700.0,-306.25,1,94.578,
01/01/2000,01:30:08.47,19.03,-62.46,-992.35,17.50,-638.75,-393.75,1,94.611,
01/01/2000,01:30:08.48,18.91,-62.59,-992.10,210.0,-796.25,-297.50,1,94.643,
01/01/2000,01:30:08.49,19.15,-62.46,-991.98,280.0,-638.75,-323.75,1,94.675,
01/01/2000,01:30:08.50,19.15,-62.59,-992.10,367.50,-638.75,-253.75,1,94.706,
01/01/2000,01:30:08.51,19.15,-62.59,-992.23,-26.25,-700.0,-315.0,1,94.737,
01/01/2000,01:30:08.52,19.03,-62.59,-992.23,192.50,-717.50,-332.50,1,94.767,
01/01/2000,01:30:08.53,19.03,-62.59,-992.10,70.0,-735.0,-411.25,1,94.798,
01/01/2000,01:30:08.54,19.03,-62.71,-992.10,96.25,-708.75,-367.50,1,94.828,
01/01/2000,01:30:08.55,19.03,-62.59,-992.10,227.50,-770.0,-201.25,1,94.857,
01/01/2000,01:30:08.56,19.03,-62.59,-992.10,253.75,-682.50,-367.50,1,94.350,
01/01/2000,01:30:08.57,19.03,-62.46,-991.98,87.50,-682.50,-350.0,1,94.382,
01/01/2000,01:30:08.58,19.03,-62.59,-991.86,201.25,-525.0,-376.25,1,94.413,
01/01/2000,01:30:08.59,19.15,-62.46,-991.86,105.0,-761.25,-315.0,1,94.444,
01/01/2000,01:30:08.60,19.28,-62.46,-991.86,236.25,-700.0,-367.50,1,94.475,
01/01/2000,01:30:08.61,19.15,-62.46,-991.86,157.50,-752.50,-385.0,1,94.505,
01/01/2000,01:30:08.62,19.03,-62.59,-991.74,131.25,-770.0,-341.25,1,94.536,
01/01/2000,01:30:08.64,19.03,-62.71,-991.86,183.75,-577.50,-306.25,1,94.565,
01/01/2000,01:30:08.65,19.15,-62.71,-991.98,105.0,-665.0,-341.25,1,94.595,
01/01/2000,01:30:08.66,19.28,-62.59,-991.86,140.0,-743.75,-297.50,1,94.624,
01/01/2000,01:30:08.67,19.28,-62.59,-991.86,192.50,-603.75,-306.25,1,94.652,
01/01/2000,01:30:08.68,19.15,-62.71,-991.86,262.50,-770.0,-323.75,1,94.681,
01/01/2000,01:30:08.69,19.15,-62.71,-992.10,157.50,-560.0,-306.25,1,94.709,
01/01/2000,01:30:08.70,19.28,-62.71,-992.10,148.75,-630.0,-402.50,1,94.737,
01/01/2000,01:30:08.71,19.28,-62.46,-992.10,175.0,-761.25,-306.25,1,94.271,
01/01/2000,01:30:08.72,19.28,-62.46,-992.23,201.25,-568.75,-411.25,1,94.301,
01/01/2000,01:30:08.73,19.15,-62.71,-992.23,183.75,-700.0,-367.50,1,94.330,
01/01/2000,01:30:08.74,19.03,-62.83,-992.35,96.25,-568.75,-490.0,1,94.359,
01/01/2000,01:30:08.75,19.28,-62.83,-992.23,262.50,-647.50,-332.50,1,94.388,
01/01/2000,01:30:08.76,19.28,-62.71,-992.10,166.25,-735.0,-297.50,1,94.416,
01/01/2000,01:30:08.78,19.03,-62.71,-991.98,192.50,-682.50,-393.75,1,94.444,
01/01/2000,01:30:08.79,19.03,-62.71,-991.98,148.75,-647.50,-507.50,1,94.472,
01/01/2000,01:30:08.80,19.03,-62.71,-992.10,175.0,-682.50,-315.0,1,94.500,
01/01/2000,01:30:08.81,19.03,-62.59,-992.35,131.25,-691.25,-385.0,1,94.527,
01/01/2000,01:30:08.82,19.03,-62.71,-992.35,210.0,-665.0,-262.50,1,94.554,
01/01/2000,01:30:08.83,18.91,-62.71,-992.23,253.75,-621.25,-358.75,1,94.581,
01/01/2000,01:30:08.84,18.91,-62.46,-992.10,166.25,-665.0,-210.0,1,94.608,
01/01/2000,01:30:08.85,19.15,-62.59,-992.35,280.0,-595.0,-288.75,1,94.175,
01/01/2000,01:30:08.87,19.15,-62.71,-992.35,17.50,-656.25,-253.75,1,94.203,
01/01/2000,01:30:08.88,19.03,-62.71,-992.10,140.0,-612.50,-271.25,1,94.231,
01/01/2000,01:30:08.89,19.03,-62.59,-991.98,166.25,-673.75,-350.0,1,94.258,
01/01/2000,01:30:08.90,19.15,-62.71,-991.86,35.0,-691.25,-332.50,1,94.286,
01/01/2000,01:30:08.91,19.28,-62.71,-992.10,78.75,-638.75,-350.0,1,94.313,
01/01/2000,01:30:08.92,19.28,-62.59,-992.10,157.50,-647.50,-358.75,1,94.340,
01/01/2000,01:30:08.93,19.03,-62.59,-992.10,61.25,-656.25,-332.50,1,94.366,
01/01/2000,01:30:08.94,19.03,-62.46,-992.10,210.0,-708.75,-385.0,1,94.393,
01/01/2000,01:30:08.95,19.03,-62.59,-992.10,87.50,-726.25,-332.50,1,94.419,
01/01/2000,01:30:08.96,19.03,-62.59,-992.10,192.50,-770.0,-332.50,1,94.444,
01/01/2000,01:30:08.97,19.15,-62.59,-992.10,166.25,-691.25,-341.25,1,94.470,
01/01/2000,01:30:08.98,19.03,-62.71,-992.10,140.0,-717.50,-280.0,1,94.495,
01/01/2000,01:30:08.99,19.15,-62.59,-992.10,175.0,-726.25,-411.25,1,94.521,
01/01/2000,01:30:09.00,19.03,-62.59,-991.98,157.50,-717.50,-358.75,1,94.545,
01/01/2000,01:30:09.01,19.03,-62.46,-992.10,183.75,-638.75,-350.0,1,94.570,
01/01/2000,01:30:09.02,19.03,-62.46,-991.98,61.25,-673.75,-411.25,1,94.595,
01/01/2000,01:30:09.03,18.91,-62.71,-991.86,271.25,-813.75,-350.0,1,94.619,
01/01/2000,01:30:09.04,19.03,-62.83,-991.74,105.0,-700.0,-297.50,1,94.643,
01/01/2000,01:30:09.05,19.03,-62.95,-991.74,175.0,-805.0,-341.25,1,94.667,
01/01/2000,01:30:09.06,18.91,-62.71,-991.86,96.25,-630.0,-358.75,1,94.690,
01/01/2000,01:30:09.07,18.91,-62.95,-991.86,157.50,-682.50,-420.0,1,94.714,
01/01/2000,01:30:09.08,19.03,-62.71,-991.74,17.50,-726.25,-332.50,1,94.737,
01/01/2000,01:30:09.09,19.03,-62.83,-991.74,210.0,-743.75,-367.50,1,94.760,
01/01/2000,01:30:09.10,19.03,-62.71,-991.74,175.0,-638.75,-288.75,1,94.783,
01/01/2000,01:30:09.11,19.03,-62.71,-991.74,218.75,-708.75,-332.50,1,94.805,
01/01/2000,01:30:09.12,19.03,-62.71,-991.86,17.50,-770.0,-358.75,1,94.828,
01/01/2000,01:30:09.13,18.79,-62.71,-991.86,140.0,-743.75,-297.50,1,94.444,
01/01/2000,01:30:09.14,18.79,-62.59,-991.86,157.50,-735.0,-332.50,1,94.468,
01/01/2000,01:30:09.15,18.79,-62.71,-991.98,210.0,-822.50,-376.25,1,94.492,
01/01/2000,01:30:09.16,18.91,-62.59,-992.10,315.0,-673.75,-262.50,1,94.515,
01/01/2000,01:30:09.17,18.91,-62.71,-992.10,122.50,-866.25,-358.75,1,94.538,
01/01/2000,01:30:09.18,18.91,-62.71,-992.10,210.0,-560.0,-315.0,1,94.561,
01/01/2000,01:30:09.20,18.79,-62.71,-991.98,105.0,-682.50,-437.50,1,94.583,
01/01/2000,01:30:09.21,18.91,-62.71,-992.10,140.0,-717.50,-332.50,1,94.606,
01/01/2000,01:30:09.22,19.15,-62.71,-992.10,148.75,-542.50,-402.50,1,94.628,
01/01/2000,01:30:09.23,19.15,-62.71,-992.10,253.75,-761.25,-350.0,1,94.650,
01/01/2000,01:30:09.24,19.03,-62.71,-992.10,131.25,-656.25,-437.50,1,94.672,
01/01/2000,01:30:09.25,19.03,-62.59,-992.10,61.25,-647.50,-288.75,1,94.694,
01/01/2000,01:30:09.26,19.03,-62.46,-991.98,218.75,-761.25,-262.50,1,94.715,
01/01/2000,01:30:09.27,19.15,-62.46,-991.86,113.75,-708.75,-297.50,1,94.355,
01/01/2000,01:30:09.28,19.28,-62.59,-991.98,148.75,-621.25,-280.0,1,94.378,
01/01/2000,01:30:09.29,19.15,-62.71,-991.86,201.25,-778.75,-376.25,1,94.400,
01/01/2000,01:30:09.30,19.03,-62.71,-991.86,113.75,-673.75,-332.50,1,94.422,
01/01/2000,01:30:09.31,19.15,-62.71,-992.10,61.25,-682.50,-323.75,1,94.444,
01/01/2000,01:30:09.32,19.15,-62.71,-992.10,201.25,-603.75,-402.50,1,94.466,
01/01/2000,01:30:09.34,19.28,-62.71,-992.10,218.75,-612.50,-332.50,1,94.488,
01/01/2000,01:30:09.35,19.15,-62.71,-991.98,183.75,-700.0,-350.0,1,94.510,
01/01/2000,01:30:09.36,19.03,-62.83,-991.98,78.75,-656.25,-411.25,1,94.531,
01/01/2000,01:30:09.37,18.91,-62.71,-992.10,96.25,-726.25,-262.50,1,94.553,
01/01/2000,01:30:09.38,19.03,-62.59,-992.10,297.50,-743.75,-253.75,1,94.574,
01/01/2000,01:30:09.39,19.03,-62.59,-992.23,175.0,-630.0,-385.0,1,94.595,
01/01/2000,01:30:09.40,18.91,-62.59,-992.35,122.50,-595.0,-437.50,1,94.615,
01/01/2000,01:30:09.41,18.91,-62.59,-992.23,70.0,-717.50,-402.50,1,94.275,
01/01/2000,01:30:09.42,18.91,-62.71,-992.35,210.0,-735.0,-245.0,1,94.297,
01/01/2000,01:30:09.43,18.91,-62.59,-992.47,166.25,-717.50,-210.0,1,94.318,
01/01/2000,01:30:09.44,18.91,-62.59,-992.35,78.75,-673.75,-315.0,1,94.340,
01/01/2000,01:30:09.45,18.79,-62.46,-992.23,306.25,-682.50,-393.75,1,94.361,
01/01/2000,01:30:09.46,18.67,-62.46,-992.23,105.0,-787.50,-385.0,1,94.382,
01/01/2000,01:30:09.47,18.79,-62.59,-992.35,122.50,-621.25,-350.0,1,94.403,
01/01/2000,01:30:09.48,18.91,-62.59,-992.23,140.0,-673.75,-332.50,1,94.424,
01/01/2000,01:30:09.49,19.03,-62.59,-992.23,131.25,-665.0,-262.50,1,94.444,
01/01/2000,01:30:09.50,18.91,-62.46,-992.35,175.0,-630.0,-350.0,1,94.465,
01/01/2000,01:30:09.52,18.79,-62.46,-992.35,96.25,-787.50,-411.25,1,94.485,
01/01/2000,01:30:09.52,18.91,-62.46,-992.35,105.0,-638.75,-350.0,1,94.505,
01/01/2000,01:30:09.54,19.03,-62.46,-992.35,245.0,-665.0,-306.25,1,94.526,
01/01/2000,01:30:09.55,18.91,-62.46,-992.23,61.25,-743.75,-306.25,1,94.545,
01/01/2000,01:30:09.56,18.91,-62.46,-992.10,43.75,-831.25,-323.75,1,94.565,
01/01/2000,01:30:09.57,18.91,-62.46,-992.10,105.0,-621.25,-315.0,1,94.585,
01/01/2000,01:30:09.58,19.03,-62.46,-992.10,131.25,-735.0,-332.50,1,94.604,
01/01/2000,01:30:09.59,18.91,-62.46,-992.10,210.0,-682.50,-341.25,1,94.624,
01/01/2000,01:30:09.60,18.79,-62.46,-992.10,-8.75,-621.25,-332.50,1,94.643,
01/01/2000,01:30:09.61,18.79,-62.34,-992.10,183.75,-682.50,-341.25,1,94.662,
01/01/2000,01:30:09.62,18.91,-62.46,-992.35,105.0,-682.50,-367.50,1,94.346,
01/01/2000,01:30:09.63,19.03,-62.46,-992.35,245.0,-673.75,-288.75,1,94.366,
01/01/2000,01:30:09.64,19.03,-62.46,-992.23,70.0,-770.0,-393.75,1,94.386,
01/01/2000,01:30:09.65,19.03,-62.46,-992.10,210.0,-586.25,-236.25,1,94.406,
01/01/2000,01:30:09.66,19.15,-62.46,-992.10,131.25,-700.0,-393.75,1,94.425,
01/01/2000,01:30:09.67,19.28,-62.46,-991.98,201.25,-647.50,-341.25,1,94.444,
01/01/2000,01:30:09.68,19.15,-62.46,-992.10,131.25,-595.0,-402.50,1,94.464,
01/01/2000,01:30:09.70,19.03,-62.46,-992.10,131.25,-770.0,-332.50,1,94.483,
01/01/2000,01:30:09.71,19.03,-62.46,-992.23,210.0,-586.25,-367.50,1,94.502,
01/01/2000,01:30:09.72,19.03,-62.46,-992.10,105.0,-743.75,-341.25,1,94.521,
01/01/2000,01:30:09.73,18.91,-62.46,-991.98,131.25,-717.50,-288.75,1,94.539,
01/01/2000,01:30:09.74,19.03,-62.71,-991.86,236.25,-735.0,-297.50,1,94.558,
01/01/2000,01:30:09.75,19.03,-62.71,-991.98,175.0,-708.75,-297.50,1,94.576,
01/01/2000,01:30:09.76,19.03,-62.71,-991.98,218.75,-682.50,-367.50,1,94.595,
01/01/2000,01:30:09.77,19.15,-62.71,-991.86,131.25,-665.0,-385.0,1,94.613,
01/01/2000,01:30:09.78,19.03,-62.71,-991.86,26.25,-735.0,-280.0,1,94.631,
01/01/2000,01:30:09.79,19.03,-62.71,-991.98,236.25,-770.0,-358.75,1,94.649,
01/01/2000,01:30:09.80,19.03,-62.59,-992.23,183.75,-665.0,-315.0,1,94.667,
01/01/2000,01:30:09.81,19.03,-62.71,-992.23,192.50,-726.25,-358.75,1,94.684,
01/01/2000,01:30:09.82,19.03,-62.71,-992.23,157.50,-682.50,-420.0,1,94.702,
01/01/2000,01:30:09.83,18.91,-62.71,-992.23,87.50,-708.75,-262.50,1,94.408,
01/01/2000,01:30:09.85,19.03,-62.71,-991.86,236.25,-647.50,-341.25,1,94.426,
01/01/2000,01:30:09.86,18.91,-62.59,-991.86,157.50,-787.50,-358.75,1,94.444,
01/01/2000,01:30:09.87,19.03,-62.71,-991.86,140.0,-630.0,-332.50,1,94.463,
01/01/2000,01:30:09.88,18.91,-62.71,-991.86,183.75,-708.75,-411.25,1,94.481,
01/01/2000,01:30:09.89,19.03,-62.59,-991.98,140.0,-568.75,-350.0,1,94.498,
01/01/2000,01:30:09.90,19.03,-62.71,-992.23,113.75,-656.25,-323.75,1,94.516,
01/01/2000,01:30:09.91,19.03,-62.71,-992.35,210.0,-665.0,-367.50,1,94.231,
01/01/2000,01:30:09.92,19.03,-62.71,-992.35,227.50,-647.50,-411.25,1,94.249,
01/01/2000,01:30:09.93,19.15,-62.59,-992.35,297.50,-726.25,-332.50,1,94.268,
01/01/2000,01:30:09.94,19.03,-62.71,-992.23,113.75,-717.50,-385.0,1,94.286,
01/01/2000,01:30:09.95,19.15,-62.59,-991.98,166.25,-673.75,-332.50,1,94.304,
01/01/2000,01:30:09.96,19.15,-62.71,-991.98,175.0,-743.75,-393.75,1,94.322,
01/01/2000,01:30:09.97,19.28,-62.71,-991.98,210.0,-752.50,-332.50,1,94.340,
01/01/2000,01:30:09.98,19.28,-62.83,-991.98,175.0,-735.0,-341.25,1,94.357,
01/01/2000,01:30:09.99,19.28,-62.71,-991.86,183.75,-603.75,-385.0,1,94.375,
01/01/2000,01:30:10.00,19.28,-62.71,-991.86,122.50,-647.50,-297.50,1,94.393,
01/01/2000,01:30:10.01,19.28,-62.71,-992.10,52.50,-717.50,-350.0,1,94.410,
01/01/2000,01:30:10.02,19.28,-62.71,-991.98,148.75,-586.25,-323.75,1,94.427,
01/01/2000,01:30:10.03,19.15,-62.83,-991.98,297.50,-883.75,-358.75,1,94.444,
01/01/2000,01:30:10.05,19.15,-62.83,-992.10,131.25,-778.75,-341.25,1,94.462,
01/01/2000,01:30:10.06,19.15,-62.83,-992.10,8.75,-770.0,-323.75,1,94.479,
01/01/2000,01:30:10.07,19.15,-62.71,-992.10,140.0,-770.0,-280.0,1,94.495,
01/01/2000,01:30:10.08,19.28,-62.71,-992.10,166.25,-726.25,-271.25,1,94.512,
01/01/2000,01:30:10.09,19.28,-62.71,-992.10,210.0,-630.0,-350.0,1,94.529,
01/01/2000,01:30:10.10,19.28,-62.71,-992.10,210.0,-630.0,-393.75,1,94.545,
01/01/2000,01:30:10.11,19.40,-62.83,-992.10,192.50,-700.0,-367.50,1,94.562,
01/01/2000,01:30:10.12,19.52,-62.71,-991.98,175.0,-717.50,-288.75,1,94.578,
01/01/2000,01:30:10.13,19.52,-62.71,-992.10,227.50,-621.25,-262.50,1,94.595,
01/01/2000,01:30:10.14,19.40,-62.59,-991.86,96.25,-691.25,-288.75,1,94.611,
01/01/2000,01:30:10.15,19.28,-62.59,-991.98,210.0,-682.50,-350.0,1,94.627,
01/01/2000,01:30:10.16,19.28,-62.71,-991.98,175.0,-603.75,-420.0,1,94.643,
01/01/2000,01:30:10.17,19.28,-62.71,-992.10,183.75,-743.75,-376.25,1,94.659,
01/01/2000,01:30:10.18,19.03,-62.46,-992.10,218.75,-708.75,-280.0,1,94.395,
01/01/2000,01:30:10.19,19.03,-62.59,-991.98,306.25,-743.75,-358.75,1,94.412,
01/01/2000,01:30:10.20,19.03,-62.59,-992.10,113.75,-700.0,-376.25,1,94.428,
01/01/2000,01:30:10.21,19.15,-62.46,-992.10,253.75,-665.0,-323.75,1,94.444,
01/01/2000,01:30:10.22,19.15,-62.46,-992.10,218.75,-700.0,-367.50,1,94.461,
01/01/2000,01:30:10.23,19.03,-62.46,-992.10,183.75,-717.50,-376.25,1,94.477,
01/01/2000,01:30:10.24,18.91,-62.59,-991.86,113.75,-743.75,-341.25,1,94.493,
01/01/2000,01:30:10.26,19.03,-62.59,-991.86,131.25,-700.0,-288.75,1,94.509,
01/01/2000,01:30:10.27,19.15,-62.83,-991.98,227.50,-656.25,-297.50,1,94.524,
01/01/2000,01:30:10.28,19.03,-62.83,-992.10,192.50,-647.50,-306.25,1,94.540,
01/01/2000,01:30:10.29,19.03,-62.83,-992.10,105.0,-691.25,-376.25,1,94.556,
01/01/2000,01:30:10.30,19.03,-62.83,-992.10,122.50,-717.50,-385.0,1,94.571,
01/01/2000,01:30:10.31,19.03,-62.71,-992.10,122.50,-665.0,-376.25,1,94.587,
01/01/2000,01:30:10.32,19.15,-62.71,-992.10,192.50,-673.75,-393.75,1,94.602,
01/01/2000,01:30:10.33,19.15,-62.95,-992.10,122.50,-621.25,-297.50,1,94.618,
01/01/2000,01:30:10.34,19.15,-62.83,-992.10,245.0,-735.0,-367.50,1,94.366,
01/01/2000,01:30:10.35,19.03,-62.95,-992.10,201.25,-673.75,-280.0,1,94.382,
01/01/2000,01:30:10.36,19.03,-62.83,-992.10,140.0,-743.75,-271.25,1,94.398,
01/01/2000,01:30:10.37,19.15,-62.83,-992.10,253.75,-603.75,-367.50,1,94.413,
01/01/2000,01:30:10.39,19.15,-62.71,-992.10,113.75,-700.0,-315.0,1,94.429,
01/01/2000,01:30:10.40,19.15,-62.71,-991.98,131.25,-682.50,-297.50,1,94.444,
01/01/2000,01:30:10.41,19.03,-62.59,-991.98,175.0,-560.0,-323.75,1,94.460,
01/01/2000,01:30:10.42,18.91,-62.46,-992.10,253.75,-638.75,-323.75,1,94.475,
01/01/2000,01:30:10.43,18.79,-62.46,-992.10,227.50,-700.0,-297.50,1,94.490,
01/01/2000,01:30:10.44,18.91,-62.59,-992.10,210.0,-761.25,-402.50,1,94.505,
01/01/2000,01:30:10.45,18.91,-62.71,-991.98,140.0,-717.50,-367.50,1,94.521,
01/01/2000,01:30:10.46,18.91,-62.71,-991.86,192.50,-735.0,-297.50,1,94.536,
01/01/2000,01:30:10.47,19.03,-62.71,-992.10,210.0,-813.75,-393.75,1,94.550,
01/01/2000,01:30:10.48,19.03,-62.46,-991.98,78.75,-761.25,-288.75,1,94.565,
01/01/2000,01:30:10.49,19.03,-62.46,-991.86,78.75,-691.25,-341.25,1,94.580,
01/01/2000,01:30:10.50,18.91,-62.46,-991.86,140.0,-735.0,-332.50,1,94.595,
01/01/2000,01:30:10.51,18.91,-62.46,-991.86,166.25,-586.25,-323.75,1,94.609,
01/01/2000,01:30:10.52,19.03,-62.59,-991.86,148.75,-708.75,-385.0,1,94.624,
01/01/2000,01:30:10.53,19.03,-62.71,-991.98,61.25,-656.25,-341.25,1,94.638,
01/01/2000,01:30:10.54,19.03,-62.71,-992.10,35.0,-700.0,-341.25,1,94.400,
01/01/2000,01:30:10.56,18.91,-62.71,-991.98,210.0,-647.50,-428.75,1,94.415,
01/01/2000,01:30:10.56,18.91,-62.71,-991.98,183.75,-743.75,-271.25,1,94.430,
01/01/2000,01:30:10.58,19.03,-62.71,-991.98,236.25,-691.25,-358.75,1,94.444,
01/01/2000,01:30:10.59,19.03,-62.71,-991.86,131.25,-700.0,-367.50,1,94.459,
01/01/2000,01:30:10.60,18.91,-62.71,-991.86,157.50,-708.75,-402.50,1,94.474,
01/01/2000,01:30:10.61,18.91,-62.46,-991.86,192.50,-612.50,-262.50,1,94.488,
01/01/2000,01:30:10.62,18.91,-62.46,-991.98,227.50,-735.0,-280.0,1,94.503,
01/01/2000,01:30:10.63,18.91,-62.46,-991.98,148.75,-770.0,-323.75,1,94.517,
01/01/2000,01:30:10.64,19.03,-62.59,-991.98,253.75,-726.25,-367.50,1,94.531,
01/01/2000,01:30:10.65,19.03,-62.59,-991.98,87.50,-665.0,-350.0,1,94.545,
01/01/2000,01:30:10.66,19.03,-62.46,-991.98,210.0,-717.50,-271.25,1,94.560,
01/01/2000,01:30:10.67,19.15,-62.34,-991.86,140.0,-717.50,-341.25,1,94.574,
01/01/2000,01:30:10.68,18.91,-62.34,-991.86,175.0,-717.50,-402.50,1,94.344,
01/01/2000,01:30:10.69,18.79,-62.46,-991.74,175.0,-673.75,-297.50,1,94.359,
01/01/2000,01:30:10.70,18.91,-62.46,-991.86,140.0,-691.25,-183.75,1,94.373,
01/01/2000,01:30:10.71,19.03,-62.46,-991.86,192.50,-708.75,-367.50,1,94.388,
01/01/2000,01:30:10.72,19.03,-62.46,-991.86,157.50,-647.50,-393.75,1,94.402,
01/01/2000,01:30:10.73,19.03,-62.46,-991.86,271.25,-647.50,-341.25,1,94.416,
01/01/2000,01:30:10.75,18.91,-62.46,-991.98,183.75,-673.75,-358.75,1,94.430,
01/01/2000,01:30:10.76,19.03,-62.34,-991.86,157.50,-673.75,-262.50,1,94.444,
01/01/2000,01:30:10.77,18.91,-62.34,-991.86,245.0,-647.50,-332.50,1,94.458,
01/01/2000,01:30:10.78,18.91,-62.46,-991.74,87.50,-700.0,-297.50,1,94.472,
01/01/2000,01:30:10.79,19.03,-62.71,-991.62,253.75,-682.50,-420.0,1,94.486,
01/01/2000,01:30:10.80,18.91,-62.46,-991.74,131.25,-726.25,-323.75,1,94.500,
01/01/2000,01:30:10.81,19.03,-62.46,-991.86,78.75,-630.0,-446.25,1,94.514,
01/01/2000,01:30:10.82,19.03,-62.46,-991.86,166.25,-735.0,-262.50,1,94.527,
01/01/2000,01:30:10.83,19.15,-62.59,-991.62,218.75,-700.0,-271.25,1,94.541,
01/01/2000,01:30:10.84,19.15,-62.59,-991.62,271.25,-673.75,-358.75,1,94.554,
01/01/2000,01:30:10.85,19.15,-62.46,-991.49,175.0,-752.50,-288.75,1,94.568,
01/01/2000,01:30:10.86,19.03,-62.59,-991.62,140.0,-708.75,-385.0,1,94.581,
01/01/2000,01:30:10.87,18.79,-62.59,-991.74,78.75,-665.0,-385.0,1,94.595,
01/01/2000,01:30:10.88,18.79,-62.46,-991.86,148.75,-612.50,-323.75,1,94.608,
01/01/2000,01:30:10.90,19.03,-62.46,-991.86,113.75,-682.50,-280.0,1,94.390,
01/01/2000,01:30:10.91,18.91,-62.46,-991.74,306.25,-717.50,-472.50,1,94.404,
01/01/2000,01:30:10.92,18.91,-62.46,-991.74,175.0,-735.0,-376.25,1,94.417,
01/01/2000,01:30:10.93,19.03,-62.46,-991.86,17.50,-700.0,-411.25,1,94.431,
01/01/2000,01:30:10.94,19.03,-62.46,-991.86,175.0,-647.50,-280.0,1,94.444,
01/01/2000,01:30:10.95,19.03,-62.22,-991.86,148.75,-665.0,-376.25,1,94.458,
01/01/2000,01:30:10.96,18.91,-62.22,-991.86,201.25,-796.25,-280.0,1,94.245,
01/01/2000,01:30:10.97,18.91,-62.34,-991.74,87.50,-647.50,-402.50,1,94.258,
01/01/2000,01:30:10.98,18.91,-62.46,-991.86,105.0,-682.50,-393.75,1,94.272,
01/01/2000,01:30:10.99,19.03,-62.46,-991.74,201.25,-770.0,-393.75,1,94.286,
01/01/2000,01:30:11.00,18.91,-62.34,-991.74,175.0,-673.75,-350.0,1,94.299,
01/01/2000,01:30:11.01,18.79,-62.34,-991.74,148.75,-691.25,-262.50,1,94.313,
01/01/2000,01:30:11.02,18.79,-62.34,-991.86,105.0,-700.0,-323.75,1,94.326,
01/01/2000,01:30:11.03,18.79,-62.46,-992.10,157.50,-647.50,-288.75,1,94.340,
01/01/2000,01:30:11.04,18.91,-62.46,-992.10,271.25,-630.0,-437.50,1,94.353,
01/01/2000,01:30:11.05,18.91,-62.34,-991.98,166.25,-726.25,-411.25,1,94.366,
01/01/2000,01:30:11.06,18.91,-62.46,-991.98,157.50,-673.75,-350.0,1,94.379,
01/01/2000,01:30:11.07,18.79,-62.46,-992.10,218.75,-708.75,-376.25,1,94.393,
01/01/2000,01:30:11.08,18.79,-62.46,-992.10,183.75,-717.50,-350.0,1,94.406,
01/01/2000,01:30:11.09,18.79,-62.59,-992.10,-8.75,-656.25,-306.25,1,94.419,
01/01/2000,01:30:11.11,18.91,-62.59,-992.10,140.0,-787.50,-315.0,1,94.432,
01/01/2000,01:30:11.12,18.91,-62.71,-991.86,43.75,-647.50,-455.0,1,94.444,
01/01/2000,01:30:11.13,18.91,-62.83,-991.86,157.50,-700.0,-341.25,1,94.457,
01/01/2000,01:30:11.14,18.91,-62.95,-991.98,113.75,-726.25,-358.75,1,94.470,
01/01/2000,01:30:11.15,18.79,-62.83,-992.10,175.0,-647.50,-420.0,1,94.483,
01/01/2000,01:30:11.16,18.79,-62.71,-992.23,140.0,-700.0,-393.75,1,94.495,
01/01/2000,01:30:11.17,18.91,-62.83,-991.98,183.75,-665.0,-306.25,1,94.292,
01/01/2000,01:30:11.18,19.03,-62.83,-991.98,192.50,-656.25,-332.50,1,94.305,
01/01/2000,01:30:11.19,19.03,-62.83,-991.98,192.50,-691.25,-420.0,1,94.318,
01/01/2000,01:30:11.20,19.03,-62.95,-992.10,70.0,-665.0,-315.0,1,94.331,
01/01/2000,01:30:11.21,19.03,-62.83,-992.23,0.0,-717.50,-306.25,1,94.344,
01/01/2000,01:30:11.22,18.91,-62.83,-992.10,61.25,-630.0,-402.50,1,94.357,
01/01/2000,01:30:11.23,19.03,-62.59,-991.98,280.0,-595.0,-323.75,1,94.369,
01/01/2000,01:30:11.25,19.03,-62.71,-992.10,210.0,-665.0,-376.25,1,94.382,
01/01/2000,01:30:11.26,19.03,-62.71,-992.10,227.50,-673.75,-323.75,1,94.395,
01/01/2000,01:30:11.27,19.03,-62.95,-992.10,192.50,-665.0,-297.50,1,94.407,
01/01/2000,01:30:11.28,19.03,-62.95,-992.10,122.50,-673.75,-428.75,1,94.420,
01/01/2000,01:30:11.29,18.91,-62.83,-992.10,201.25,-726.25,-315.0,1,94.432,
01/01/2000,01:30:11.30,19.03,-62.59,-992.10,70.0,-743.75,-323.75,1,94.444,
01/01/2000,01:30:11.31,19.03,-62.71,-992.10,175.0,-621.25,-350.0,1,94.457,
01/01/2000,01:30:11.32,18.79,-62.71,-991.98,227.50,-507.50,-315.0,1,94.469,
01/01/2000,01:30:11.33,18.79,-62.71,-991.86,166.25,-621.25,-358.75,1,94.481,
01/01/2000,01:30:11.34,18.79,-62.59,-991.98,201.25,-647.50,-358.75,1,94.493,
01/01/2000,01:30:11.35,18.79,-62.59,-992.10,175.0,-542.50,-306.25,1,94.505,
01/01/2000,01:30:11.36,18.79,-62.71,-992.10,166.25,-682.50,-280.0,1,94.518,
01/01/2000,01:30:11.37,18.79,-62.83,-992.23,105.0,-796.25,-385.0,1,94.530,
01/01/2000,01:30:11.38,18.79,-62.95,-992.35,306.25,-665.0,-323.75,1,94.336,
01/01/2000,01:30:11.39,18.79,-62.83,-992.35,245.0,-665.0,-376.25,1,94.348,
01/01/2000,01:30:11.40,18.91,-62.83,-992.10,245.0,-708.75,-376.25,1,94.360,
01/01/2000,01:30:11.42,18.79,-62.95,-991.86,183.75,-700.0,-271.25,1,94.372,
01/01/2000,01:30:11.43,18.54,-62.83,-991.86,61.25,-665.0,-367.50,1,94.181,
01/01/2000,01:30:11.44,18.67,-62.95,-991.86,227.50,-665.0,-385.0,1,94.194,
01/01/2000,01:30:11.45,18.67,-62.95,-991.86,288.75,-708.75,-332.50,1,94.206,
01/01/2000,01:30:11.46,18.67,-62.83,-991.74,210.0,-638.75,-306.25,1,94.218,
01/01/2000,01:30:11.47,18.67,-62.71,-991.74,288.75,-761.25,-262.50,1,94.231,
01/01/2000,01:30:11.48,18.79,-62.71,-991.86,96.25,-638.75,-271.25,1,94.243,
01/01/2000,01:30:11.50,18.79,-62.95,-991.98,148.75,-708.75,-306.25,1,94.255,
01/01/2000,01:30:11.50,18.79,-62.71,-992.10,183.75,-813.75,-306.25,1,94.268,
01/01/2000,01:30:11.52,18.91,-62.59,-991.98,323.75,-735.0,-376.25,1,94.280,
01/01/2000,01:30:11.53,18.79,-62.59,-992.10,122.50,-656.25,-367.50,1,94.292,
01/01/2000,01:30:11.54,18.79,-62.46,-991.86,35.0,-796.25,-332.50,1,94.304,
01/01/2000,01:30:11.55,18.79,-62.71,-991.86,166.25,-831.25,-332.50,1,94.316,
01/01/2000,01:30:11.56,18.79,-62.59,-991.98,96.25,-691.25,-341.25,1,94.328,
01/01/2000,01:30:11.57,18.79,-62.71,-991.98,148.75,-805.0,-358.75,1,94.340,
01/01/2000,01:30:11.58,18.67,-62.59,-991.86,113.75,-665.0,-393.75,1,94.351,
01/01/2000,01:30:11.59,19.03,-62.59,-991.86,201.25,-656.25,-245.0,1,94.363,
01/01/2000,01:30:11.60,19.28,-62.71,-992.10,157.50,-665.0,-437.50,1,94.375,
01/01/2000,01:30:11.61,19.15,-62.71,-992.10,183.75,-735.0,-323.75,1,94.387,
01/01/2000,01:30:11.62,19.15,-62.71,-992.10,148.75,-796.25,-332.50,1,94.398,
01/01/2000,01:30:11.63,19.03,-62.71,-992.10,201.25,-700.0,-332.50,1,94.410,
01/01/2000,01:30:11.64,19.15,-62.46,-991.98,201.25,-743.75,-367.50,1,94.421,
01/01/2000,01:30:11.65,19.28,-62.59,-991.86,122.50,-805.0,-323.75,1,94.433,
01/01/2000,01:30:11.66,19.15,-62.46,-991.74,253.75,-691.25,-350.0,1,94.444,
01/01/2000,01:30:11.67,18.91,-62.71,-991.86,236.25,-735.0,-411.25,1,94.262,
01/01/2000,01:30:11.68,19.03,-62.71,-991.86,175.0,-708.75,-315.0,1,94.274,
01/01/2000,01:30:11.69,19.03,-62.46,-991.86,218.75,-673.75,-332.50,1,94.286,
01/01/2000,01:30:11.71,19.03,-62.34,-992.10,35.0,-743.75,-227.50,1,94.297,
01/01/2000,01:30:11.71,19.03,-62.46,-991.98,210.0,-787.50,-402.50,1,94.309,
01/01/2000,01:30:11.73,19.03,-62.59,-991.98,157.50,-665.0,-385.0,1,94.320,
01/01/2000,01:30:11.74,18.91,-62.71,-991.86,87.50,-805.0,-367.50,1,94.332,
01/01/2000,01:30:11.75,18.91,-62.59,-991.98,332.50,-726.25,-367.50,1,94.343,
01/01/2000,01:30:11.76,18.79,-62.46,-991.74,157.50,-638.75,-323.75,1,94.355,
01/01/2000,01:30:11.77,18.79,-62.46,-991.74,122.50,-700.0,-306.25,1,94.366,
01/01/2000,01:30:11.78,18.79,-62.46,-991.74,253.75,-656.25,-367.50,1,94.378,
01/01/2000,01:30:11.79,18.67,-62.71,-991.86,122.50,-656.25,-455.0,1,94.389,
01/01/2000,01:30:11.80,18.79,-62.71,-991.86,96.25,-673.75,-393.75,1,94.400,
01/01/2000,01:30:11.81,18.79,-62.71,-991.62,201.25,-621.25,-367.50,1,94.223,
01/01/2000,01:30:11.82,18.67,-62.59,-991.62,122.50,-682.50,-227.50,1,94.235,
01/01/2000,01:30:11.83,18.67,-62.59,-991.62,175.0,-647.50,-315.0,1,94.246,
01/01/2000,01:30:11.84,18.54,-62.59,-991.74,140.0,-630.0,-315.0,1,94.257,
01/01/2000,01:30:11.85,18.79,-62.71,-991.86,96.25,-708.75,-306.25,1,94.269,
01/01/2000,01:30:11.86,19.03,-62.71,-991.62,175.0,-813.75,-358.75,1,94.280,
01/01/2000,01:30:11.87,19.03,-62.71,-991.62,166.25,-700.0,-385.0,1,94.291,
01/01/2000,01:30:11.89,19.03,-62.71,-991.74,166.25,-656.25,-411.25,1,94.303,
01/01/2000,01:30:11.90,19.03,-62.46,-991.74,245.0,-603.75,-341.25,1,94.314,
01/01/2000,01:30:11.91,19.15,-62.59,-991.86,236.25,-752.50,-315.0,1,94.325,
01/01/2000,01:30:11.92,18.91,-62.71,-991.86,175.0,-752.50,-367.50,1,94.336,
01/01/2000,01:30:11.93,18.91,-62.71,-991.86,271.25,-691.25,-428.75,1,94.163,
01/01/2000,01:30:11.94,18.79,-62.46,-991.86,105.0,-665.0,-315.0,1,94.175,
01/01/2000,01:30:11.95,18.79,-62.59,-991.98,122.50,-778.75,-393.75,1,94.186,
01/01/2000,01:30:11.96,18.91,-62.46,-992.10,0.0,-700.0,-218.75,1,94.197,
01/01/2000,01:30:11.97,18.91,-62.46,-991.86,131.25,-673.75,-402.50,1,94.208,
01/01/2000,01:30:11.98,18.91,-62.46,-991.86,87.50,-717.50,-315.0,1,94.220,
01/01/2000,01:30:11.99,19.03,-62.59,-991.74,148.75,-647.50,-288.75,1,94.231,
01/01/2000,01:30:12.00,19.03,-62.46,-991.98,113.75,-787.50,-306.25,1,94.242,
01/01/2000,01:30:12.01,19.03,-62.46,-991.98,96.25,-708.75,-288.75,1,94.253,
01/01/2000,01:30:12.03,19.03,-62.34,-991.86,227.50,-717.50,-393.75,1,94.264,
01/01/2000,01:30:12.04,19.03,-62.46,-991.86,175.0,-770.0,-411.25,1,94.275,
01/01/2000,01:30:12.05,19.03,-62.46,-991.86,201.25,-638.75,-315.0,1,94.286,
01/01/2000,01:30:12.06,19.03,-62.59,-991.98,297.50,-708.75,-367.50,1,94.297,
01/01/2000,01:30:12.07,19.03,-62.46,-991.98,210.0,-700.0,-455.0,1,94.307,
01/01/2000,01:30:12.08,18.91,-62.59,-991.98,148.75,-638.75,-376.25,1,94.318,
01/01/2000,01:30:12.09,18.79,-62.71,-991.98,166.25,-735.0,-332.50,1,94.329,
01/01/2000,01:30:12.10,18.91,-62.71,-992.10,175.0,-691.25,-402.50,1,94.340,
01/01/2000,01:30:12.11,19.03,-62.59,-992.10,183.75,-673.75,-271.25,1,94.350,
01/01/2000,01:30:12.12,18.79,-62.71,-992.10,166.25,-665.0,-341.25,1,94.361,
01/01/2000,01:30:12.13,18.91,-62.59,-991.98,140.0,-665.0,-411.25,1,94.371,
01/01/2000,01:30:12.14,19.03,-62.71,-991.98,245.0,-603.75,-332.50,1,94.382,
01/01/2000,01:30:12.15,19.03,-62.71,-991.98,61.25,-796.25,-350.0,1,94.393,
01/01/2000,01:30:12.16,19.03,-62.71,-992.10,218.75,-787.50,-280.0,1,94.403,
01/01/2000,01:30:12.17,19.03,-62.59,-992.10,210.0,-673.75,-358.75,1,94.413,
01/01/2000,01:30:12.18,18.91,-62.46,-991.98,166.25,-726.25,-376.25,1,94.424,
01/01/2000,01:30:12.19,18.79,-62.71,-992.10,131.25,-647.50,-428.75,1,94.434,
01/01/2000,01:30:12.20,18.79,-62.83,-992.10,236.25,-708.75,-280.0,1,94.444,
01/01/2000,01:30:12.21,18.79,-62.83,-991.98,236.25,-717.50,-376.25,1,94.455,
01/01/2000,01:30:12.22,18.79,-62.83,-991.98,113.75,-682.50,-358.75,1,94.465,
01/01/2000,01:30:12.24,18.54,-62.71,-991.98,105.0,-743.75,-376.25,1,94.301,
01/01/2000,01:30:12.25,18.54,-62.71,-992.10,96.25,-630.0,-350.0,1,94.312,
01/01/2000,01:30:12.26,18.54,-62.71,-991.98,201.25,-638.75,-288.75,1,94.322,
01/01/2000,01:30:12.27,18.54,-62.71,-991.86,157.50,-708.75,-350.0,1,94.333,
01/01/2000,01:30:12.28,18.54,-62.95,-991.74,140.0,-621.25,-341.25,1,94.343,
01/01/2000,01:30:12.29,18.54,-62.83,-991.74,332.50,-665.0,-288.75,1,94.353,
01/01/2000,01:30:12.30,18.54,-62.83,-991.86,131.25,-805.0,-341.25,1,94.364,
01/01/2000,01:30:12.31,18.54,-62.71,-992.23,0.0,-691.25,-341.25,1,94.374,
01/01/2000,01:30:12.32,18.67,-62.71,-992.35,236.25,-682.50,-367.50,1,94.384,
01/01/2000,01:30:12.33,18.79,-62.59,-992.23,227.50,-647.50,-253.75,1,94.394,
01/01/2000,01:30:12.34,18.79,-62.83,-991.98,201.25,-665.0,-446.25,1,94.404,
01/01/2000,01:30:12.35,18.67,-62.95,-992.10,253.75,-761.25,-262.50,1,94.414,
01/01/2000,01:30:12.36,18.79,-62.95,-992.10,297.50,-665.0,-385.0,1,94.424,
01/01/2000,01:30:12.37,18.79,-62.83,-992.23,140.0,-700.0,-236.25,1,94.265,
01/01/2000,01:30:12.38,18.79,-62.83,-992.35,166.25,-647.50,-393.75,1,94.275,
01/01/2000,01:30:12.39,18.67,-62.95,-992.10,175.0,-691.25,-350.0,1,94.286,
01/01/2000,01:30:12.40,18.67,-63.20,-991.98,210.0,-813.75,-367.50,1,94.296,
01/01/2000,01:30:12.41,18.91,-63.20,-991.98,78.75,-551.25,-341.25,1,94.306,
01/01/2000,01:30:12.42,18.91,-63.20,-992.10,236.25,-673.75,-315.0,1,94.316,
01/01/2000,01:30:12.44,18.79,-63.07,-992.10,175.0,-708.75,-358.75,1,94.326,
01/01/2000,01:30:12.45,18.67,-62.83,-991.98,105.0,-743.75,-297.50,1,94.170,
01/01/2000,01:30:12.46,18.79,-62.71,-991.86,96.25,-796.25,-323.75,1,94.180,
01/01/2000,01:30:12.47,18.79,-62.71,-992.10,175.0,-700.0,-262.50,1,94.190,
01/01/2000,01:30:12.48,18.91,-62.95,-991.98,113.75,-778.75,-280.0,1,94.200,
01/01/2000,01:30:12.49,18.91,-62.95,-991.98,183.75,-735.0,-393.75,1,94.211,
01/01/2000,01:30:12.50,19.03,-62.83,-992.10,122.50,-752.50,-385.0,1,94.221,
01/01/2000,01:30:12.51,18.91,-62.95,-992.10,166.25,-673.75,-297.50,1,94.231,
01/01/2000,01:30:12.52,18.91,-62.95,-992.10,183.75,-708.75,-332.50,1,94.241,
01/01/2000,01:30:12.54,19.03,-62.95,-991.98,105.0,-743.75,-402.50,1,94.251,
01/01/2000,01:30:12.54,19.03,-63.07,-992.10,227.50,-647.50,-306.25,1,94.261,
01/01/2000,01:30:12.56,19.03,-63.07,-992.10,140.0,-770.0,-297.50,1,94.271,
01/01/2000,01:30:12.56,19.03,-63.20,-992.23,183.75,-708.75,-420.0,1,94.281,
01/01/2000,01:30:12.58,19.03,-62.95,-992.35,157.50,-621.25,-350.0,1,94.291,
01/01/2000,01:30:12.59,19.15,-62.95,-992.35,148.75,-638.75,-332.50,1,94.301,
01/01/2000,01:30:12.60,19.15,-63.20,-992.35,236.25,-630.0,-341.25,1,94.310,
01/01/2000,01:30:12.61,19.03,-63.07,-992.23,78.75,-621.25,-341.25,1,94.320,
01/01/2000,01:30:12.62,19.03,-63.07,-992.10,148.75,-621.25,-402.50,1,94.330,
01/01/2000,01:30:12.63,19.03,-62.95,-991.98,183.75,-717.50,-341.25,1,94.340,
01/01/2000,01:30:12.64,18.91,-62.83,-991.98,78.75,-796.25,-376.25,1,94.349,
01/01/2000,01:30:12.65,18.79,-62.83,-991.98,61.25,-726.25,-385.0,1,94.359,
01/01/2000,01:30:12.66,19.03,-62.95,-991.86,148.75,-656.25,-262.50,1,94.208,
01/01/2000,01:30:12.67,19.03,-62.83,-991.98,148.75,-726.25,-385.0,1,94.218,
01/01/2000,01:30:12.68,19.03,-62.83,-991.98,201.25,-647.50,-332.50,1,94.228,
01/01/2000,01:30:12.69,19.03,-62.95,-991.86,140.0,-726.25,-350.0,1,94.237,
01/01/2000,01:30:12.70,18.91,-62.95,-991.86,227.50,-700.0,-420.0,1,94.247,
01/01/2000,01:30:12.71,19.03,-62.83,-991.62,192.50,-752.50,-323.75,1,94.257,
01/01/2000,01:30:12.72,18.91,-62.83,-991.62,210.0,-665.0,-323.75,1,94.266,
01/01/2000,01:30:12.74,18.79,-62.95,-991.62,157.50,-761.25,-376.25,1,94.276,
01/01/2000,01:30:12.75,18.91,-62.83,-991.62,140.0,-752.50,-323.75,1,94.286,
01/01/2000,01:30:12.76,19.15,-62.71,-991.74,131.25,-673.75,-297.50,1,94.295,
01/01/2000,01:30:12.77,19.03,-62.71,-991.86,43.75,-656.25,-297.50,1,94.305,
01/01/2000,01:30:12.78,19.03,-62.71,-991.86,210.0,-778.75,-323.75,1,94.314,
01/01/2000,01:30:12.79,19.03,-62.83,-991.86,131.25,-761.25,-420.0,1,94.324,
01/01/2000,01:30:12.80,19.15,-62.71,-991.86,201.25,-638.75,-385.0,1,94.333,
01/01/2000,01:30:12.81,19.28,-62.83,-991.86,157.50,-770.0,-262.50,1,94.343,
01/01/2000,01:30:12.82,19.15,-62.83,-991.86,280.0,-665.0,-315.0,1,94.352,
01/01/2000,01:30:12.83,19.15,-62.95,-991.86,236.25,-691.25,-315.0,1,94.362,
01/01/2000,01:30:12.84,19.03,-63.07,-991.98,201.25,-691.25,-341.25,1,94.371,
01/01/2000,01:30:12.85,19.03,-62.95,-991.98,26.25,-638.75,-393.75,1,94.380,
01/01/2000,01:30:12.86,19.03,-62.83,-991.98,236.25,-726.25,-262.50,1,94.389,
01/01/2000,01:30:12.87,19.03,-62.71,-991.98,201.25,-735.0,-341.25,1,94.243,
01/01/2000,01:30:12.89,19.03,-62.71,-991.98,201.25,-735.0,-315.0,1,94.253,
01/01/2000,01:30:12.90,19.03,-62.83,-991.74,297.50,-656.25,-367.50,1,94.262,
01/01/2000,01:30:12.91,19.03,-62.83,-991.86,96.25,-595.0,-385.0,1,94.272,
01/01/2000,01:30:12.92,19.03,-62.95,-991.86,131.25,-603.75,-341.25,1,94.281,
01/01/2000,01:30:12.93,18.91,-62.83,-991.86,157.50,-656.25,-402.50,1,94.290,
01/01/2000,01:30:12.94,19.03,-62.95,-991.98,105.0,-700.0,-323.75,1,94.146,
01/01/2000,01:30:12.95,19.03,-62.95,-991.98,148.75,-673.75,-280.0,1,94.156,
01/01/2000,01:30:12.96,19.03,-63.07,-991.98,192.50,-682.50,-262.50,1,94.165,
01/01/2000,01:30:12.98,18.79,-62.95,-991.98,192.50,-743.75,-350.0,1,94.175,
01/01/2000,01:30:12.98,18.79,-62.83,-992.10,192.50,-586.25,-411.25,1,94.184,
01/01/2000,01:30:13.00,18.79,-62.83,-992.10,61.25,-752.50,-297.50,1,94.194,
01/01/2000,01:30:13.01,18.91,-62.71,-991.98,157.50,-726.25,-271.25,1,94.203,
01/01/2000,01:30:13.02,18.79,-62.95,-991.98,253.75,-735.0,-297.50,1,94.212,
01/01/2000,01:30:13.03,18.91,-62.95,-991.98,140.0,-691.25,-350.0,1,94.222,
01/01/2000,01:30:13.04,19.03,-62.83,-991.98,183.75,-717.50,-350.0,1,94.231,
01/01/2000,01:30:13.05,19.15,-62.59,-991.98,105.0,-752.50,-315.0,1,94.240,
01/01/2000,01:30:13.06,19.03,-62.59,-991.86,8.75,-542.50,-402.50,1,94.249,
01/01/2000,01:30:13.07,18.67,-62.71,-991.86,122.50,-770.0,-332.50,1,94.258,
01/01/2000,01:30:13.08,18.67,-62.71,-991.62,113.75,-700.0,-323.75,1,94.268,
01/01/2000,01:30:13.09,18.79,-62.59,-991.74,166.25,-673.75,-306.25,1,94.277,
01/01/2000,01:30:13.10,18.91,-62.59,-991.74,201.25,-708.75,-350.0,1,94.286,
01/01/2000,01:30:13.11,18.79,-62.71,-991.74,210.0,-673.75,-288.75,1,94.295,
01/01/2000,01:30:13.12,18.79,-62.71,-991.62,201.25,-647.50,-350.0,1,94.304,
01/01/2000,01:30:13.13,18.79,-62.71,-991.49,350.0,-735.0,-341.25,1,94.313,
01/01/2000,01:30:13.14,18.67,-62.83,-991.62,157.50,-673.75,-358.75,1,94.322,
01/01/2000,01:30:13.15,18.67,-62.71,-991.62,122.50,-708.75,-262.50,1,94.331,
01/01/2000,01:30:13.16,18.79,-62.71,-991.37,166.25,-525.0,-350.0,1,94.192,
01/01/2000,01:30:13.17,18.67,-62.71,-991.37,8.75,-682.50,-385.0,1,94.201,
01/01/2000,01:30:13.18,18.79,-62.71,-991.62,218.75,-630.0,-402.50,1,94.210,
01/01/2000,01:30:13.19,18.67,-62.71,-991.74,166.25,-726.25,-341.25,1,94.219,
01/01/2000,01:30:13.20,18.67,-62.59,-991.86,122.50,-726.25,-280.0,1,94.228,
01/01/2000,01:30:13.21,18.54,-62.46,-991.86,192.50,-735.0,-350.0,1,94.237,
01/01/2000,01:30:13.23,18.67,-62.46,-991.86,306.25,-638.75,-306.25,1,94.246,
01/01/2000,01:30:13.24,18.54,-62.46,-991.86,131.25,-761.25,-367.50,1,94.255,
01/01/2000,01:30:13.25,18.67,-62.71,-991.86,175.0,-726.25,-315.0,1,94.264,
01/01/2000,01:30:13.26,18.67,-62.71,-991.62,288.75,-726.25,-350.0,1,94.272,
01/01/2000,01:30:13.27,18.79,-62.46,-991.62,157.50,-813.75,-358.75,1,94.281,
01/01/2000,01:30:13.28,18.67,-62.34,-991.49,245.0,-673.75,-315.0,1,94.290,
01/01/2000,01:30:13.29,18.67,-62.34,-991.62,271.25,-586.25,-323.75,1,94.299,
01/01/2000,01:30:13.30,18.67,-62.46,-991.86,122.50,-700.0,-306.25,1,94.308,
01/01/2000,01:30:13.31,18.54,-62.59,-991.98,166.25,-778.75,-393.75,1,94.316,
01/01/2000,01:30:13.32,18.67,-62.59,-991.98,87.50,-761.25,-297.50,1,94.325,
01/01/2000,01:30:13.33,18.54,-62.59,-991.98,210.0,-805.0,-411.25,1,94.334,
01/01/2000,01:30:13.34,18.54,-62.46,-991.98,8.75,-638.75,-306.25,1,94.343,
01/01/2000,01:30:13.35,18.54,-62.59,-992.10,148.75,-691.25,-315.0,1,94.351,
01/01/2000,01:30:13.36,18.42,-62.59,-992.10,-8.75,-595.0,-428.75,1,94.216,
01/01/2000,01:30:13.37,18.54,-62.59,-992.10,192.50,-708.75,-323.75,1,94.225,
01/01/2000,01:30:13.38,18.54,-62.59,-991.98,140.0,-691.25,-315.0,1,94.234,
01/01/2000,01:30:13.40,18.67,-62.46,-991.98,236.25,-673.75,-358.75,1,94.242,
01/01/2000,01:30:13.41,18.79,-62.46,-991.98,157.50,-717.50,-358.75,1,94.251,
01/01/2000,01:30:13.42,18.79,-62.59,-991.98,262.50,-700.0,-332.50,1,94.260,
01/01/2000,01:30:13.43,18.79,-62.59,-991.98,96.25,-831.25,-332.50,1,94.268,
01/01/2000,01:30:13.44,18.91,-62.71,-991.74,192.50,-796.25,-385.0,1,94.277,
01/01/2000,01:30:13.45,18.91,-62.71,-991.62,113.75,-813.75,-402.50,1,94.144,
01/01/2000,01:30:13.46,18.79,-62.71,-991.74,192.50,-595.0,-341.25,1,94.153,
01/01/2000,01:30:13.47,18.67,-62.71,-991.86,157.50,-647.50,-323.75,1,94.162,
01/01/2000,01:30:13.48,18.79,-62.71,-991.86,105.0,-700.0,-315.0,1,94.170,
01/01/2000,01:30:13.49,18.91,-62.71,-991.98,166.25,-726.25,-332.50,1,94.179,
01/01/2000,01:30:13.50,18.91,-62.83,-992.10,306.25,-586.25,-271.25,1,94.188,
01/01/2000,01:30:13.52,18.79,-62.83,-991.98,52.50,-630.0,-437.50,1,94.196,
01/01/2000,01:30:13.53,18.79,-62.83,-991.86,332.50,-761.25,-367.50,1,94.205,
01/01/2000,01:30:13.54,18.79,-62.71,-991.86,166.25,-743.75,-236.25,1,94.214,
01/01/2000,01:30:13.55,18.91,-62.71,-991.98,96.25,-673.75,-245.0,1,94.222,
01/01/2000,01:30:13.56,18.79,-62.71,-991.86,262.50,-673.75,-315.0,1,94.231,
01/01/2000,01:30:13.57,18.79,-62.95,-991.98,175.0,-673.75,-367.50,1,94.239,
01/01/2000,01:30:13.58,18.79,-62.95,-991.98,192.50,-665.0,-341.25,1,94.248,
01/01/2000,01:30:13.59,18.91,-62.95,-991.98,105.0,-770.0,-350.0,1,94.256,
01/01/2000,01:30:13.60,18.79,-63.07,-991.98,183.75,-638.75,-341.25,1,94.265,
01/01/2000,01:30:13.61,18.91,-62.95,-991.86,122.50,-665.0,-262.50,1,94.273,
01/01/2000,01:30:13.62,18.79,-62.95,-991.86,148.75,-796.25,-306.25,1,94.282,
01/01/2000,01:30:13.63,18.79,-62.95,-991.86,52.50,-665.0,-315.0,1,94.290,
01/01/2000,01:30:13.64,18.91,-62.95,-991.86,166.25,-735.0,-411.25,1,94.298,
01/01/2000,01:30:13.65,18.91,-62.95,-991.74,175.0,-796.25,-411.25,1,94.307,
01/01/2000,01:30:13.66,18.91,-62.95,-991.62,157.50,-770.0,-376.25,1,94.315,
01/01/2000,01:30:13.67,18.91,-62.95,-991.62,280.0,-787.50,-315.0,1,94.323,
01/01/2000,01:30:13.68,18.91,-62.95,-991.74,96.25,-665.0,-315.0,1,94.331,
01/01/2000,01:30:13.69,18.91,-62.83,-991.74,148.75,-647.50,-393.75,1,94.340,
01/01/2000,01:30:13.70,18.79,-62.71,-991.49,201.25,-700.0,-341.25,1,94.348,
01/01/2000,01:30:13.71,18.91,-62.71,-991.49,122.50,-656.25,-297.50,1,94.356,
01/01/2000,01:30:13.72,19.03,-62.71,-991.49,157.50,-673.75,-245.0,1,94.228,
01/01/2000,01:30:13.73,18.91,-62.83,-991.62,166.25,-700.0,-350.0,1,94.236,
01/01/2000,01:30:13.74,18.79,-62.71,-991.74,245.0,-752.50,-315.0,1,94.245,
01/01/2000,01:30:13.75,18.79,-62.71,-991.86,201.25,-656.25,-323.75,1,94.253,
01/01/2000,01:30:13.76,19.03,-62.59,-991.86,210.0,-717.50,-271.25,1,94.261,
01/01/2000,01:30:13.77,19.03,-62.71,-991.62,227.50,-603.75,-323.75,1,94.269,
01/01/2000,01:30:13.79,19.03,-62.83,-991.62,131.25,-726.25,-350.0,1,94.278,
01/01/2000,01:30:13.80,18.91,-62.83,-991.74,280.0,-647.50,-367.50,1,94.286,
01/01/2000,01:30:13.81,19.03,-62.83,-991.86,192.50,-656.25,-332.50,1,94.294,
01/01/2000,01:30:13.82,18.91,-62.71,-991.86,332.50,-743.75,-306.25,1,94.302,
01/01/2000,01:30:13.83,19.03,-62.46,-991.86,201.25,-682.50,-297.50,1,94.310,
01/01/2000,01:30:13.84,18.91,-62.71,-991.86,218.75,-682.50,-376.25,1,94.318,
01/01/2000,01:30:13.85,18.79,-62.71,-991.86,245.0,-603.75,-428.75,1,94.326,
01/01/2000,01:30:13.86,19.03,-62.95,-991.62,140.0,-630.0,-437.50,1,94.334,
01/01/2000,01:30:13.87,19.03,-62.71,-991.62,131.25,-822.50,-332.50,1,94.342,
01/01/2000,01:30:13.88,18.91,-62.59,-991.74,218.75,-647.50,-358.75,1,94.350,
01/01/2000,01:30:13.89,18.91,-62.46,-991.62,166.25,-708.75,-245.0,1,94.225,
01/01/2000,01:30:13.90,18.91,-62.71,-991.62,166.25,-638.75,-376.25,1,94.233,
01/01/2000,01:30:13.91,18.79,-62.71,-991.74,17.50,-621.25,-253.75,1,94.242,
01/01/2000,01:30:13.92,18.67,-62.71,-991.86,96.25,-577.50,-385.0,1,94.250,
01/01/2000,01:30:13.94,18.79,-62.59,-991.86,113.75,-840.0,-323.75,1,94.258,
01/01/2000,01:30:13.95,18.79,-62.46,-991.86,122.50,-787.50,-358.75,1,94.266,
01/01/2000,01:30:13.96,18.67,-62.59,-991.86,210.0,-761.25,-297.50,1,94.274,
01/01/2000,01:30:13.97,18.79,-62.59,-991.86,166.25,-656.25,-332.50,1,94.282,
01/01/2000,01:30:13.98,18.91,-62.71,-991.98,175.0,-621.25,-358.75,1,94.290,
01/01/2000,01:30:13.99,18.79,-62.71,-991.86,140.0,-743.75,-446.25,1,94.298,
01/01/2000,01:30:14.00,18.79,-62.95,-991.86,253.75,-726.25,-411.25,1,94.175,
01/01/2000,01:30:14.01,18.79,-62.83,-991.86,105.0,-586.25,-332.50,1,94.183,
01/01/2000,01:30:14.02,18.67,-62.95,-991.86,210.0,-708.75,-253.75,1,94.191,
01/01/2000,01:30:14.03,18.67,-62.95,-991.98,201.25,-831.25,-350.0,1,94.199,
01/01/2000,01:30:14.04,18.67,-62.95,-991.86,210.0,-647.50,-420.0,1,94.207,
01/01/2000,01:30:14.05,18.79,-62.95,-991.62,192.50,-691.25,-341.25,1,94.215,
01/01/2000,01:30:14.06,18.79,-62.95,-991.62,245.0,-761.25,-332.50,1,94.223,
01/01/2000,01:30:14.07,18.67,-62.95,-991.74,148.75,-761.25,-385.0,1,94.231,
01/01/2000,01:30:14.08,18.79,-62.83,-991.86,262.50,-813.75,-288.75,1,94.239,
01/01/2000,01:30:14.09,18.67,-62.71,-991.86,122.50,-752.50,-323.75,1,94.247,
01/01/2000,01:30:14.10,18.67,-62.83,-991.86,-35.0,-665.0,-210.0,1,94.254,
01/01/2000,01:30:14.11,18.67,-62.95,-991.86,253.75,-752.50,-315.0,1,94.262,
01/01/2000,01:30:14.12,18.79,-62.95,-991.98,96.25,-638.75,-385.0,1,94.270,
01/01/2000,01:30:14.13,18.91,-62.95,-991.98,131.25,-682.50,-332.50,1,94.278,
01/01/2000,01:30:14.15,18.79,-62.95,-991.86,148.75,-682.50,-271.25,1,94.286,
01/01/2000,01:30:14.16,18.79,-62.83,-991.98,140.0,-708.75,-341.25,1,94.293,
01/01/2000,01:30:14.17,18.79,-62.95,-991.86,140.0,-682.50,-271.25,1,94.301,
01/01/2000,01:30:14.18,18.79,-62.95,-991.98,183.75,-673.75,-306.25,1,94.309,
01/01/2000,01:30:14.19,18.79,-62.95,-991.86,236.25,-630.0,-376.25,1,94.317,
01/01/2000,01:30:14.20,18.79,-62.95,-991.86,148.75,-735.0,-376.25,1,94.324,
01/01/2000,01:30:14.21,18.79,-62.95,-991.74,201.25,-726.25,-332.50,1,94.205,
01/01/2000,01:30:14.22,18.79,-62.83,-991.86,78.75,-612.50,-332.50,1,94.213,
01/01/2000,01:30:14.23,18.91,-62.71,-991.98,131.25,-743.75,-306.25,1,94.220,
01/01/2000,01:30:14.24,18.79,-62.71,-992.10,96.25,-700.0,-376.25,1,94.228,
01/01/2000,01:30:14.25,18.79,-62.71,-991.86,140.0,-735.0,-376.25,1,94.236,
01/01/2000,01:30:14.26,18.91,-62.83,-991.74,166.25,-822.50,-402.50,1,94.244,
01/01/2000,01:30:14.27,18.79,-62.71,-991.86,148.75,-621.25,-402.50,1,94.251,
01/01/2000,01:30:14.29,18.79,-62.83,-991.98,52.50,-595.0,-341.25,1,94.259,
01/01/2000,01:30:14.30,18.79,-62.83,-991.98,210.0,-577.50,-288.75,1,94.267,
01/01/2000,01:30:14.31,18.79,-62.83,-991.98,122.50,-551.25,-323.75,1,94.274,
01/01/2000,01:30:14.32,18.91,-62.95,-991.86,-17.50,-796.25,-411.25,1,94.282,
01/01/2000,01:30:14.33,18.79,-62.95,-991.86,78.75,-726.25,-350.0,1,94.290,
01/01/2000,01:30:14.34,18.67,-62.83,-991.86,227.50,-682.50,-385.0,1,94.297,
01/01/2000,01:30:14.35,18.67,-62.71,-991.98,201.25,-691.25,-306.25,1,94.305,
01/01/2000,01:30:14.36,18.54,-62.46,-991.98,183.75,-638.75,-297.50,1,94.312,
01/01/2000,01:30:14.37,18.42,-62.59,-991.98,105.0,-700.0,-341.25,1,94.320,
01/01/2000,01:30:14.38,18.30,-62.71,-991.98,105.0,-665.0,-350.0,1,94.327,
01/01/2000,01:30:14.39,18.54,-62.71,-992.10,166.25,-735.0,-332.50,1,94.335,
01/01/2000,01:30:14.40,18.67,-62.71,-992.35,271.25,-595.0,-420.0,1,94.342,
01/01/2000,01:30:14.41,18.79,-62.71,-992.23,148.75,-700.0,-306.25,1,94.350,
01/01/2000,01:30:14.43,18.54,-62.71,-991.98,218.75,-673.75,-385.0,1,94.233,
01/01/2000,01:30:14.44,18.54,-62.71,-992.10,192.50,-638.75,-288.75,1,94.241,
01/01/2000,01:30:14.45,18.79,-62.71,-992.23,332.50,-665.0,-367.50,1,94.248,
01/01/2000,01:30:14.46,18.67,-62.71,-992.10,52.50,-752.50,-393.75,1,94.256,
01/01/2000,01:30:14.47,18.67,-62.59,-992.10,271.25,-743.75,-280.0,1,94.263,
01/01/2000,01:30:14.48,18.67,-62.59,-991.86,140.0,-603.75,-306.25,1,94.271,
01/01/2000,01:30:14.49,18.79,-62.71,-991.86,192.50,-700.0,-323.75,1,94.278,
01/01/2000,01:30:14.50,18.79,-62.59,-991.98,183.75,-743.75,-376.25,1,94.286,
01/01/2000,01:30:14.51,18.79,-62.71,-991.86,131.25,-761.25,-420.0,1,94.171,
01/01/2000,01:30:14.52,18.67,-62.71,-991.86,122.50,-691.25,-332.50,1,94.301,
01/01/2000,01:30:14.53,18.67,-62.83,-991.74,183.75,-805.0,-385.0,1,94.186,
01/01/2000,01:30:14.54,18.91,-62.71,-991.86,52.50,-735.0,-385.0,1,94.194,
01/01/2000,01:30:14.55,19.15,-62.83,-991.86,183.75,-708.75,-192.50,1,94.201,
01/01/2000,01:30:14.56,18.79,-62.83,-991.86,61.25,-621.25,-306.25,1,94.208,
01/01/2000,01:30:14.57,18.67,-62.95,-991.98,253.75,-638.75,-271.25,1,94.216,
01/01/2000,01:30:14.58,18.91,-62.71,-991.98,157.50,-691.25,-262.50,1,94.223,
01/01/2000,01:30:14.59,19.28,-62.71,-991.86,218.75,-717.50,-236.25,1,94.231,
01/01/2000,01:30:14.60,18.91,-62.71,-991.74,157.50,-822.50,-323.75,1,94.238,
01/01/2000,01:30:14.61,18.79,-62.95,-991.74,166.25,-708.75,-341.25,1,94.246,
01/01/2000,01:30:14.62,18.91,-62.95,-991.86,341.25,-647.50,-358.75,1,94.253,
01/01/2000,01:30:14.64,18.91,-62.71,-992.10,-17.50,-743.75,-323.75,1,94.260,
01/01/2000,01:30:14.65,18.91,-62.71,-992.10,131.25,-735.0,-350.0,1,94.268,
01/01/2000,01:30:14.66,18.91,-62.71,-991.98,166.25,-638.75,-332.50,1,94.275,
01/01/2000,01:30:14.67,18.91,-62.71,-991.86,140.0,-752.50,-376.25,1,94.282,
01/01/2000,01:30:14.68,18.91,-62.95,-991.86,253.75,-778.75,-306.25,1,94.289,
01/01/2000,01:30:14.69,18.91,-62.95,-991.98,52.50,-813.75,-332.50,1,94.297,
01/01/2000,01:30:14.70,19.03,-62.71,-992.10,280.0,-612.50,-393.75,1,94.304,
01/01/2000,01:30:14.71,18.91,-62.46,-991.98,218.75,-726.25,-341.25,1,94.311,
01/01/2000,01:30:14.72,18.79,-62.46,-991.86,113.75,-700.0,-367.50,1,94.318,
01/01/2000,01:30:14.73,18.67,-62.71,-991.86,43.75,-656.25,-385.0,1,94.325,
01/01/2000,01:30:14.74,18.79,-62.83,-992.10,175.0,-735.0,-350.0,1,94.332,
01/01/2000,01:30:14.75,18.91,-62.71,-992.10,122.50,-752.50,-315.0,1,94.340,
01/01/2000,01:30:14.76,19.03,-62.71,-991.98,70.0,-761.25,-306.25,1,94.347,
01/01/2000,01:30:14.77,18.91,-62.83,-992.10,122.50,-691.25,-358.75,1,94.236,
01/01/2000,01:30:14.78,18.91,-62.71,-992.10,166.25,-665.0,-332.50,1,94.243,
01/01/2000,01:30:14.79,18.91,-62.71,-992.23,26.25,-595.0,-323.75,1,94.250,
01/01/2000,01:30:14.80,18.79,-62.83,-992.10,122.50,-726.25,-323.75,1,94.257,
01/01/2000,01:30:14.81,18.91,-62.95,-991.98,148.75,-551.25,-376.25,1,94.264,
01/01/2000,01:30:14.82,18.79,-62.95,-991.86,175.0,-682.50,-332.50,1,94.271,
01/01/2000,01:30:14.83,18.91,-62.83,-992.10,113.75,-673.75,-332.50,1,94.279,
01/01/2000,01:30:14.85,18.79,-62.95,-992.35,245.0,-726.25,-323.75,1,94.286,
01/01/2000,01:30:14.86,18.79,-62.71,-992.35,122.50,-735.0,-315.0,1,94.293,
01/01/2000,01:30:14.87,18.91,-62.71,-991.98,157.50,-621.25,-332.50,1,94.300,
01/01/2000,01:30:14.88,18.91,-62.71,-991.86,148.75,-682.50,-332.50,1,94.307,
01/01/2000,01:30:14.89,18.79,-62.95,-992.10,210.0,-638.75,-358.75,1,94.314,
01/01/2000,01:30:14.90,18.67,-62.95,-992.10,157.50,-673.75,-437.50,1,94.321,
01/01/2000,01:30:14.91,18.67,-62.83,-992.23,113.75,-638.75,-297.50,1,94.328,
01/01/2000,01:30:14.92,18.54,-62.95,-991.98,148.75,-621.25,-420.0,1,94.335,
01/01/2000,01:30:14.93,18.54,-62.95,-991.98,131.25,-770.0,-341.25,1,94.226,
01/01/2000,01:30:14.94,18.54,-62.95,-991.86,157.50,-691.25,-402.50,1,94.233,
01/01/2000,01:30:14.95,18.79,-62.95,-991.74,271.25,-700.0,-350.0,1,94.240,
01/01/2000,01:30:14.96,18.79,-62.95,-991.86,157.50,-770.0,-350.0,1,94.247,
01/01/2000,01:30:14.97,18.79,-62.95,-991.86,315.0,-630.0,-358.75,1,94.254,
01/01/2000,01:30:14.99,18.67,-62.71,-992.10,227.50,-595.0,-227.50,1,94.261,
01/01/2000,01:30:15.00,18.79,-62.71,-992.10,323.75,-621.25,-323.75,1,94.268,
01/01/2000,01:30:15.01,18.79,-62.95,-992.23,113.75,-682.50,-332.50,1,94.275,
01/01/2000,01:30:15.02,18.67,-63.20,-992.10,157.50,-682.50,-358.75,1,94.282,
01/01/2000,01:30:15.03,18.79,-63.20,-992.10,227.50,-708.75,-367.50,1,94.289,
01/01/2000,01:30:15.04,18.79,-63.20,-992.10,78.75,-647.50,-376.25,1,94.296,
01/01/2000,01:30:15.05,18.79,-62.83,-992.35,131.25,-638.75,-288.75,1,94.303,
01/01/2000,01:30:15.06,18.91,-62.83,-992.35,183.75,-778.75,-297.50,1,94.196,
01/01/2000,01:30:15.07,18.91,-62.83,-992.23,201.25,-708.75,-402.50,1,94.203,
01/01/2000,01:30:15.08,18.79,-62.95,-992.10,297.50,-717.50,-376.25,1,94.210,
01/01/2000,01:30:15.09,18.79,-62.95,-992.10,201.25,-726.25,-341.25,1,94.217,
01/01/2000,01:30:15.10,18.79,-62.71,-992.10,105.0,-743.75,-358.75,1,94.224,
01/01/2000,01:30:15.11,18.79,-62.59,-992.23,227.50,-717.50,-376.25,1,94.231,
01/01/2000,01:30:15.12,18.54,-62.83,-992.10,175.0,-612.50,-271.25,1,94.238,
01/01/2000,01:30:15.13,18.54,-63.07,-992.10,113.75,-682.50,-385.0,1,94.245,
01/01/2000,01:30:15.15,18.67,-63.20,-992.10,175.0,-630.0,-315.0,1,94.251,
01/01/2000,01:30:15.15,18.79,-62.95,-992.10,175.0,-586.25,-288.75,1,94.258,
01/01/2000,01:30:15.17,18.67,-62.83,-991.98,201.25,-743.75,-332.50,1,94.265,
01/01/2000,01:30:15.18,18.67,-62.71,-991.86,227.50,-656.25,-367.50,1,94.272,
01/01/2000,01:30:15.19,18.54,-62.71,-992.10,210.0,-621.25,-271.25,1,94.279,
01/01/2000,01:30:15.20,18.67,-62.59,-992.23,87.50,-805.0,-420.0,1,94.286,
01/01/2000,01:30:15.21,18.91,-62.71,-992.10,192.50,-743.75,-262.50,1,94.293,
01/01/2000,01:30:15.22,19.03,-62.95,-991.98,166.25,-638.75,-411.25,1,94.299,
01/01/2000,01:30:15.23,18.91,-63.20,-991.86,157.50,-726.25,-306.25,1,94.306,
01/01/2000,01:30:15.24,18.91,-63.07,-992.10,78.75,-717.50,-288.75,1,94.313,
01/01/2000,01:30:15.25,19.03,-62.95,-992.35,131.25,-621.25,-393.75,1,94.320,
01/01/2000,01:30:15.26,19.15,-62.83,-992.23,105.0,-647.50,-376.25,1,94.326,
01/01/2000,01:30:15.27,18.91,-62.95,-991.86,175.0,-726.25,-402.50,1,94.333,
01/01/2000,01:30:15.28,18.79,-62.83,-991.86,96.25,-726.25,-402.50,1,94.340,
01/01/2000,01:30:15.29,18.79,-62.83,-991.98,105.0,-595.0,-446.25,1,94.346,
01/01/2000,01:30:15.30,18.91,-62.71,-992.10,166.25,-700.0,-280.0,1,94.353,
01/01/2000,01:30:15.31,19.03,-62.59,-991.98,175.0,-551.25,-297.50,1,94.360,
01/01/2000,01:30:15.32,19.03,-62.59,-991.86,87.50,-603.75,-323.75,1,94.366,
01/01/2000,01:30:15.33,19.03,-62.71,-991.86,341.25,-717.50,-428.75,1,94.262,
01/01/2000,01:30:15.34,19.03,-62.83,-992.10,201.25,-673.75,-350.0,1,94.269,
01/01/2000,01:30:15.35,19.03,-62.83,-992.10,192.50,-726.25,-297.50,1,94.276,
01/01/2000,01:30:15.37,18.91,-62.71,-991.98,183.75,-743.75,-358.75,1,94.282,
01/01/2000,01:30:15.37,18.91,-62.83,-991.86,43.75,-743.75,-376.25,1,94.289,
01/01/2000,01:30:15.39,18.79,-62.95,-991.86,253.75,-682.50,-315.0,1,94.296,
01/01/2000,01:30:15.40,18.79,-62.95,-991.86,245.0,-656.25,-332.50,1,94.302,
01/01/2000,01:30:15.41,18.79,-62.95,-991.98,52.50,-638.75,-280.0,1,94.309,
01/01/2000,01:30:15.42,18.79,-62.95,-991.98,87.50,-726.25,-376.25,1,94.316,
01/01/2000,01:30:15.43,18.67,-62.95,-991.86,131.25,-682.50,-341.25,1,94.322,
01/01/2000,01:30:15.44,18.79,-62.95,-991.86,236.25,-752.50,-341.25,1,94.329,
01/01/2000,01:30:15.45,18.79,-62.95,-991.98,131.25,-708.75,-367.50,1,94.335,
01/01/2000,01:30:15.46,18.79,-62.95,-992.10,113.75,-726.25,-402.50,1,94.342,
01/01/2000,01:30:15.47,18.79,-62.83,-991.86,218.75,-822.50,-227.50,1,94.348,
01/01/2000,01:30:15.48,18.79,-62.71,-991.74,122.50,-682.50,-420.0,1,94.246,
01/01/2000,01:30:15.49,18.79,-62.83,-991.86,113.75,-743.75,-358.75,1,94.253,
01/01/2000,01:30:15.51,18.79,-62.95,-991.98,350.0,-700.0,-385.0,1,94.259,
01/01/2000,01:30:15.52,18.91,-63.07,-992.10,236.25,-743.75,-253.75,1,94.266,
01/01/2000,01:30:15.53,18.79,-63.20,-991.98,245.0,-673.75,-358.75,1,94.273,
01/01/2000,01:30:15.54,18.79,-63.07,-991.86,227.50,-656.25,-341.25,1,94.279,
01/01/2000,01:30:15.55,18.91,-62.95,-991.74,157.50,-656.25,-323.75,1,94.286,
01/01/2000,01:30:15.56,18.91,-62.95,-991.86,210.0,-691.25,-288.75,1,94.292,
01/01/2000,01:30:15.57,18.79,-62.95,-991.98,131.25,-717.50,-358.75,1,94.299,
01/01/2000,01:30:15.58,18.67,-62.95,-991.86,52.50,-726.25,-271.25,1,94.305,
01/01/2000,01:30:15.59,18.79,-62.95,-991.86,323.75,-778.75,-367.50,1,94.312,
01/01/2000,01:30:15.60,18.79,-62.83,-992.10,253.75,-813.75,-376.25,1,94.318,
01/01/2000,01:30:15.61,18.67,-62.83,-992.23,192.50,-665.0,-358.75,1,94.325,
01/01/2000,01:30:15.62,18.79,-62.71,-992.35,262.50,-682.50,-288.75,1,94.331,
01/01/2000,01:30:15.63,18.67,-62.71,-992.23,157.50,-682.50,-306.25,1,94.337,
01/01/2000,01:30:15.64,18.91,-62.71,-992.10,271.25,-717.50,-315.0,1,94.344,
01/01/2000,01:30:15.65,18.91,-62.71,-992.10,175.0,-787.50,-341.25,1,94.350,
01/01/2000,01:30:15.66,19.03,-62.95,-992.10,210.0,-630.0,-306.25,1,94.250,
01/01/2000,01:30:15.67,18.91,-62.95,-992.10,148.75,-647.50,-367.50,1,94.363,
01/01/2000,01:30:15.69,18.79,-62.83,-992.10,201.25,-682.50,-350.0,1,94.263,
01/01/2000,01:30:15.70,18.79,-62.59,-992.10,253.75,-682.50,-315.0,1,94.270,
01/01/2000,01:30:15.71,18.79,-62.59,-992.10,140.0,-630.0,-315.0,1,94.276,
01/01/2000,01:30:15.72,18.79,-62.71,-991.86,35.0,-708.75,-402.50,1,94.283,
01/01/2000,01:30:15.73,18.79,-62.83,-991.86,131.25,-700.0,-376.25,1,94.289,
01/01/2000,01:30:15.74,18.79,-62.71,-992.10,113.75,-700.0,-341.25,1,94.295,
01/01/2000,01:30:15.75,18.91,-62.59,-992.10,227.50,-603.75,-437.50,1,94.302,
01/01/2000,01:30:15.76,18.91,-62.22,-992.10,148.75,-691.25,-288.75,1,94.308,
01/01/2000,01:30:15.77,18.91,-62.46,-991.98,157.50,-717.50,-332.50,1,94.314,
01/01/2000,01:30:15.78,18.91,-62.59,-992.10,131.25,-691.25,-350.0,1,94.321,
01/01/2000,01:30:15.79,19.03,-62.71,-991.98,253.75,-595.0,-437.50,1,94.327,
01/01/2000,01:30:15.80,19.03,-62.59,-991.86,96.25,-700.0,-315.0,1,94.333,
01/01/2000,01:30:15.81,18.91,-62.46,-991.86,166.25,-770.0,-402.50,1,94.340,
01/01/2000,01:30:15.82,18.79,-62.46,-991.86,113.75,-621.25,-288.75,1,94.346,
01/01/2000,01:30:15.83,18.79,-62.59,-991.86,43.75,-682.50,-297.50,1,94.248,
01/01/2000,01:30:15.84,18.79,-62.71,-991.74,227.50,-700.0,-358.75,1,94.254,
01/01/2000,01:30:15.85,18.79,-62.95,-991.74,210.0,-691.25,-306.25,1,94.260,
01/01/2000,01:30:15.86,18.79,-62.95,-991.62,70.0,-665.0,-323.75,1,94.267,
01/01/2000,01:30:15.87,18.91,-63.07,-991.62,245.0,-778.75,-358.75,1,94.273,
01/01/2000,01:30:15.88,19.03,-62.83,-991.98,87.50,-796.25,-350.0,1,94.279,
01/01/2000,01:30:15.90,18.91,-63.20,-992.10,262.50,-682.50,-253.75,1,94.286,
01/01/2000,01:30:15.91,18.79,-62.95,-992.10,61.25,-813.75,-323.75,1,94.292,
01/01/2000,01:30:15.92,19.03,-62.95,-991.86,166.25,-656.25,-428.75,1,94.298,
01/01/2000,01:30:15.93,19.03,-62.95,-991.86,166.25,-700.0,-358.75,1,94.304,
01/01/2000,01:30:15.94,18.91,-63.07,-991.86,245.0,-778.75,-288.75,1,94.311,
01/01/2000,01:30:15.95,18.91,-63.07,-991.98,122.50,-743.75,-332.50,1,94.317,
01/01/2000,01:30:15.96,18.91,-62.95,-991.86,157.50,-673.75,-358.75,1,94.323,
01/01/2000,01:30:15.97,18.91,-62.95,-991.86,157.50,-621.25,-297.50,1,94.227,
01/01/2000,01:30:15.98,18.79,-62.95,-991.74,140.0,-638.75,-367.50,1,94.233,
01/01/2000,01:30:15.99,18.79,-62.95,-991.86,78.75,-708.75,-332.50,1,94.239,
01/01/2000,01:30:16.00,18.79,-62.95,-991.98,201.25,-761.25,-350.0,1,94.245,
01/01/2000,01:30:16.02,19.03,-62.71,-992.10,201.25,-665.0,-376.25,1,94.252,
01/01/2000,01:30:16.03,18.91,-62.71,-991.86,315.0,-647.50,-341.25,1,94.258,
01/01/2000,01:30:16.04,19.03,-62.71,-991.98,166.25,-665.0,-332.50,1,94.264,
01/01/2000,01:30:16.05,19.03,-62.83,-991.98,201.25,-603.75,-323.75,1,94.168,
01/01/2000,01:30:16.06,19.03,-62.83,-991.98,166.25,-717.50,-332.50,1,94.175,
01/01/2000,01:30:16.07,18.91,-62.95,-991.86,166.25,-656.25,-350.0,1,94.181,
01/01/2000,01:30:16.08,18.79,-62.83,-991.74,280.0,-796.25,-288.75,1,94.187,
01/01/2000,01:30:16.09,18.79,-62.71,-991.86,70.0,-673.75,-376.25,1,94.194,
01/01/2000,01:30:16.10,18.79,-62.71,-991.86,210.0,-735.0,-280.0,1,94.200,
01/01/2000,01:30:16.11,18.91,-62.83,-991.86,70.0,-682.50,-297.50,1,94.206,
01/01/2000,01:30:16.12,18.91,-62.83,-991.74,280.0,-778.75,-411.25,1,94.212,
01/01/2000,01:30:16.13,18.91,-62.95,-991.74,218.75,-630.0,-297.50,1,94.218,
01/01/2000,01:30:16.14,18.79,-62.95,-991.86,183.75,-647.50,-297.50,1,94.225,
01/01/2000,01:30:16.15,18.79,-62.95,-991.86,140.0,-743.75,-367.50,1,94.231,
01/01/2000,01:30:16.16,18.79,-62.95,-991.98,227.50,-717.50,-315.0,1,94.237,
01/01/2000,01:30:16.17,18.91,-63.07,-992.10,183.75,-761.25,-367.50,1,94.243,
01/01/2000,01:30:16.19,18.91,-63.07,-991.86,113.75,-665.0,-315.0,1,94.249,
01/01/2000,01:30:16.20,18.91,-63.07,-991.74,253.75,-787.50,-437.50,1,94.255,
01/01/2000,01:30:16.21,18.91,-62.95,-991.62,201.25,-673.75,-341.25,1,94.261,
01/01/2000,01:30:16.22,19.03,-62.95,-991.62,-8.75,-735.0,-306.25,1,94.268,
01/01/2000,01:30:16.23,19.03,-62.83,-991.86,236.25,-682.50,-315.0,1,94.274,
01/01/2000,01:30:16.24,19.03,-62.83,-991.98,210.0,-691.25,-315.0,1,94.280,
01/01/2000,01:30:16.25,19.03,-62.71,-991.98,175.0,-682.50,-402.50,1,94.286,
01/01/2000,01:30:16.26,18.91,-62.71,-991.86,113.75,-752.50,-288.75,1,94.292,
01/01/2000,01:30:16.27,18.91,-62.59,-991.86,122.50,-726.25,-358.75,1,94.298,
01/01/2000,01:30:16.28,18.91,-62.83,-991.86,385.0,-647.50,-341.25,1,94.304,
01/01/2000,01:30:16.29,18.79,-62.71,-991.98,175.0,-743.75,-341.25,1,94.310,
01/01/2000,01:30:16.30,18.79,-62.71,-991.98,210.0,-682.50,-350.0,1,94.316,
01/01/2000,01:30:16.31,18.91,-62.59,-991.86,0.0,-673.75,-341.25,1,94.322,
01/01/2000,01:30:16.32,18.79,-62.71,-991.86,105.0,-621.25,-385.0,1,94.229,
01/01/2000,01:30:16.33,18.91,-62.83,-991.86,175.0,-691.25,-402.50,1,94.235,
01/01/2000,01:30:16.34,18.79,-62.71,-991.86,210.0,-568.75,-358.75,1,94.241,
01/01/2000,01:30:16.35,18.54,-62.71,-991.86,122.50,-603.75,-393.75,1,94.247,
01/01/2000,01:30:16.36,18.54,-62.71,-991.86,210.0,-656.25,-315.0,1,94.253,
01/01/2000,01:30:16.37,18.67,-62.71,-991.86,131.25,-656.25,-323.75,1,94.259,
01/01/2000,01:30:16.38,18.79,-62.83,-991.98,70.0,-673.75,-385.0,1,94.265,
01/01/2000,01:30:16.40,18.79,-62.83,-991.98,288.75,-770.0,-218.75,1,94.271,
01/01/2000,01:30:16.41,18.79,-62.95,-991.86,0.0,-787.50,-350.0,1,94.277,
01/01/2000,01:30:16.42,18.67,-63.07,-991.86,52.50,-691.25,-367.50,1,94.283,
01/01/2000,01:30:16.43,18.79,-62.95,-991.86,157.50,-691.25,-402.50,1,94.289,
01/01/2000,01:30:16.44,18.67,-62.83,-991.74,105.0,-726.25,-367.50,1,94.295,
01/01/2000,01:30:16.45,18.67,-62.83,-991.86,131.25,-717.50,-315.0,1,94.301,
01/01/2000,01:30:16.46,18.79,-63.07,-992.10,271.25,-822.50,-315.0,1,94.306,
01/01/2000,01:30:16.47,18.79,-62.95,-991.98,113.75,-761.25,-315.0,1,94.215,
01/01/2000,01:30:16.48,18.79,-62.95,-991.98,175.0,-621.25,-323.75,1,94.318,
01/01/2000,01:30:16.49,18.91,-62.71,-991.98,183.75,-551.25,-253.75,1,94.227,
01/01/2000,01:30:16.50,18.91,-62.83,-991.86,253.75,-787.50,-393.75,1,94.233,
01/01/2000,01:30:16.51,18.79,-62.83,-991.62,148.75,-735.0,-253.75,1,94.239,
01/01/2000,01:30:16.53,18.79,-62.95,-991.74,236.25,-726.25,-306.25,1,94.245,
01/01/2000,01:30:16.54,19.03,-62.83,-991.86,78.75,-621.25,-350.0,1,94.251,
01/01/2000,01:30:16.55,19.03,-62.71,-991.86,218.75,-726.25,-315.0,1,94.256,
01/01/2000,01:30:16.56,18.91,-62.71,-991.74,105.0,-673.75,-306.25,1,94.262,
01/01/2000,01:30:16.57,18.79,-62.71,-991.86,201.25,-743.75,-306.25,1,94.268,
01/01/2000,01:30:16.58,18.79,-62.71,-991.98,192.50,-630.0,-376.25,1,94.274,
01/01/2000,01:30:16.59,18.91,-62.71,-992.10,122.50,-708.75,-297.50,1,94.280,
01/01/2000,01:30:16.60,18.91,-62.95,-991.98,253.75,-787.50,-280.0,1,94.286,
01/01/2000,01:30:16.61,18.79,-62.95,-991.86,175.0,-761.25,-280.0,1,94.292,
01/01/2000,01:30:16.62,18.79,-62.95,-991.86,210.0,-673.75,-253.75,1,94.297,
01/01/2000,01:30:16.63,18.91,-62.83,-991.86,140.0,-743.75,-341.25,1,94.303,
01/01/2000,01:30:16.64,19.03,-62.83,-991.98,201.25,-796.25,-262.50,1,94.309,
01/01/2000,01:30:16.65,19.03,-62.83,-991.98,140.0,-735.0,-385.0,1,94.315,
01/01/2000,01:30:16.66,18.91,-63.07,-991.86,96.25,-822.50,-376.25,1,94.320,
01/01/2000,01:30:16.67,18.91,-63.20,-991.98,105.0,-665.0,-402.50,1,94.231,
01/01/2000,01:30:16.69,18.91,-62.95,-991.98,78.75,-691.25,-341.25,1,94.237,
01/01/2000,01:30:16.69,18.91,-62.71,-992.10,148.75,-682.50,-358.75,1,94.242,
01/01/2000,01:30:16.71,18.79,-62.83,-992.10,341.25,-708.75,-306.25,1,94.248,
01/01/2000,01:30:16.72,18.67,-62.83,-992.10,218.75,-805.0,-367.50,1,94.254,
01/01/2000,01:30:16.73,18.79,-63.20,-992.10,87.50,-831.25,-358.75,1,94.260,
01/01/2000,01:30:16.74,18.79,-62.95,-992.23,78.75,-665.0,-367.50,1,94.266,
01/01/2000,01:30:16.75,18.79,-62.95,-992.10,148.75,-743.75,-350.0,1,94.271,
01/01/2000,01:30:16.76,18.79,-62.83,-992.10,183.75,-665.0,-420.0,1,94.277,
01/01/2000,01:30:16.77,18.79,-62.95,-992.10,210.0,-656.25,-332.50,1,94.283,
01/01/2000,01:30:16.78,18.79,-63.07,-992.23,166.25,-840.0,-297.50,1,94.289,
01/01/2000,01:30:16.79,18.91,-62.95,-992.23,122.50,-691.25,-323.75,1,94.294,
01/01/2000,01:30:16.80,19.03,-63.07,-992.10,183.75,-673.75,-262.50,1,94.300,
01/01/2000,01:30:16.81,18.91,-62.95,-991.86,131.25,-735.0,-323.75,1,94.306,
01/01/2000,01:30:16.82,18.54,-62.95,-991.86,131.25,-673.75,-437.50,1,94.217,
01/01/2000,01:30:16.83,18.67,-62.71,-991.98,52.50,-796.25,-323.75,1,94.223,
01/01/2000,01:30:16.84,18.79,-62.83,-991.98,148.75,-682.50,-280.0,1,94.229,
01/01/2000,01:30:16.85,18.79,-62.83,-991.86,148.75,-770.0,-385.0,1,94.235,
01/01/2000,01:30:16.86,18.54,-62.95,-991.86,175.0,-778.75,-376.25,1,94.240,
01/01/2000,01:30:16.87,18.54,-62.95,-991.86,183.75,-691.25,-393.75,1,94.246,
01/01/2000,01:30:16.89,18.67,-62.95,-991.98,201.25,-752.50,-323.75,1,94.252,
01/01/2000,01:30:16.90,18.79,-62.71,-992.23,175.0,-638.75,-271.25,1,94.257,
01/01/2000,01:30:16.91,18.79,-62.71,-992.10,166.25,-700.0,-402.50,1,94.263,
01/01/2000,01:30:16.92,18.79,-62.83,-991.86,105.0,-761.25,-350.0,1,94.269,
01/01/2000,01:30:16.93,18.67,-62.95,-991.86,218.75,-770.0,-358.75,1,94.274,
01/01/2000,01:30:16.94,18.79,-62.83,-991.98,166.25,-595.0,-323.75,1,94.280,
01/01/2000,01:30:16.95,18.79,-62.71,-992.23,96.25,-743.75,-376.25,1,94.286,
01/01/2000,01:30:16.96,18.67,-62.71,-992.10,175.0,-630.0,-280.0,1,94.291,
01/01/2000,01:30:16.97,18.79,-62.83,-992.10,52.50,-770.0,-385.0,1,94.297,
01/01/2000,01:30:16.98,18.91,-62.71,-992.10,105.0,-665.0,-402.50,1,94.303,
01/01/2000,01:30:16.99,18.79,-62.83,-992.23,131.25,-752.50,-393.75,1,94.308,
01/01/2000,01:30:17.00,18.79,-62.71,-992.35,192.50,-673.75,-411.25,1,94.314,
01/01/2000,01:30:17.01,18.79,-62.83,-992.23,183.75,-656.25,-332.50,1,94.319,
01/01/2000,01:30:17.02,18.67,-62.71,-992.35,297.50,-770.0,-306.25,1,94.325,
01/01/2000,01:30:17.04,18.67,-62.95,-992.47,210.0,-770.0,-210.0,1,94.238,
01/01/2000,01:30:17.05,18.67,-63.07,-992.59,61.25,-778.75,-323.75,1,94.244,
01/01/2000,01:30:17.06,18.79,-63.07,-992.23,78.75,-665.0,-306.25,1,94.250,
01/01/2000,01:30:17.07,18.67,-63.07,-992.10,131.25,-621.25,-288.75,1,94.255,
01/01/2000,01:30:17.08,18.67,-63.07,-991.98,148.75,-717.50,-402.50,1,94.261,
01/01/2000,01:30:17.09,18.79,-62.95,-992.10,262.50,-560.0,-385.0,1,94.266,
01/01/2000,01:30:17.10,18.79,-62.83,-992.23,192.50,-708.75,-332.50,1,94.180,
01/01/2000,01:30:17.11,18.67,-62.95,-992.23,175.0,-656.25,-367.50,1,94.186,
01/01/2000,01:30:17.12,18.54,-62.95,-992.10,166.25,-586.25,-376.25,1,94.192,
01/01/2000,01:30:17.13,18.54,-62.95,-991.98,175.0,-778.75,-288.75,1,94.197,
01/01/2000,01:30:17.14,18.79,-63.07,-992.23,218.75,-735.0,-288.75,1,94.203,
01/01/2000,01:30:17.15,18.79,-62.95,-992.23,175.0,-726.25,-367.50,1,94.208,
01/01/2000,01:30:17.16,18.67,-62.95,-992.35,227.50,-665.0,-341.25,1,94.214,
01/01/2000,01:30:17.17,18.67,-63.07,-992.10,140.0,-717.50,-288.75,1,94.220,
01/01/2000,01:30:17.18,18.79,-63.07,-992.10,113.75,-621.25,-385.0,1,94.225,
01/01/2000,01:30:17.19,18.79,-62.95,-992.23,271.25,-638.75,-376.25,1,94.231,
01/01/2000,01:30:17.20,18.91,-62.95,-992.35,245.0,-743.75,-455.0,1,94.236,
01/01/2000,01:30:17.21,18.79,-62.95,-992.47,131.25,-778.75,-350.0,1,94.242,
01/01/2000,01:30:17.22,18.54,-62.95,-992.23,122.50,-743.75,-367.50,1,94.247,
01/01/2000,01:30:17.23,18.42,-62.95,-991.98,148.75,-638.75,-315.0,1,94.253,
01/01/2000,01:30:17.25,18.54,-62.95,-992.10,35.0,-647.50,-253.75,1,94.258,
01/01/2000,01:30:17.26,18.54,-62.95,-992.23,26.25,-735.0,-428.75,1,94.264,
01/01/2000,01:30:17.27,18.67,-62.95,-992.23,96.25,-735.0,-306.25,1,94.269,
01/01/2000,01:30:17.28,18.67,-62.95,-991.98,227.50,-717.50,-332.50,1,94.275,
01/01/2000,01:30:17.29,18.67,-62.95,-991.98,227.50,-691.25,-428.75,1,94.280,
01/01/2000,01:30:17.30,18.79,-62.71,-992.10,262.50,-682.50,-297.50,1,94.286,
01/01/2000,01:30:17.31,18.91,-62.83,-992.47,253.75,-665.0,-306.25,1,94.202,
01/01/2000,01:30:17.32,18.91,-62.71,-992.35,113.75,-743.75,-385.0,1,94.207,
01/01/2000,01:30:17.33,18.67,-62.71,-992.23,315.0,-700.0,-350.0,1,94.213,
01/01/2000,01:30:17.34,18.67,-62.71,-992.10,210.0,-717.50,-437.50,1,94.218,
01/01/2000,01:30:17.35,18.79,-62.83,-992.10,175.0,-770.0,-306.25,1,94.223,
01/01/2000,01:30:17.36,18.79,-62.71,-992.23,210.0,-761.25,-271.25,1,94.229,
01/01/2000,01:30:17.37,18.79,-62.71,-992.10,131.25,-682.50,-350.0,1,94.234,
01/01/2000,01:30:17.39,18.67,-62.95,-991.98,218.75,-595.0,-376.25,1,94.240,
01/01/2000,01:30:17.40,18.79,-62.95,-992.10,271.25,-708.75,-323.75,1,94.245,
01/01/2000,01:30:17.41,18.79,-62.95,-992.10,201.25,-665.0,-367.50,1,94.251,
01/01/2000,01:30:17.42,18.91,-62.83,-992.10,271.25,-700.0,-376.25,1,94.256,
01/01/2000,01:30:17.43,18.79,-62.83,-992.10,122.50,-691.25,-385.0,1,94.262,
01/01/2000,01:30:17.44,18.67,-62.95,-992.10,166.25,-708.75,-288.75,1,94.267,
01/01/2000,01:30:17.45,18.79,-62.95,-992.10,218.75,-778.75,-332.50,1,94.272,
01/01/2000,01:30:17.46,19.03,-62.83,-991.98,105.0,-752.50,-341.25,1,94.278,
01/01/2000,01:30:17.47,18.91,-62.95,-991.86,131.25,-691.25,-332.50,1,94.283,
01/01/2000,01:30:17.48,18.79,-62.95,-991.86,131.25,-673.75,-332.50,1,94.288,
01/01/2000,01:30:17.49,18.79,-62.95,-991.98,192.50,-717.50,-350.0,1,94.294,
01/01/2000,01:30:17.50,18.79,-62.83,-992.10,157.50,-630.0,-350.0,1,94.299,
01/01/2000,01:30:17.51,18.79,-62.95,-992.23,192.50,-840.0,-385.0,1,94.304,
01/01/2000,01:30:17.52,18.79,-62.71,-991.98,253.75,-726.25,-297.50,1,94.222,
01/01/2000,01:30:17.53,18.79,-62.95,-991.98,192.50,-638.75,-420.0,1,94.227,
01/01/2000,01:30:17.54,18.79,-62.95,-992.10,122.50,-691.25,-332.50,1,94.233,
01/01/2000,01:30:17.56,18.79,-62.95,-992.23,166.25,-638.75,-341.25,1,94.238,
01/01/2000,01:30:17.57,18.79,-62.71,-992.23,210.0,-665.0,-358.75,1,94.243,
01/01/2000,01:30:17.58,18.79,-62.83,-992.10,227.50,-656.25,-227.50,1,94.249,
01/01/2000,01:30:17.59,18.91,-62.95,-992.10,297.50,-708.75,-446.25,1,94.254,
01/01/2000,01:30:17.60,18.79,-63.20,-991.86,122.50,-621.25,-393.75,1,94.259,
01/01/2000,01:30:17.61,18.79,-63.07,-991.86,183.75,-621.25,-306.25,1,94.265,
01/01/2000,01:30:17.62,18.79,-62.95,-991.86,245.0,-568.75,-297.50,1,94.270,
01/01/2000,01:30:17.63,18.79,-62.83,-991.98,183.75,-708.75,-297.50,1,94.275,
01/01/2000,01:30:17.64,18.79,-62.71,-991.98,122.50,-691.25,-332.50,1,94.194,
01/01/2000,01:30:17.65,18.79,-62.83,-991.86,140.0,-700.0,-420.0,1,94.199,
01/01/2000,01:30:17.66,18.79,-62.95,-992.10,96.25,-717.50,-358.75,1,94.204,
01/01/2000,01:30:17.67,19.03,-62.83,-992.10,280.0,-638.75,-420.0,1,94.210,
01/01/2000,01:30:17.68,19.03,-62.71,-992.10,210.0,-665.0,-297.50,1,94.215,
01/01/2000,01:30:17.69,18.91,-62.71,-991.86,175.0,-717.50,-385.0,1,94.220,
01/01/2000,01:30:17.70,18.79,-62.83,-991.98,192.50,-691.25,-271.25,1,94.225,
01/01/2000,01:30:17.71,18.91,-62.95,-992.23,61.25,-717.50,-315.0,1,94.231,
01/01/2000,01:30:17.72,19.03,-62.83,-992.23,201.25,-673.75,-367.50,1,94.236,
01/01/2000,01:30:17.73,18.79,-62.71,-992.10,52.50,-735.0,-306.25,1,94.241,
01/01/2000,01:30:17.75,18.79,-62.83,-991.86,157.50,-743.75,-280.0,1,94.247,
01/01/2000,01:30:17.75,18.79,-62.83,-991.86,148.75,-752.50,-280.0,1,94.252,
01/01/2000,01:30:17.77,19.03,-62.95,-991.86,192.50,-761.25,-341.25,1,94.257,
01/01/2000,01:30:17.78,18.79,-62.95,-992.10,201.25,-700.0,-306.25,1,94.262,
01/01/2000,01:30:17.79,18.79,-62.95,-992.10,78.75,-743.75,-306.25,1,94.268,
01/01/2000,01:30:17.80,18.67,-62.95,-991.98,113.75,-743.75,-323.75,1,94.273,
01/01/2000,01:30:17.81,18.91,-62.83,-992.10,245.0,-726.25,-210.0,1,94.278,
01/01/2000,01:30:17.82,18.91,-62.95,-992.23,280.0,-665.0,-280.0,1,94.283,
01/01/2000,01:30:17.83,18.91,-62.95,-992.10,175.0,-813.75,-297.50,1,94.288,
01/01/2000,01:30:17.84,18.79,-63.20,-992.23,183.75,-621.25,-428.75,1,94.293,
01/01/2000,01:30:17.85,18.79,-63.07,-992.35,113.75,-735.0,-358.75,1,94.299,
01/01/2000,01:30:17.86,18.91,-62.83,-992.35,183.75,-673.75,-358.75,1,94.304,
01/01/2000,01:30:17.87,18.91,-62.95,-992.23,157.50,-691.25,-157.50,1,94.224,
01/01/2000,01:30:17.88,18.79,-62.95,-992.10,105.0,-822.50,-437.50,1,94.229,
01/01/2000,01:30:17.89,18.79,-63.07,-992.10,61.25,-708.75,-341.25,1,94.234,
01/01/2000,01:30:17.90,18.91,-63.07,-992.23,87.50,-700.0,-367.50,1,94.239,
01/01/2000,01:30:17.91,18.91,-62.83,-992.35,218.75,-805.0,-428.75,1,94.245,
01/01/2000,01:30:17.92,19.03,-62.71,-992.35,236.25,-761.25,-288.75,1,94.250,
01/01/2000,01:30:17.93,18.91,-62.83,-992.35,332.50,-656.25,-236.25,1,94.255,
01/01/2000,01:30:17.95,18.79,-62.95,-992.35,210.0,-708.75,-341.25,1,94.260,
01/01/2000,01:30:17.96,19.03,-62.95,-992.47,105.0,-673.75,-288.75,1,94.265,
01/01/2000,01:30:17.97,19.03,-62.83,-992.47,183.75,-621.25,-306.25,1,94.270,
01/01/2000,01:30:17.98,19.03,-62.83,-992.35,227.50,-761.25,-323.75,1,94.275,
01/01/2000,01:30:17.99,18.91,-62.71,-992.23,96.25,-638.75,-323.75,1,94.281,
01/01/2000,01:30:18.00,18.79,-62.95,-992.10,140.0,-700.0,-367.50,1,94.286,
01/01/2000,01:30:18.01,18.79,-62.83,-992.10,183.75,-735.0,-280.0,1,94.291,
01/01/2000,01:30:18.02,19.03,-62.95,-992.10,166.25,-770.0,-271.25,1,94.296,
01/01/2000,01:30:18.03,18.79,-62.95,-992.10,192.50,-691.25,-376.25,1,94.301,
01/01/2000,01:30:18.04,18.67,-62.95,-992.10,148.75,-778.75,-315.0,1,94.306,
01/01/2000,01:30:18.05,18.54,-62.95,-992.10,70.0,-673.75,-253.75,1,94.311,
01/01/2000,01:30:18.07,18.67,-62.83,-992.10,157.50,-638.75,-280.0,1,94.232,
01/01/2000,01:30:18.08,18.79,-62.95,-992.10,157.50,-717.50,-341.25,1,94.238,
01/01/2000,01:30:18.09,18.67,-62.95,-992.10,105.0,-630.0,-376.25,1,94.243,
01/01/2000,01:30:18.10,18.79,-62.95,-992.10,227.50,-682.50,-402.50,1,94.248,
01/01/2000,01:30:18.11,18.79,-62.95,-992.23,157.50,-752.50,-367.50,1,94.253,
01/01/2000,01:30:18.12,18.79,-62.95,-992.23,166.25,-848.75,-376.25,1,94.258,
01/01/2000,01:30:18.13,18.79,-63.07,-992.10,157.50,-682.50,-341.25,1,94.263,
01/01/2000,01:30:18.14,18.79,-63.07,-992.10,201.25,-726.25,-297.50,1,94.268,
01/01/2000,01:30:18.15,18.79,-63.07,-992.10,26.25,-577.50,-297.50,1,94.273,
01/01/2000,01:30:18.16,18.91,-62.95,-992.10,148.75,-735.0,-323.75,1,94.278,
01/01/2000,01:30:18.17,18.79,-63.07,-991.98,192.50,-735.0,-332.50,1,94.283,
01/01/2000,01:30:18.18,18.79,-62.95,-992.10,183.75,-726.25,-393.75,1,94.288,
01/01/2000,01:30:18.19,18.67,-62.95,-992.23,96.25,-630.0,-350.0,1,94.293,
01/01/2000,01:30:18.20,18.67,-62.83,-992.10,218.75,-708.75,-367.50,1,94.298,
01/01/2000,01:30:18.21,18.79,-62.83,-991.98,245.0,-691.25,-315.0,1,94.303,
01/01/2000,01:30:18.22,18.79,-62.95,-991.86,140.0,-743.75,-262.50,1,94.308,
01/01/2000,01:30:18.23,18.79,-63.07,-991.98,166.25,-717.50,-332.50,1,94.231,
01/01/2000,01:30:18.24,18.91,-63.07,-992.10,140.0,-691.25,-402.50,1,94.236,
01/01/2000,01:30:18.25,18.79,-62.95,-991.98,166.25,-726.25,-350.0,1,94.241,
01/01/2000,01:30:18.26,18.79,-62.95,-991.86,140.0,-700.0,-297.50,1,94.246,
01/01/2000,01:30:18.27,18.79,-63.07,-991.62,297.50,-787.50,-358.75,1,94.251,
01/01/2000,01:30:18.28,19.03,-63.20,-991.74,166.25,-673.75,-315.0,1,94.256,
01/01/2000,01:30:18.30,19.15,-63.20,-991.86,96.25,-673.75,-341.25,1,94.261,
01/01/2000,01:30:18.31,19.03,-63.20,-991.86,78.75,-638.75,-376.25,1,94.266,
01/01/2000,01:30:18.32,19.03,-63.20,-991.86,210.0,-700.0,-315.0,1,94.271,
01/01/2000,01:30:18.33,19.03,-62.95,-991.86,131.25,-560.0,-315.0,1,94.276,
01/01/2000,01:30:18.34,18.91,-62.95,-991.98,245.0,-700.0,-393.75,1,94.281,
01/01/2000,01:30:18.35,19.03,-62.95,-992.10,61.25,-726.25,-358.75,1,94.286,
01/01/2000,01:30:18.36,19.03,-63.20,-991.98,262.50,-682.50,-393.75,1,94.291,
01/01/2000,01:30:18.37,18.79,-63.20,-991.98,17.50,-665.0,-341.25,1,94.214,
01/01/2000,01:30:18.38,18.79,-62.95,-992.10,131.25,-700.0,-332.50,1,94.219,
01/01/2000,01:30:18.39,18.91,-62.83,-992.10,78.75,-691.25,-306.25,1,94.224,
01/01/2000,01:30:18.40,18.91,-62.95,-992.10,218.75,-743.75,-288.75,1,94.229,
01/01/2000,01:30:18.41,18.79,-63.20,-991.86,131.25,-813.75,-350.0,1,94.234,
01/01/2000,01:30:18.42,18.79,-63.20,-991.86,236.25,-630.0,-323.75,1,94.239,
01/01/2000,01:30:18.43,18.79,-62.95,-991.74,122.50,-612.50,-341.25,1,94.244,
01/01/2000,01:30:18.45,18.91,-62.83,-991.86,227.50,-700.0,-297.50,1,94.249,
01/01/2000,01:30:18.46,18.79,-62.71,-992.10,0.0,-621.25,-358.75,1,94.254,
01/01/2000,01:30:18.47,18.54,-62.95,-991.98,157.50,-612.50,-323.75,1,94.259,
01/01/2000,01:30:18.48,18.54,-62.95,-991.74,131.25,-665.0,-393.75,1,94.264,
01/01/2000,01:30:18.49,18.67,-62.95,-991.62,175.0,-735.0,-271.25,1,94.269,
01/01/2000,01:30:18.50,18.67,-62.95,-991.62,140.0,-647.50,-297.50,1,94.274,
01/01/2000,01:30:18.51,18.54,-63.07,-991.74,245.0,-717.50,-376.25,1,94.278,
01/01/2000,01:30:18.52,18.54,-62.95,-991.74,105.0,-682.50,-297.50,1,94.283,
01/01/2000,01:30:18.53,18.79,-62.83,-991.86,157.50,-717.50,-367.50,1,94.288,
01/01/2000,01:30:18.54,18.79,-62.71,-991.86,113.75,-840.0,-192.50,1,94.293,
01/01/2000,01:30:18.55,18.79,-62.83,-991.74,227.50,-796.25,-297.50,1,94.298,
01/01/2000,01:30:18.56,18.79,-62.83,-991.62,201.25,-700.0,-358.75,1,94.303,
01/01/2000,01:30:18.58,18.79,-62.95,-992.10,140.0,-743.75,-332.50,1,94.228,
01/01/2000,01:30:18.59,18.79,-62.95,-991.98,245.0,-603.75,-367.50,1,94.232,
01/01/2000,01:30:18.60,18.79,-62.83,-991.74,131.25,-735.0,-288.75,1,94.237,
01/01/2000,01:30:18.61,18.79,-62.83,-991.62,122.50,-700.0,-306.25,1,94.242,
01/01/2000,01:30:18.62,18.67,-62.95,-991.86,262.50,-647.50,-367.50,1,94.247,
01/01/2000,01:30:18.63,18.79,-62.95,-991.86,210.0,-717.50,-288.75,1,94.252,
01/01/2000,01:30:18.64,18.91,-62.71,-991.86,96.25,-586.25,-376.25,1,94.257,
01/01/2000,01:30:18.65,18.91,-62.71,-991.86,192.50,-717.50,-306.25,1,94.262,
01/01/2000,01:30:18.66,18.67,-62.83,-991.62,183.75,-647.50,-262.50,1,94.187,
01/01/2000,01:30:18.67,18.79,-62.95,-991.74,78.75,-717.50,-315.0,1,94.192,
01/01/2000,01:30:18.68,19.03,-62.95,-991.74,175.0,-691.25,-350.0,1,94.197,
01/01/2000,01:30:18.69,19.03,-63.07,-991.86,201.25,-717.50,-385.0,1,94.202,
01/01/2000,01:30:18.70,18.91,-63.20,-991.86,148.75,-700.0,-367.50,1,94.207,
01/01/2000,01:30:18.71,18.91,-63.20,-991.86,105.0,-647.50,-323.75,1,94.211,
01/01/2000,01:30:18.73,18.79,-63.07,-991.86,210.0,-691.25,-306.25,1,94.216,
01/01/2000,01:30:18.74,18.79,-62.95,-991.86,175.0,-708.75,-350.0,1,94.221,
01/01/2000,01:30:18.75,18.79,-63.07,-991.98,157.50,-761.25,-402.50,1,94.226,
01/01/2000,01:30:18.76,18.79,-63.20,-991.98,148.75,-630.0,-245.0,1,94.231,
01/01/2000,01:30:18.77,18.67,-63.07,-991.98,192.50,-708.75,-393.75,1,94.236,
01/01/2000,01:30:18.78,18.54,-63.07,-991.86,210.0,-638.75,-306.25,1,94.240,
01/01/2000,01:30:18.79,18.67,-63.07,-991.86,227.50,-673.75,-358.75,1,94.245,
01/01/2000,01:30:18.80,18.79,-63.20,-991.98,236.25,-735.0,-385.0,1,94.250,
01/01/2000,01:30:18.81,18.79,-63.07,-992.10,227.50,-656.25,-288.75,1,94.255,
01/01/2000,01:30:18.82,18.79,-63.20,-992.10,148.75,-796.25,-350.0,1,94.260,
01/01/2000,01:30:18.83,18.79,-62.95,-992.10,131.25,-717.50,-271.25,1,94.264,
01/01/2000,01:30:18.84,18.79,-62.95,-992.10,113.75,-665.0,-367.50,1,94.269,
01/01/2000,01:30:18.85,18.91,-63.07,-992.10,157.50,-647.50,-253.75,1,94.274,
01/01/2000,01:30:18.86,18.91,-62.95,-992.10,70.0,-656.25,-341.25,1,94.201,
01/01/2000,01:30:18.87,18.79,-62.95,-992.23,113.75,-708.75,-367.50,1,94.205,
01/01/2000,01:30:18.88,18.79,-63.07,-992.23,157.50,-752.50,-411.25,1,94.210,
01/01/2000,01:30:18.90,18.91,-63.07,-992.10,253.75,-726.25,-306.25,1,94.215,
01/01/2000,01:30:18.91,18.91,-62.95,-992.10,131.25,-568.75,-385.0,1,94.220,
01/01/2000,01:30:18.92,18.91,-62.83,-992.10,140.0,-717.50,-393.75,1,94.224,
01/01/2000,01:30:18.93,18.79,-62.83,-991.98,201.25,-665.0,-358.75,1,94.229,
01/01/2000,01:30:18.94,18.91,-62.83,-991.98,52.50,-691.25,-358.75,1,94.234,
01/01/2000,01:30:18.95,18.79,-62.95,-992.10,157.50,-892.50,-332.50,1,94.239,
01/01/2000,01:30:18.96,18.79,-62.83,-992.10,236.25,-647.50,-446.25,1,94.243,
01/01/2000,01:30:18.97,18.79,-62.95,-991.98,26.25,-691.25,-376.25,1,94.248,
01/01/2000,01:30:18.98,18.79,-62.95,-991.86,157.50,-700.0,-367.50,1,94.253,
01/01/2000,01:30:18.99,18.79,-62.95,-991.86,192.50,-691.25,-306.25,1,94.258,
01/01/2000,01:30:19.00,18.79,-62.95,-991.86,183.75,-717.50,-341.25,1,94.262,
01/01/2000,01:30:19.01,18.67,-62.83,-992.10,140.0,-752.50,-393.75,1,94.190,
01/01/2000,01:30:19.02,18.79,-62.83,-992.10,105.0,-700.0,-297.50,1,94.195,
01/01/2000,01:30:19.03,18.91,-62.83,-992.10,70.0,-787.50,-218.75,1,94.199,
01/01/2000,01:30:19.04,18.79,-62.83,-992.10,323.75,-665.0,-393.75,1,94.204,
01/01/2000,01:30:19.05,18.79,-62.83,-992.10,122.50,-778.75,-350.0,1,94.209,
01/01/2000,01:30:19.06,18.79,-62.83,-992.23,96.25,-568.75,-332.50,1,94.214,
01/01/2000,01:30:19.08,19.03,-62.83,-992.23,192.50,-656.25,-297.50,1,94.218,
01/01/2000,01:30:19.09,18.91,-63.20,-992.23,227.50,-761.25,-253.75,1,94.146,
01/01/2000,01:30:19.10,18.91,-63.07,-992.23,-61.25,-726.25,-358.75,1,94.151,
01/01/2000,01:30:19.11,18.67,-63.32,-992.35,297.50,-770.0,-385.0,1,94.156,
01/01/2000,01:30:19.12,18.79,-62.95,-992.35,70.0,-735.0,-140.0,1,94.161,
01/01/2000,01:30:19.13,18.67,-62.95,-992.23,192.50,-761.25,-385.0,1,94.165,
01/01/2000,01:30:19.14,18.67,-62.95,-992.35,113.75,-726.25,-271.25,1,94.170,
01/01/2000,01:30:19.15,18.67,-62.95,-992.23,131.25,-735.0,-393.75,1,94.175,
01/01/2000,01:30:19.16,18.67,-63.20,-992.10,227.50,-691.25,-367.50,1,94.179,
01/01/2000,01:30:19.17,18.67,-63.07,-992.10,148.75,-726.25,-402.50,1,94.184,
01/01/2000,01:30:19.18,18.54,-62.95,-992.10,131.25,-647.50,-323.75,1,94.189,
01/01/2000,01:30:19.19,18.67,-62.95,-992.10,140.0,-595.0,-332.50,1,94.194,
01/01/2000,01:30:19.21,18.54,-62.83,-992.35,113.75,-612.50,-306.25,1,94.198,
01/01/2000,01:30:19.21,18.54,-62.95,-992.35,96.25,-708.75,-385.0,1,94.203,
01/01/2000,01:30:19.23,18.67,-62.95,-992.23,245.0,-717.50,-402.50,1,94.208,
01/01/2000,01:30:19.24,18.79,-62.95,-992.23,140.0,-708.75,-280.0,1,94.212,
01/01/2000,01:30:19.25,18.79,-62.95,-992.10,201.25,-665.0,-341.25,1,94.217,
01/01/2000,01:30:19.26,18.67,-62.95,-992.10,166.25,-743.75,-376.25,1,94.222,
01/01/2000,01:30:19.27,18.54,-62.95,-991.98,218.75,-673.75,-341.25,1,94.226,
01/01/2000,01:30:19.28,18.54,-62.95,-992.10,131.25,-717.50,-218.75,1,94.231,
01/01/2000,01:30:19.29,18.67,-62.95,-991.86,262.50,-752.50,-323.75,1,94.235,
01/01/2000,01:30:19.30,18.67,-62.95,-991.98,157.50,-595.0,-367.50,1,94.240,
01/01/2000,01:30:19.31,18.67,-62.95,-991.98,297.50,-752.50,-262.50,1,94.245,
01/01/2000,01:30:19.32,18.54,-62.95,-991.98,113.75,-691.25,-463.75,1,94.249,
01/01/2000,01:30:19.33,18.67,-62.95,-992.10,192.50,-595.0,-367.50,1,94.254,
01/01/2000,01:30:19.34,18.79,-62.95,-992.23,280.0,-700.0,-437.50,1,94.258,
01/01/2000,01:30:19.35,18.79,-62.95,-992.10,70.0,-586.25,-350.0,1,94.263,
01/01/2000,01:30:19.36,18.79,-62.95,-991.86,183.75,-717.50,-367.50,1,94.193,
01/01/2000,01:30:19.37,18.79,-62.95,-991.86,210.0,-708.75,-376.25,1,94.197,
01/01/2000,01:30:19.38,18.91,-62.95,-992.23,166.25,-778.75,-323.75,1,94.202,
01/01/2000,01:30:19.39,18.91,-62.83,-992.23,218.75,-630.0,-385.0,1,94.206,
01/01/2000,01:30:19.40,18.91,-62.83,-992.10,218.75,-656.25,-288.75,1,94.211,
01/01/2000,01:30:19.41,18.54,-62.71,-991.86,96.25,-630.0,-306.25,1,94.216,
01/01/2000,01:30:19.42,18.54,-62.83,-991.98,96.25,-691.25,-481.25,1,94.220,
01/01/2000,01:30:19.44,18.79,-62.83,-992.10,148.75,-691.25,-376.25,1,94.225,
01/01/2000,01:30:19.45,18.79,-62.71,-992.23,175.0,-752.50,-341.25,1,94.229,
01/01/2000,01:30:19.46,18.79,-62.71,-992.10,105.0,-673.75,-358.75,1,94.234,
01/01/2000,01:30:19.47,18.67,-62.71,-992.10,131.25,-805.0,-367.50,1,94.238,
01/01/2000,01:30:19.48,18.79,-62.71,-992.23,35.0,-752.50,-393.75,1,94.243,
01/01/2000,01:30:19.49,18.91,-62.83,-992.23,148.75,-700.0,-341.25,1,94.247,
01/01/2000,01:30:19.50,19.03,-62.95,-992.23,253.75,-796.25,-341.25,1,94.178,
01/01/2000,01:30:19.51,18.91,-62.83,-992.10,253.75,-743.75,-306.25,1,94.182,
01/01/2000,01:30:19.52,18.79,-62.83,-992.10,140.0,-726.25,-411.25,1,94.187,
01/01/2000,01:30:19.53,18.79,-62.71,-992.10,175.0,-700.0,-271.25,1,94.192,
01/01/2000,01:30:19.54,18.79,-62.71,-992.23,113.75,-630.0,-376.25,1,94.196,
01/01/2000,01:30:19.55,18.79,-62.83,-992.35,166.25,-665.0,-358.75,1,94.201,
01/01/2000,01:30:19.56,18.79,-62.83,-992.23,131.25,-682.50,-350.0,1,94.205,
01/01/2000,01:30:19.58,18.30,-62.71,-992.23,113.75,-743.75,-350.0,1,94.210,
01/01/2000,01:30:19.59,18.79,-62.46,-992.23,52.50,-577.50,-288.75,1,94.214,
01/01/2000,01:30:19.60,19.15,-62.46,-992.23,201.25,-708.75,-323.75,1,94.219,
01/01/2000,01:30:19.61,19.15,-62.46,-991.98,140.0,-770.0,-350.0,1,94.223,
01/01/2000,01:30:19.62,18.91,-62.83,-991.86,175.0,-603.75,-341.25,1,94.228,
01/01/2000,01:30:19.63,18.91,-63.20,-992.10,175.0,-708.75,-446.25,1,94.159,
01/01/2000,01:30:19.64,19.03,-62.71,-992.35,43.75,-656.25,-393.75,1,94.163,
01/01/2000,01:30:19.65,19.03,-62.95,-992.35,210.0,-708.75,-157.50,1,94.168,
01/01/2000,01:30:19.66,19.15,-62.59,-992.10,280.0,-735.0,-201.25,1,94.172,
01/01/2000,01:30:19.67,19.03,-62.95,-991.74,131.25,-735.0,-367.50,1,94.177,
01/01/2000,01:30:19.68,18.91,-63.44,-991.74,218.75,-726.25,-262.50,1,94.182,
01/01/2000,01:30:19.69,18.91,-63.32,-991.98,131.25,-708.75,-463.75,1,94.186,
01/01/2000,01:30:19.70,18.79,-63.44,-992.23,245.0,-700.0,-350.0,1,94.191,
01/01/2000,01:30:19.71,18.79,-62.95,-991.98,183.75,-708.75,-393.75,1,94.195,
01/01/2000,01:30:19.73,18.54,-62.95,-991.86,26.25,-700.0,-315.0,1,94.200,
01/01/2000,01:30:19.73,18.67,-62.95,-991.98,113.75,-761.25,-306.25,1,94.204,
01/01/2000,01:30:19.75,18.79,-63.20,-992.35,105.0,-752.50,-393.75,1,94.208,
01/01/2000,01:30:19.75,18.79,-63.32,-992.10,131.25,-813.75,-280.0,1,94.213,
01/01/2000,01:30:19.77,18.79,-63.20,-991.98,17.50,-691.25,-341.25,1,94.217,
01/01/2000,01:30:19.78,18.79,-62.95,-991.86,122.50,-638.75,-323.75,1,94.222,
01/01/2000,01:30:19.79,18.67,-62.83,-992.23,122.50,-770.0,-201.25,1,94.226,
01/01/2000,01:30:19.80,18.79,-62.83,-992.35,113.75,-621.25,-262.50,1,94.231,
01/01/2000,01:30:19.81,18.67,-63.20,-992.35,192.50,-647.50,-402.50,1,94.235,
01/01/2000,01:30:19.82,18.67,-63.20,-992.10,0.0,-752.50,-288.75,1,94.240,
01/01/2000,01:30:19.83,18.67,-63.44,-991.98,183.75,-700.0,-385.0,1,94.244,
01/01/2000,01:30:19.84,18.79,-63.07,-991.86,122.50,-656.25,-385.0,1,94.248,
01/01/2000,01:30:19.86,18.79,-62.83,-992.10,140.0,-691.25,-262.50,1,94.181,
01/01/2000,01:30:19.87,18.54,-62.95,-991.86,271.25,-656.25,-332.50,1,94.185,
01/01/2000,01:30:19.88,18.67,-62.95,-991.86,113.75,-752.50,-437.50,1,94.190,
01/01/2000,01:30:19.89,18.91,-62.95,-991.86,175.0,-612.50,-376.25,1,94.194,
01/01/2000,01:30:19.90,19.03,-62.95,-991.86,113.75,-691.25,-341.25,1,94.198,
01/01/2000,01:30:19.91,18.91,-62.95,-991.98,131.25,-682.50,-332.50,1,94.203,
01/01/2000,01:30:19.92,18.79,-63.20,-991.98,227.50,-656.25,-358.75,1,94.207,
01/01/2000,01:30:19.93,18.79,-63.07,-992.10,183.75,-735.0,-253.75,1,94.212,
01/01/2000,01:30:19.94,18.79,-62.95,-991.98,113.75,-665.0,-323.75,1,94.216,
01/01/2000,01:30:19.95,18.79,-63.20,-991.86,183.75,-752.50,-271.25,1,94.221,
01/01/2000,01:30:19.96,18.79,-63.20,-991.86,175.0,-621.25,-341.25,1,94.225,
01/01/2000,01:30:19.97,18.91,-63.32,-991.86,166.25,-743.75,-358.75,1,94.229,
01/01/2000,01:30:19.98,18.91,-63.32,-991.98,227.50,-682.50,-393.75,1,94.234,
01/01/2000,01:30:19.99,18.79,-62.95,-991.86,131.25,-638.75,-367.50,1,94.238,
01/01/2000,01:30:20.00,18.79,-62.95,-991.86,358.75,-761.25,-262.50,1,94.171,
01/01/2000,01:30:20.01,18.79,-62.83,-991.74,8.75,-743.75,-280.0,1,94.175,
01/01/2000,01:30:20.02,18.79,-63.07,-991.74,87.50,-770.0,-367.50,1,94.180,
01/01/2000,01:30:20.03,18.67,-63.20,-991.86,122.50,-647.50,-358.75,1,94.184,
01/01/2000,01:30:20.04,18.54,-62.95,-991.98,122.50,-708.75,-262.50,1,94.189,
01/01/2000,01:30:20.05,18.79,-62.95,-991.98,140.0,-638.75,-332.50,1,94.193,
01/01/2000,01:30:20.07,18.67,-62.83,-991.86,236.25,-770.0,-367.50,1,94.197,
01/01/2000,01:30:20.08,18.67,-63.07,-991.86,131.25,-708.75,-428.75,1,94.202,
01/01/2000,01:30:20.09,18.79,-63.20,-991.98,166.25,-665.0,-411.25,1,94.206,
01/01/2000,01:30:20.10,18.79,-63.20,-992.10,166.25,-603.75,-437.50,1,94.140,
01/01/2000,01:30:20.11,18.79,-63.20,-991.98,262.50,-673.75,-367.50,1,94.144,
01/01/2000,01:30:20.12,18.79,-63.07,-992.10,140.0,-630.0,-210.0,1,94.149,
01/01/2000,01:30:20.13,18.91,-63.20,-992.10,218.75,-682.50,-306.25,1,94.153,
01/01/2000,01:30:20.15,18.91,-63.07,-992.10,166.25,-735.0,-376.25,1,94.157,
01/01/2000,01:30:20.16,18.91,-63.07,-991.98,87.50,-647.50,-437.50,1,94.162,
01/01/2000,01:30:20.17,19.03,-63.07,-991.86,52.50,-638.75,-393.75,1,94.166,
01/01/2000,01:30:20.18,18.91,-62.95,-991.98,131.25,-700.0,-323.75,1,94.170,
01/01/2000,01:30:20.19,19.03,-62.95,-992.10,113.75,-752.50,-332.50,1,94.175,
01/01/2000,01:30:20.20,18.79,-62.95,-992.10,201.25,-630.0,-428.75,1,94.179,
01/01/2000,01:30:20.21,18.79,-62.95,-992.10,192.50,-630.0,-253.75,1,94.183,
01/01/2000,01:30:20.22,18.91,-63.07,-992.10,43.75,-708.75,-367.50,1,94.188,
01/01/2000,01:30:20.23,18.79,-62.95,-991.86,192.50,-717.50,-288.75,1,94.192,
01/01/2000,01:30:20.24,18.91,-62.95,-991.86,122.50,-761.25,-393.75,1,94.196,
01/01/2000,01:30:20.25,18.91,-62.95,-991.98,140.0,-752.50,-350.0,1,94.201,
01/01/2000,01:30:20.26,18.79,-62.71,-991.98,78.75,-665.0,-306.25,1,94.205,
01/01/2000,01:30:20.27,18.79,-62.83,-991.98,140.0,-743.75,-297.50,1,94.209,
01/01/2000,01:30:20.28,18.67,-62.71,-991.98,122.50,-761.25,-350.0,1,94.214,
01/01/2000,01:30:20.29,18.67,-62.83,-991.86,227.50,-761.25,-332.50,1,94.218,
01/01/2000,01:30:20.30,18.79,-62.71,-991.98,26.25,-656.25,-341.25,1,94.222,
01/01/2000,01:30:20.31,18.79,-62.71,-992.10,140.0,-647.50,-376.25,1,94.227,
01/01/2000,01:30:20.32,18.67,-62.83,-991.98,245.0,-708.75,-341.25,1,94.231,
01/01/2000,01:30:20.33,18.79,-62.95,-991.86,87.50,-612.50,-332.50,1,94.235,
01/01/2000,01:30:20.34,18.79,-62.95,-991.86,140.0,-665.0,-402.50,1,94.239,
01/01/2000,01:30:20.35,18.79,-63.07,-991.74,183.75,-691.25,-280.0,1,94.174,
01/01/2000,01:30:20.37,18.79,-63.07,-991.86,70.0,-630.0,-332.50,1,94.178,
01/01/2000,01:30:20.38,18.79,-63.07,-991.86,201.25,-726.25,-341.25,1,94.183,
01/01/2000,01:30:20.39,18.67,-62.95,-992.10,175.0,-612.50,-280.0,1,94.187,
01/01/2000,01:30:20.40,18.67,-62.95,-992.10,271.25,-603.75,-358.75,1,94.191,
01/01/2000,01:30:20.41,18.79,-62.83,-992.10,122.50,-717.50,-315.0,1,94.195,
01/01/2000,01:30:20.42,18.91,-62.95,-991.98,201.25,-708.75,-376.25,1,94.200,
01/01/2000,01:30:20.43,18.79,-62.83,-991.98,323.75,-665.0,-358.75,1,94.204,
01/01/2000,01:30:20.44,18.79,-62.83,-991.98,253.75,-726.25,-428.75,1,94.208,
01/01/2000,01:30:20.45,18.79,-62.71,-992.10,280.0,-673.75,-271.25,1,94.212,
01/01/2000,01:30:20.46,18.79,-62.95,-992.10,122.50,-787.50,-350.0,1,94.217,
01/01/2000,01:30:20.47,18.79,-62.95,-991.98,183.75,-691.25,-367.50,1,94.221,
01/01/2000,01:30:20.48,18.67,-63.07,-991.98,253.75,-787.50,-358.75,1,94.225,
01/01/2000,01:30:20.49,18.79,-63.20,-992.10,192.50,-717.50,-323.75,1,94.161,
01/01/2000,01:30:20.50,18.67,-63.07,-992.10,157.50,-778.75,-332.50,1,94.165,
01/01/2000,01:30:20.51,18.79,-63.07,-992.10,271.25,-735.0,-332.50,1,94.169,
01/01/2000,01:30:20.52,18.54,-63.20,-992.10,175.0,-717.50,-402.50,1,94.173,
01/01/2000,01:30:20.53,18.54,-63.20,-991.98,96.25,-735.0,-428.75,1,94.178,
01/01/2000,01:30:20.54,18.67,-63.20,-991.98,122.50,-656.25,-332.50,1,94.182,
01/01/2000,01:30:20.55,18.79,-62.95,-992.10,131.25,-700.0,-315.0,1,94.186,
01/01/2000,01:30:20.57,18.67,-63.07,-991.98,192.50,-560.0,-323.75,1,94.190,
01/01/2000,01:30:20.58,18.42,-63.20,-991.86,183.75,-638.75,-411.25,1,94.194,
01/01/2000,01:30:20.59,18.42,-63.32,-991.86,131.25,-743.75,-341.25,1,94.199,
01/01/2000,01:30:20.60,18.54,-63.20,-992.10,332.50,-656.25,-315.0,1,94.203,
01/01/2000,01:30:20.62,18.67,-63.32,-991.98,8.75,-778.75,-341.25,1,94.139,
01/01/2000,01:30:20.63,18.42,-63.32,-991.86,113.75,-761.25,-358.75,1,94.143,
01/01/2000,01:30:20.64,18.67,-63.20,-991.98,105.0,-647.50,-306.25,1,94.147,
01/01/2000,01:30:20.65,18.67,-63.20,-991.98,122.50,-656.25,-297.50,1,94.152,
01/01/2000,01:30:20.66,18.67,-63.20,-991.98,148.75,-743.75,-306.25,1,94.156,
01/01/2000,01:30:20.67,18.54,-63.20,-991.86,210.0,-638.75,-472.50,1,94.160,
01/01/2000,01:30:20.68,18.54,-63.20,-991.74,105.0,-595.0,-280.0,1,94.164,
01/01/2000,01:30:20.69,18.54,-63.20,-991.86,61.25,-682.50,-385.0,1,94.168,
01/01/2000,01:30:20.70,18.67,-63.07,-992.10,175.0,-673.75,-420.0,1,94.173,
01/01/2000,01:30:20.71,18.54,-63.07,-992.10,175.0,-708.75,-350.0,1,94.177,
01/01/2000,01:30:20.72,18.54,-62.95,-992.10,140.0,-638.75,-297.50,1,94.181,
01/01/2000,01:30:20.73,18.54,-62.95,-992.10,113.75,-656.25,-323.75,1,94.185,
01/01/2000,01:30:20.74,18.54,-62.95,-991.74,183.75,-743.75,-323.75,1,94.189,
01/01/2000,01:30:20.75,18.54,-62.95,-991.86,105.0,-516.25,-350.0,1,94.194,
01/01/2000,01:30:20.76,18.67,-63.07,-991.86,26.25,-761.25,-350.0,1,94.198,
01/01/2000,01:30:20.77,18.67,-62.95,-991.86,131.25,-621.25,-323.75,1,94.202,
01/01/2000,01:30:20.78,18.54,-63.07,-991.86,140.0,-700.0,-376.25,1,94.139,
01/01/2000,01:30:20.79,18.54,-62.95,-991.86,-52.50,-665.0,-280.0,1,94.143,
01/01/2000,01:30:20.80,18.54,-63.20,-991.86,253.75,-691.25,-332.50,1,94.147,
01/01/2000,01:30:20.81,18.79,-63.20,-991.98,236.25,-717.50,-498.75,1,94.151,
01/01/2000,01:30:20.82,18.67,-63.20,-992.10,166.25,-682.50,-332.50,1,94.155,
01/01/2000,01:30:20.83,18.54,-63.20,-991.74,157.50,-787.50,-332.50,1,94.160,
01/01/2000,01:30:20.85,18.42,-62.95,-991.98,166.25,-717.50,-253.75,1,94.164,
01/01/2000,01:30:20.86,18.67,-62.95,-991.98,166.25,-743.75,-332.50,1,94.168,
01/01/2000,01:30:20.87,18.79,-63.07,-991.98,218.75,-656.25,-315.0,1,94.172,
01/01/2000,01:30:20.88,18.79,-63.20,-991.98,8.75,-761.25,-341.25,1,94.176,
01/01/2000,01:30:20.89,18.67,-63.32,-991.86,280.0,-656.25,-428.75,1,94.180,
01/01/2000,01:30:20.90,18.67,-63.07,-991.98,157.50,-735.0,-297.50,1,94.184,
01/01/2000,01:30:20.91,18.67,-62.95,-992.10,87.50,-726.25,-350.0,1,94.189,
01/01/2000,01:30:20.92,18.54,-63.07,-992.10,61.25,-805.0,-341.25,1,94.193,
01/01/2000,01:30:20.93,18.54,-63.32,-991.86,113.75,-691.25,-358.75,1,94.130,
01/01/2000,01:30:20.94,18.54,-63.20,-991.86,192.50,-665.0,-262.50,1,94.201,
01/01/2000,01:30:20.95,18.67,-62.95,-992.10,157.50,-717.50,-350.0,1,94.138,
01/01/2000,01:30:20.96,18.54,-62.83,-992.35,61.25,-665.0,-315.0,1,94.143,
01/01/2000,01:30:20.97,18.54,-62.83,-992.23,245.0,-647.50,-262.50,1,94.147,
01/01/2000,01:30:20.98,18.54,-62.95,-991.98,227.50,-638.75,-428.75,1,94.151,
01/01/2000,01:30:21.00,18.54,-63.07,-991.86,166.25,-682.50,-306.25,1,94.155,
01/01/2000,01:30:21.01,18.79,-62.95,-991.86,227.50,-673.75,-341.25,1,94.159,
01/01/2000,01:30:21.02,19.03,-62.71,-992.10,192.50,-700.0,-280.0,1,94.163,
01/01/2000,01:30:21.03,19.03,-62.95,-991.86,183.75,-673.75,-306.25,1,94.167,
01/01/2000,01:30:21.04,18.79,-62.83,-991.86,218.75,-621.25,-332.50,1,94.171,
01/01/2000,01:30:21.05,18.79,-62.95,-991.86,140.0,-638.75,-420.0,1,94.175,
01/01/2000,01:30:21.06,19.03,-62.95,-992.23,157.50,-603.75,-358.75,1,94.180,
01/01/2000,01:30:21.07,19.03,-63.07,-991.86,17.50,-796.25,-253.75,1,94.184,
01/01/2000,01:30:21.08,18.91,-62.83,-991.62,236.25,-708.75,-367.50,1,94.188,
01/01/2000,01:30:21.09,18.91,-63.07,-991.62,131.25,-673.75,-393.75,1,94.192,
01/01/2000,01:30:21.10,18.79,-62.95,-991.86,245.0,-787.50,-297.50,1,94.196,
01/01/2000,01:30:21.11,18.91,-62.95,-992.10,245.0,-656.25,-385.0,1,94.200,
01/01/2000,01:30:21.13,18.91,-63.07,-991.86,157.50,-638.75,-262.50,1,94.138,
01/01/2000,01:30:21.14,18.91,-63.07,-991.74,192.50,-805.0,-437.50,1,94.142,
01/01/2000,01:30:21.15,18.79,-63.20,-991.86,113.75,-700.0,-376.25,1,94.146,
01/01/2000,01:30:21.16,18.91,-63.20,-992.10,35.0,-691.25,-245.0,1,94.150,
01/01/2000,01:30:21.17,18.79,-63.20,-992.10,350.0,-726.25,-332.50,1,94.154,
01/01/2000,01:30:21.18,18.79,-63.20,-991.98,-17.50,-805.0,-280.0,1,94.159,
01/01/2000,01:30:21.19,18.79,-63.32,-991.74,201.25,-743.75,-437.50,1,94.163,
01/01/2000,01:30:21.20,18.79,-63.20,-991.62,175.0,-717.50,-358.75,1,94.167,
01/01/2000,01:30:21.21,18.79,-63.32,-991.86,61.25,-673.75,-341.25,1,94.171,
01/01/2000,01:30:21.22,18.79,-63.20,-991.86,157.50,-787.50,-385.0,1,94.175,
01/01/2000,01:30:21.23,18.79,-63.20,-991.86,175.0,-603.75,-297.50,1,94.179,
01/01/2000,01:30:21.24,18.67,-63.07,-991.62,175.0,-630.0,-306.25,1,94.183,
01/01/2000,01:30:21.25,18.79,-63.20,-991.62,192.50,-743.75,-358.75,1,94.187,
01/01/2000,01:30:21.26,18.91,-62.95,-991.86,87.50,-726.25,-271.25,1,94.191,
01/01/2000,01:30:21.27,18.91,-63.07,-991.98,271.25,-708.75,-358.75,1,94.130,
01/01/2000,01:30:21.28,18.79,-62.95,-991.86,175.0,-691.25,-350.0,1,94.134,
01/01/2000,01:30:21.29,18.67,-62.95,-991.74,236.25,-735.0,-420.0,1,94.138,
01/01/2000,01:30:21.30,18.67,-62.83,-991.74,192.50,-630.0,-332.50,1,94.142,
01/01/2000,01:30:21.31,18.67,-62.95,-991.98,201.25,-665.0,-280.0,1,94.146,
01/01/2000,01:30:21.32,18.79,-62.95,-992.23,157.50,-726.25,-297.50,1,94.150,
01/01/2000,01:30:21.33,18.67,-63.32,-992.10,87.50,-673.75,-385.0,1,94.154,
01/01/2000,01:30:21.35,18.67,-63.20,-992.10,0.0,-735.0,-411.25,1,94.158,
01/01/2000,01:30:21.36,18.67,-63.20,-992.10,227.50,-700.0,-332.50,1,94.162,
01/01/2000,01:30:21.37,18.79,-63.07,-992.10,306.25,-612.50,-393.75,1,94.166,
01/01/2000,01:30:21.38,18.79,-63.07,-992.10,166.25,-726.25,-393.75,1,94.170,
01/01/2000,01:30:21.39,18.54,-63.20,-991.98,227.50,-656.25,-358.75,1,94.174,
01/01/2000,01:30:21.40,18.79,-63.20,-991.98,210.0,-743.75,-332.50,1,94.178,
01/01/2000,01:30:21.41,18.91,-62.95,-992.10,183.75,-603.75,-376.25,1,94.182,
01/01/2000,01:30:21.42,18.79,-62.95,-992.10,113.75,-682.50,-332.50,1,94.186,
01/01/2000,01:30:21.43,18.67,-62.95,-992.23,148.75,-586.25,-472.50,1,94.190,
01/01/2000,01:30:21.44,18.79,-62.83,-992.35,236.25,-735.0,-341.25,1,94.194,
01/01/2000,01:30:21.45,18.79,-62.95,-992.35,201.25,-612.50,-332.50,1,94.198,
01/01/2000,01:30:21.46,19.03,-62.95,-992.35,140.0,-708.75,-367.50,1,94.202,
01/01/2000,01:30:21.47,19.03,-62.95,-992.10,131.25,-752.50,-367.50,1,94.206,
01/01/2000,01:30:21.49,18.79,-63.07,-992.10,148.75,-691.25,-253.75,1,94.146,
01/01/2000,01:30:21.50,18.79,-63.07,-992.10,131.25,-752.50,-323.75,1,94.150,
01/01/2000,01:30:21.51,18.91,-62.83,-992.35,61.25,-595.0,-367.50,1,94.154,
01/01/2000,01:30:21.52,19.03,-62.95,-992.23,253.75,-770.0,-323.75,1,94.158,
01/01/2000,01:30:21.53,18.91,-62.95,-992.10,140.0,-752.50,-385.0,1,94.162,
01/01/2000,01:30:21.54,18.79,-63.07,-992.10,105.0,-682.50,-332.50,1,94.166,
01/01/2000,01:30:21.55,18.79,-63.07,-992.10,113.75,-708.75,-245.0,1,94.169,
01/01/2000,01:30:21.56,18.79,-63.20,-992.23,140.0,-656.25,-385.0,1,94.173,
01/01/2000,01:30:21.57,18.79,-63.07,-992.23,175.0,-717.50,-376.25,1,94.177,
01/01/2000,01:30:21.58,18.67,-63.07,-992.23,245.0,-612.50,-376.25,1,94.181,
01/01/2000,01:30:21.59,18.67,-63.20,-992.10,87.50,-621.25,-385.0,1,94.185,
01/01/2000,01:30:21.60,18.67,-63.44,-991.98,157.50,-743.75,-385.0,1,94.189,
01/01/2000,01:30:21.61,18.67,-63.44,-992.10,105.0,-840.0,-367.50,1,94.193,
01/01/2000,01:30:21.62,18.54,-63.20,-992.23,78.75,-647.50,-367.50,1,94.134,
01/01/2000,01:30:21.64,18.67,-63.20,-992.23,192.50,-726.25,-455.0,1,94.137,
01/01/2000,01:30:21.65,18.67,-63.07,-992.23,122.50,-673.75,-367.50,1,94.141,
01/01/2000,01:30:21.66,18.54,-63.32,-992.35,113.75,-761.25,-306.25,1,94.145,
01/01/2000,01:30:21.67,18.67,-63.20,-992.35,201.25,-691.25,-297.50,1,94.149,
01/01/2000,01:30:21.68,18.67,-63.07,-992.35,96.25,-700.0,-323.75,1,94.153,
01/01/2000,01:30:21.69,18.67,-62.95,-992.35,262.50,-665.0,-271.25,1,94.157,
01/01/2000,01:30:21.70,18.67,-62.95,-992.23,113.75,-717.50,-393.75,1,94.161,
01/01/2000,01:30:21.71,18.79,-63.07,-992.10,113.75,-682.50,-306.25,1,94.165,
01/01/2000,01:30:21.72,18.79,-63.20,-992.23,288.75,-743.75,-437.50,1,94.169,
01/01/2000,01:30:21.73,18.91,-63.20,-992.10,236.25,-708.75,-323.75,1,94.173,
01/01/2000,01:30:21.74,18.79,-63.20,-992.23,262.50,-656.25,-323.75,1,94.177,
01/01/2000,01:30:21.75,18.67,-63.07,-992.10,43.75,-752.50,-271.25,1,94.181,
01/01/2000,01:30:21.76,18.67,-63.20,-992.23,87.50,-761.25,-367.50,1,94.184,
01/01/2000,01:30:21.77,18.67,-63.07,-992.23,218.75,-656.25,-332.50,1,94.188,
01/01/2000,01:30:21.78,18.67,-63.07,-992.23,157.50,-717.50,-411.25,1,94.129,
01/01/2000,01:30:21.79,18.79,-62.95,-992.10,253.75,-691.25,-323.75,1,94.196,
01/01/2000,01:30:21.80,18.79,-62.95,-992.23,157.50,-726.25,-332.50,1,94.137,
01/01/2000,01:30:21.81,18.91,-62.95,-992.23,122.50,-743.75,-341.25,1,94.141,
01/01/2000,01:30:21.82,18.91,-62.95,-992.10,236.25,-743.75,-358.75,1,94.145,
01/01/2000,01:30:21.84,18.79,-62.95,-992.10,122.50,-682.50,-332.50,1,94.149,
01/01/2000,01:30:21.85,18.79,-63.20,-992.10,157.50,-743.75,-280.0,1,94.153,
01/01/2000,01:30:21.86,18.79,-63.20,-992.10,192.50,-586.25,-358.75,1,94.157,
01/01/2000,01:30:21.87,18.79,-63.07,-992.10,253.75,-691.25,-367.50,1,94.161,
01/01/2000,01:30:21.88,18.79,-63.20,-991.98,192.50,-656.25,-367.50,1,94.164,
01/01/2000,01:30:21.89,18.67,-63.20,-992.10,113.75,-682.50,-306.25,1,94.168,
01/01/2000,01:30:21.90,18.67,-63.32,-992.10,183.75,-813.75,-350.0,1,94.172,
01/01/2000,01:30:21.91,18.67,-63.44,-992.10,105.0,-700.0,-262.50,1,94.176,
01/01/2000,01:30:21.92,18.67,-63.32,-992.10,192.50,-700.0,-350.0,1,94.180,
01/01/2000,01:30:21.93,18.67,-63.32,-992.23,113.75,-700.0,-332.50,1,94.184,
01/01/2000,01:30:21.94,18.79,-63.32,-992.35,148.75,-743.75,-323.75,1,94.188,
01/01/2000,01:30:21.95,18.91,-63.32,-992.35,166.25,-743.75,-315.0,1,94.191,
01/01/2000,01:30:21.96,18.67,-63.32,-992.35,201.25,-612.50,-332.50,1,94.195,
01/01/2000,01:30:21.97,18.67,-63.20,-992.35,140.0,-717.50,-341.25,1,94.137,
01/01/2000,01:30:21.98,18.79,-63.20,-992.35,113.75,-770.0,-367.50,1,94.141,
01/01/2000,01:30:21.99,18.79,-63.20,-992.35,227.50,-638.75,-280.0,1,94.145,
01/01/2000,01:30:22.00,18.67,-63.32,-992.23,253.75,-691.25,-306.25,1,94.149,
01/01/2000,01:30:22.01,18.54,-63.32,-992.10,218.75,-682.50,-463.75,1,94.152,
01/01/2000,01:30:22.02,18.54,-63.20,-992.10,201.25,-647.50,-420.0,1,94.156,
01/01/2000,01:30:22.04,18.67,-63.07,-992.10,192.50,-656.25,-411.25,1,94.160,
01/01/2000,01:30:22.05,18.79,-63.07,-992.10,148.75,-656.25,-323.75,1,94.164,
01/01/2000,01:30:22.06,18.79,-63.20,-992.10,201.25,-673.75,-507.50,1,94.168,
01/01/2000,01:30:22.07,18.79,-63.07,-992.35,183.75,-630.0,-341.25,1,94.172,
01/01/2000,01:30:22.08,18.79,-62.95,-992.35,148.75,-691.25,-367.50,1,94.175,
01/01/2000,01:30:22.09,19.03,-62.95,-992.35,166.25,-665.0,-367.50,1,94.179,
01/01/2000,01:30:22.10,19.03,-63.07,-992.23,192.50,-656.25,-227.50,1,94.183,
01/01/2000,01:30:22.11,19.03,-63.20,-992.23,210.0,-691.25,-420.0,1,94.187,
01/01/2000,01:30:22.12,18.91,-63.20,-992.23,166.25,-621.25,-358.75,1,94.129,
01/01/2000,01:30:22.13,19.03,-63.20,-992.35,105.0,-735.0,-315.0,1,94.133,
01/01/2000,01:30:22.15,19.03,-63.20,-992.23,192.50,-673.75,-358.75,1,94.137,
01/01/2000,01:30:22.16,19.03,-63.07,-992.23,236.25,-595.0,-358.75,1,94.141,
01/01/2000,01:30:22.17,18.79,-62.95,-992.23,78.75,-796.25,-393.75,1,94.144,
01/01/2000,01:30:22.18,18.79,-63.07,-992.35,113.75,-691.25,-297.50,1,94.148,
01/01/2000,01:30:22.19,18.79,-63.07,-992.35,183.75,-691.25,-350.0,1,94.152,
01/01/2000,01:30:22.20,18.67,-63.20,-992.35,70.0,-761.25,-358.75,1,94.156,
01/01/2000,01:30:22.21,18.79,-63.20,-992.23,218.75,-577.50,-323.75,1,94.160,
01/01/2000,01:30:22.22,18.79,-63.20,-992.23,105.0,-708.75,-402.50,1,94.163,
01/01/2000,01:30:22.23,18.79,-63.20,-992.47,70.0,-682.50,-297.50,1,94.167,
01/01/2000,01:30:22.24,18.91,-63.32,-992.47,148.75,-761.25,-315.0,1,94.171,
01/01/2000,01:30:22.25,18.79,-63.20,-992.35,183.75,-708.75,-367.50,1,94.175,
01/01/2000,01:30:22.26,18.67,-63.20,-992.23,61.25,-682.50,-280.0,1,94.179,
01/01/2000,01:30:22.27,18.79,-63.07,-992.23,140.0,-700.0,-385.0,1,94.182,
01/01/2000,01:30:22.28,18.79,-62.95,-992.35,315.0,-656.25,-385.0,1,94.186,
01/01/2000,01:30:22.29,18.79,-62.95,-992.35,43.75,-770.0,-367.50,1,94.190,
01/01/2000,01:30:22.30,18.79,-63.07,-992.35,96.25,-691.25,-350.0,1,94.194,
01/01/2000,01:30:22.31,18.79,-62.95,-992.35,271.25,-673.75,-411.25,1,94.197,
01/01/2000,01:30:22.32,18.79,-63.07,-992.23,227.50,-665.0,-420.0,1,94.201,
01/01/2000,01:30:22.34,18.79,-62.95,-992.35,35.0,-726.25,-385.0,1,94.144,
01/01/2000,01:30:22.35,18.91,-63.20,-992.47,43.75,-708.75,-280.0,1,94.148,
01/01/2000,01:30:22.36,18.79,-63.20,-992.59,157.50,-717.50,-367.50,1,94.152,
01/01/2000,01:30:22.37,18.79,-63.20,-992.47,122.50,-691.25,-280.0,1,94.155,
01/01/2000,01:30:22.38,18.79,-63.20,-992.23,122.50,-691.25,-367.50,1,94.159,
01/01/2000,01:30:22.39,18.79,-63.20,-992.10,17.50,-761.25,-262.50,1,94.163,
01/01/2000,01:30:22.40,18.91,-63.07,-992.10,131.25,-700.0,-332.50,1,94.167,
01/01/2000,01:30:22.41,19.03,-63.20,-992.35,245.0,-577.50,-245.0,1,94.170,
01/01/2000,01:30:22.42,19.03,-63.07,-992.35,140.0,-726.25,-315.0,1,94.174,
01/01/2000,01:30:22.43,18.91,-63.07,-992.47,175.0,-682.50,-393.75,1,94.178,
01/01/2000,01:30:22.44,19.03,-63.20,-992.35,157.50,-577.50,-323.75,1,94.182,
01/01/2000,01:30:22.45,18.91,-63.20,-992.35,183.75,-682.50,-315.0,1,94.185,
01/01/2000,01:30:22.46,18.79,-63.32,-992.35,166.25,-883.75,-376.25,1,94.189,
01/01/2000,01:30:22.47,18.67,-63.32,-992.35,148.75,-682.50,-332.50,1,94.133,
01/01/2000,01:30:22.48,18.54,-63.20,-992.35,262.50,-673.75,-323.75,1,94.136,
01/01/2000,01:30:22.49,18.79,-63.32,-992.35,236.25,-691.25,-297.50,1,94.140,
01/01/2000,01:30:22.50,18.67,-63.44,-992.35,227.50,-700.0,-280.0,1,94.144,
01/01/2000,01:30:22.51,18.67,-63.44,-992.35,183.75,-813.75,-367.50,1,94.148,
01/01/2000,01:30:22.52,18.79,-63.44,-992.35,227.50,-647.50,-411.25,1,94.151,
01/01/2000,01:30:22.53,18.79,-63.44,-992.47,70.0,-778.75,-288.75,1,94.155,
01/01/2000,01:30:22.55,18.67,-63.44,-992.35,315.0,-787.50,-350.0,1,94.159,
01/01/2000,01:30:22.56,18.54,-63.44,-992.47,201.25,-665.0,-367.50,1,94.162,
01/01/2000,01:30:22.57,18.54,-63.44,-992.59,52.50,-761.25,-358.75,1,94.166,
01/01/2000,01:30:22.58,18.54,-63.44,-992.47,157.50,-726.25,-253.75,1,94.170,
01/01/2000,01:30:22.59,18.54,-63.32,-992.47,105.0,-700.0,-332.50,1,94.174,
01/01/2000,01:30:22.60,18.54,-63.32,-992.47,183.75,-673.75,-262.50,1,94.177,
01/01/2000,01:30:22.61,18.67,-63.20,-992.35,183.75,-717.50,-411.25,1,94.121,
01/01/2000,01:30:22.62,18.67,-63.20,-992.47,166.25,-708.75,-288.75,1,94.185,
01/01/2000,01:30:22.63,18.79,-63.07,-992.59,140.0,-700.0,-367.50,1,94.129,
01/01/2000,01:30:22.64,18.67,-62.95,-992.47,35.0,-638.75,-315.0,1,94.132,
01/01/2000,01:30:22.66,18.79,-62.95,-992.23,210.0,-787.50,-385.0,1,94.136,
01/01/2000,01:30:22.67,18.79,-62.95,-992.35,131.25,-743.75,-402.50,1,94.140,
01/01/2000,01:30:22.68,18.79,-62.95,-992.59,236.25,-595.0,-393.75,1,94.144,
01/01/2000,01:30:22.69,18.79,-63.07,-992.47,35.0,-813.75,-367.50,1,94.147,
01/01/2000,01:30:22.70,18.79,-63.20,-992.47,122.50,-708.75,-271.25,1,94.151,
01/01/2000,01:30:22.71,18.67,-63.20,-992.35,227.50,-752.50,-315.0,1,94.155,
01/01/2000,01:30:22.72,18.54,-62.95,-992.47,201.25,-752.50,-297.50,1,94.158,
01/01/2000,01:30:22.73,18.67,-63.07,-992.59,175.0,-770.0,-385.0,1,94.162,
01/01/2000,01:30:22.74,18.67,-63.20,-992.59,140.0,-726.25,-315.0,1,94.166,
01/01/2000,01:30:22.75,18.67,-63.32,-992.47,183.75,-691.25,-323.75,1,94.169,
01/01/2000,01:30:22.76,18.67,-63.20,-992.47,183.75,-665.0,-306.25,1,94.173,
01/01/2000,01:30:22.77,18.54,-63.20,-992.59,192.50,-665.0,-288.75,1,94.177,
01/01/2000,01:30:22.78,18.79,-63.07,-992.59,157.50,-787.50,-288.75,1,94.180,
01/01/2000,01:30:22.79,18.67,-63.20,-992.59,297.50,-743.75,-280.0,1,94.184,
01/01/2000,01:30:22.80,18.79,-63.20,-992.35,183.75,-665.0,-297.50,1,94.188,
01/01/2000,01:30:22.81,18.79,-63.32,-992.35,183.75,-682.50,-323.75,1,94.191,
01/01/2000,01:30:22.82,18.67,-63.07,-992.35,96.25,-665.0,-350.0,1,94.136,
01/01/2000,01:30:22.83,18.67,-63.07,-992.35,262.50,-691.25,-367.50,1,94.140,
01/01/2000,01:30:22.84,18.67,-63.07,-992.23,43.75,-656.25,-332.50,1,94.143,
01/01/2000,01:30:22.85,18.54,-63.20,-992.10,148.75,-717.50,-323.75,1,94.147,
01/01/2000,01:30:22.86,18.54,-62.95,-992.10,271.25,-700.0,-350.0,1,94.151,
01/01/2000,01:30:22.87,18.79,-62.83,-992.23,201.25,-708.75,-367.50,1,94.154,
01/01/2000,01:30:22.89,18.67,-62.83,-992.35,201.25,-752.50,-393.75,1,94.158,
01/01/2000,01:30:22.90,18.79,-62.83,-992.35,140.0,-708.75,-288.75,1,94.161,
01/01/2000,01:30:22.91,18.79,-62.95,-992.35,236.25,-700.0,-393.75,1,94.165,
01/01/2000,01:30:22.92,18.67,-63.07,-992.35,192.50,-595.0,-315.0,1,94.169,
01/01/2000,01:30:22.93,18.67,-62.95,-992.35,52.50,-778.75,-341.25,1,94.172,
01/01/2000,01:30:22.94,18.91,-62.95,-992.35,148.75,-647.50,-420.0,1,94.176,
01/01/2000,01:30:22.95,18.79,-62.95,-992.10,218.75,-708.75,-341.25,1,94.180,
01/01/2000,01:30:22.96,18.67,-63.20,-992.10,140.0,-708.75,-385.0,1,94.125,
01/01/2000,01:30:22.97,18.67,-63.07,-992.10,87.50,-568.75,-385.0,1,94.129,
01/01/2000,01:30:22.98,18.79,-63.07,-992.10,210.0,-691.25,-253.75,1,94.132,
01/01/2000,01:30:22.99,18.79,-63.07,-992.10,192.50,-717.50,-385.0,1,94.136,
01/01/2000,01:30:23.00,18.79,-62.95,-992.23,166.25,-656.25,-402.50,1,94.139,
01/01/2000,01:30:23.01,18.67,-63.07,-992.10,218.75,-647.50,-350.0,1,94.143,
01/01/2000,01:30:23.02,18.67,-63.07,-992.10,183.75,-603.75,-376.25,1,94.147,
01/01/2000,01:30:23.04,18.67,-63.07,-992.10,175.0,-761.25,-341.25,1,94.150,
01/01/2000,01:30:23.05,18.54,-63.07,-992.10,210.0,-743.75,-297.50,1,94.154,
01/01/2000,01:30:23.06,18.54,-62.95,-992.10,140.0,-673.75,-376.25,1,94.157,
01/01/2000,01:30:23.07,18.67,-62.95,-992.23,210.0,-691.25,-341.25,1,94.161,
01/01/2000,01:30:23.08,18.54,-62.95,-992.35,271.25,-673.75,-393.75,1,94.165,
01/01/2000,01:30:23.09,18.67,-62.95,-992.35,210.0,-726.25,-385.0,1,94.168,
01/01/2000,01:30:23.10,18.67,-62.95,-992.10,17.50,-691.25,-280.0,1,94.172,
01/01/2000,01:30:23.11,18.67,-63.07,-992.10,96.25,-708.75,-332.50,1,94.175,
01/01/2000,01:30:23.12,18.67,-63.07,-992.23,218.75,-665.0,-367.50,1,94.179,
01/01/2000,01:30:23.13,18.79,-63.07,-992.35,96.25,-717.50,-393.75,1,94.182,
01/01/2000,01:30:23.14,18.79,-63.07,-992.47,131.25,-778.75,-402.50,1,94.186,
01/01/2000,01:30:23.15,18.67,-63.07,-992.47,271.25,-708.75,-332.50,1,94.190,
01/01/2000,01:30:23.17,18.54,-63.20,-992.35,262.50,-682.50,-323.75,1,94.136,
01/01/2000,01:30:23.18,18.67,-63.20,-992.35,78.75,-603.75,-315.0,1,94.139,
01/01/2000,01:30:23.19,18.67,-63.20,-992.23,148.75,-813.75,-402.50,1,94.143,
01/01/2000,01:30:23.20,18.67,-63.20,-992.35,175.0,-630.0,-341.25,1,94.146,
01/01/2000,01:30:23.21,18.67,-63.20,-992.35,341.25,-796.25,-455.0,1,94.150,
01/01/2000,01:30:23.22,18.67,-63.07,-992.23,201.25,-665.0,-297.50,1,94.153,
01/01/2000,01:30:23.23,18.79,-63.20,-992.10,166.25,-700.0,-341.25,1,94.157,
01/01/2000,01:30:23.24,18.54,-63.32,-992.10,227.50,-796.25,-385.0,1,94.161,
01/01/2000,01:30:23.25,18.54,-63.32,-992.10,96.25,-726.25,-437.50,1,94.164,
01/01/2000,01:30:23.26,18.54,-63.20,-992.10,166.25,-717.50,-323.75,1,94.168,
01/01/2000,01:30:23.27,18.67,-62.95,-992.10,166.25,-647.50,-280.0,1,94.171,
01/01/2000,01:30:23.28,18.54,-62.95,-992.23,183.75,-743.75,-332.50,1,94.175,
01/01/2000,01:30:23.29,18.54,-62.95,-992.23,105.0,-656.25,-376.25,1,94.178,
01/01/2000,01:30:23.30,18.42,-63.07,-992.10,105.0,-743.75,-350.0,1,94.182,
01/01/2000,01:30:23.31,18.42,-63.20,-992.10,78.75,-796.25,-411.25,1,94.185,
01/01/2000,01:30:23.32,18.54,-62.95,-992.23,192.50,-665.0,-341.25,1,94.132,
01/01/2000,01:30:23.33,18.67,-62.95,-992.23,140.0,-630.0,-280.0,1,94.135,
01/01/2000,01:30:23.34,18.67,-62.95,-992.10,175.0,-673.75,-306.25,1,94.139,
01/01/2000,01:30:23.35,18.67,-62.95,-992.10,113.75,-621.25,-341.25,1,94.143,
01/01/2000,01:30:23.36,18.67,-63.07,-992.23,105.0,-700.0,-385.0,1,94.146,
01/01/2000,01:30:23.37,18.79,-63.20,-992.35,140.0,-700.0,-428.75,1,94.150,
01/01/2000,01:30:23.39,18.79,-62.95,-992.10,218.75,-735.0,-350.0,1,94.153,
01/01/2000,01:30:23.40,18.67,-62.95,-992.10,131.25,-796.25,-306.25,1,94.157,
01/01/2000,01:30:23.41,18.54,-62.95,-992.10,78.75,-743.75,-288.75,1,94.160,
01/01/2000,01:30:23.42,18.54,-62.95,-992.10,105.0,-603.75,-323.75,1,94.164,
01/01/2000,01:30:23.43,18.79,-63.07,-992.10,26.25,-726.25,-350.0,1,94.167,
01/01/2000,01:30:23.44,18.79,-62.95,-991.98,113.75,-717.50,-262.50,1,94.171,
01/01/2000,01:30:23.45,18.67,-62.95,-991.86,236.25,-630.0,-402.50,1,94.174,
01/01/2000,01:30:23.46,18.54,-62.95,-991.86,148.75,-656.25,-323.75,1,94.121,
01/01/2000,01:30:23.47,18.54,-62.95,-991.86,113.75,-647.50,-315.0,1,94.125,
01/01/2000,01:30:23.48,18.79,-62.83,-992.10,280.0,-796.25,-323.75,1,94.128,
01/01/2000,01:30:23.49,18.79,-62.83,-992.10,315.0,-682.50,-323.75,1,94.132,
01/01/2000,01:30:23.50,18.79,-62.95,-992.10,201.25,-787.50,-385.0,1,94.135,
01/01/2000,01:30:23.51,18.79,-62.95,-992.10,288.75,-743.75,-385.0,1,94.139,
01/01/2000,01:30:23.52,18.79,-63.07,-991.98,280.0,-621.25,-332.50,1,94.142,
01/01/2000,01:30:23.54,18.79,-63.20,-991.86,131.25,-630.0,-341.25,1,94.146,
01/01/2000,01:30:23.55,18.79,-63.07,-991.86,0.0,-612.50,-297.50,1,94.149,
