rtcDate,rtcTime,aX,aY,aZ,gX,gY,gZ,dataRdy,output_Hz,
01/01/2000,01:38:22.20,12.69,-61.98,-862.54,70.0,-752.50,-315.0,1,0.0,
01/01/2000,01:38:22.21,12.69,-64.29,-891.82,227.50,-656.25,-367.50,1,100.0,
01/01/2000,01:38:22.23,12.93,-65.15,-904.26,201.25,-577.50,-367.50,1,100.0,
01/01/2000,01:38:22.24,13.54,-65.76,-915.0,192.50,-770.0,-358.75,1,100.0,
01/01/2000,01:38:22.25,13.79,-66.49,-928.91,210.0,-778.75,-297.50,1,100.0,
01/01/2000,01:38:22.26,13.54,-67.34,-936.47,105.0,-752.50,-332.50,1,100.0,
01/01/2000,01:38:22.27,13.42,-68.08,-943.30,175.0,-665.0,-332.50,1,100.0,
01/01/2000,01:38:22.28,13.66,-68.32,-949.53,122.50,-656.25,-306.25,1,100.0,
01/01/2000,01:38:22.29,14.15,-68.81,-957.21,262.50,-665.0,-288.75,1,100.0,
01/01/2000,01:38:22.30,14.27,-69.17,-961.36,87.50,-726.25,-297.50,1,100.0,
01/01/2000,01:38:22.31,14.03,-69.54,-965.02,192.50,-717.50,-367.50,1,100.0,
01/01/2000,01:38:22.32,13.91,-69.78,-968.44,227.50,-761.25,-393.75,1,100.0,
01/01/2000,01:38:22.33,14.03,-70.03,-973.07,175.0,-665.0,-306.25,1,100.0,
01/01/2000,01:38:22.34,14.40,-70.15,-975.51,105.0,-656.25,-288.75,1,100.0,
01/01/2000,01:38:22.35,14.40,-70.39,-977.59,-17.50,-577.50,-271.25,1,100.0,
01/01/2000,01:38:22.36,14.27,-70.39,-979.17,8.75,-778.75,-245.0,1,100.0,
01/01/2000,01:38:22.37,14.03,-70.76,-981.61,140.0,-708.75,-428.75,1,100.0,
01/01/2000,01:38:22.38,14.27,-71.00,-983.08,78.75,-647.50,-297.50,1,100.0,
01/01/2000,01:38:22.39,14.40,-71.13,-984.54,262.50,-691.25,-297.50,1,100.0,
01/01/2000,01:38:22.40,14.40,-71.13,-985.52,70.0,-787.50,-262.50,1,100.0,
01/01/2000,01:38:22.41,14.15,-71.00,-986.25,52.50,-700.0,-341.25,1,100.0,
01/01/2000,01:38:22.42,14.15,-71.13,-986.98,227.50,-665.0,-306.25,1,100.0,
01/01/2000,01:38:22.43,14.27,-71.25,-987.71,78.75,-717.50,-385.0,1,100.0,
01/01/2000,01:38:22.44,14.40,-71.25,-988.69,122.50,-840.0,-280.0,1,100.0,
01/01/2000,01:38:22.45,14.40,-71.25,-989.30,113.75,-743.75,-385.0,1,100.0,
01/01/2000,01:38:22.46,14.52,-71.25,-989.42,96.25,-682.50,-393.75,1,100.0,
01/01/2000,01:38:22.47,14.40,-71.25,-989.54,192.50,-603.75,-306.25,1,100.0,
01/01/2000,01:38:22.48,14.40,-71.00,-990.15,61.25,-682.50,-498.75,1,96.552,
01/01/2000,01:38:22.49,14.52,-71.25,-990.64,78.75,-717.50,-350.0,1,96.667,
01/01/2000,01:38:22.50,14.64,-71.13,-991.01,218.75,-708.75,-245.0,1,96.774,
01/01/2000,01:38:22.51,14.27,-71.25,-991.13,175.0,-630.0,-341.25,1,96.875,
01/01/2000,01:38:22.52,14.40,-71.37,-991.13,140.0,-603.75,-332.50,1,96.970,
01/01/2000,01:38:22.53,14.52,-71.25,-991.25,87.50,-778.75,-367.50,1,97.059,
01/01/2000,01:38:22.55,14.64,-71.25,-991.49,280.0,-787.50,-288.75,1,97.143,
01/01/2000,01:38:22.56,14.40,-71.25,-991.62,26.25,-743.75,-323.75,1,97.222,
01/01/2000,01:38:22.57,14.27,-71.49,-991.62,183.75,-682.50,-437.50,1,97.297,
01/01/2000,01:38:22.58,14.27,-71.37,-991.74,236.25,-717.50,-350.0,1,97.368,
01/01/2000,01:38:22.59,14.40,-71.49,-992.10,245.0,-708.75,-253.75,1,97.436,
01/01/2000,01:38:22.60,14.52,-71.49,-992.23,131.25,-761.25,-411.25,1,97.500,
01/01/2000,01:38:22.61,14.64,-71.49,-992.10,157.50,-708.75,-236.25,1,97.561,
01/01/2000,01:38:22.62,14.15,-71.49,-991.98,166.25,-761.25,-402.50,1,97.619,
01/01/2000,01:38:22.63,14.15,-71.37,-992.35,8.75,-647.50,-393.75,1,97.674,
01/01/2000,01:38:22.64,14.52,-71.25,-992.35,245.0,-770.0,-498.75,1,95.556,
01/01/2000,01:38:22.65,14.64,-71.25,-992.35,175.0,-612.50,-288.75,1,95.652,
01/01/2000,01:38:22.66,14.64,-71.25,-992.10,157.50,-621.25,-437.50,1,95.745,
01/01/2000,01:38:22.67,14.15,-71.49,-992.10,236.25,-656.25,-437.50,1,95.833,
01/01/2000,01:38:22.68,14.40,-71.61,-992.10,113.75,-735.0,-411.25,1,95.918,
01/01/2000,01:38:22.70,14.76,-71.49,-992.47,183.75,-813.75,-306.25,1,96.0,
01/01/2000,01:38:22.71,14.76,-71.37,-992.47,70.0,-796.25,-245.0,1,96.078,
01/01/2000,01:38:22.72,14.52,-71.37,-992.10,218.75,-647.50,-358.75,1,96.154,
01/01/2000,01:38:22.73,14.40,-71.61,-991.98,201.25,-708.75,-341.25,1,96.226,
01/01/2000,01:38:22.74,14.52,-71.61,-992.23,122.50,-700.0,-367.50,1,96.296,
01/01/2000,01:38:22.75,14.64,-71.61,-992.23,0.0,-656.25,-411.25,1,96.364,
01/01/2000,01:38:22.76,14.76,-71.49,-992.10,96.25,-665.0,-376.25,1,94.737,
01/01/2000,01:38:22.77,14.52,-71.37,-991.86,192.50,-700.0,-393.75,1,94.828,
01/01/2000,01:38:22.78,14.52,-71.37,-991.98,297.50,-700.0,-253.75,1,94.915,
01/01/2000,01:38:22.79,14.64,-71.49,-992.23,175.0,-621.25,-315.0,1,95.0,
01/01/2000,01:38:22.80,14.88,-71.49,-992.35,157.50,-717.50,-245.0,1,95.082,
01/01/2000,01:38:22.81,14.64,-71.74,-992.10,148.75,-708.75,-376.25,1,95.161,
01/01/2000,01:38:22.82,14.40,-71.49,-991.98,105.0,-778.75,-288.75,1,95.238,
01/01/2000,01:38:22.83,14.40,-71.37,-992.10,157.50,-761.25,-455.0,1,95.313,
01/01/2000,01:38:22.84,14.64,-71.37,-992.59,280.0,-700.0,-341.25,1,95.385,
01/01/2000,01:38:22.85,14.64,-71.49,-992.59,8.75,-630.0,-323.75,1,95.455,
01/01/2000,01:38:22.86,14.40,-71.49,-992.35,218.75,-726.25,-367.50,1,95.522,
01/01/2000,01:38:22.87,14.40,-71.61,-992.10,201.25,-682.50,-437.50,1,95.588,
01/01/2000,01:38:22.88,14.52,-71.49,-992.23,43.75,-735.0,-358.75,1,95.652,
01/01/2000,01:38:22.89,14.52,-71.49,-992.59,87.50,-700.0,-245.0,1,95.714,
01/01/2000,01:38:22.91,14.27,-71.49,-992.71,175.0,-717.50,-306.25,1,95.775,
01/01/2000,01:38:22.92,14.03,-71.49,-992.35,201.25,-647.50,-332.50,1,95.833,
01/01/2000,01:38:22.93,14.27,-71.49,-992.35,70.0,-586.25,-323.75,1,95.890,
01/01/2000,01:38:22.94,14.52,-71.49,-992.10,201.25,-682.50,-280.0,1,95.946,
01/01/2000,01:38:22.95,14.52,-71.49,-992.35,96.25,-708.75,-227.50,1,96.0,
01/01/2000,01:38:22.96,14.40,-71.49,-992.47,183.75,-778.75,-437.50,1,96.053,
01/01/2000,01:38:22.97,14.40,-71.49,-992.47,43.75,-656.25,-323.75,1,94.872,
01/01/2000,01:38:22.98,14.52,-71.61,-992.47,35.0,-603.75,-420.0,1,96.154,
01/01/2000,01:38:22.99,14.64,-71.61,-992.59,70.0,-717.50,-297.50,1,95.0,
01/01/2000,01:38:23.00,14.52,-71.74,-992.59,183.75,-673.75,-341.25,1,95.062,
01/01/2000,01:38:23.01,14.40,-71.74,-992.71,192.50,-787.50,-358.75,1,95.122,
01/01/2000,01:38:23.02,14.40,-71.61,-992.84,148.75,-735.0,-358.75,1,95.181,
01/01/2000,01:38:23.03,14.40,-71.49,-992.71,105.0,-743.75,-393.75,1,95.238,
01/01/2000,01:38:23.05,14.64,-71.37,-992.47,262.50,-700.0,-253.75,1,95.294,
01/01/2000,01:38:23.06,14.64,-71.49,-992.59,157.50,-822.50,-367.50,1,95.349,
01/01/2000,01:38:23.07,14.40,-71.74,-992.71,70.0,-612.50,-332.50,1,95.402,
01/01/2000,01:38:23.08,14.40,-71.74,-992.71,183.75,-691.25,-253.75,1,95.455,
01/01/2000,01:38:23.09,14.40,-71.61,-992.59,236.25,-743.75,-525.0,1,95.506,
01/01/2000,01:38:23.10,14.52,-71.49,-992.59,96.25,-717.50,-341.25,1,95.556,
01/01/2000,01:38:23.11,14.40,-71.61,-992.47,210.0,-682.50,-271.25,1,95.604,
01/01/2000,01:38:23.12,14.40,-71.86,-992.35,210.0,-682.50,-271.25,1,95.652,
01/01/2000,01:38:23.13,14.40,-71.98,-992.47,131.25,-708.75,-332.50,1,95.699,
01/01/2000,01:38:23.14,14.40,-71.98,-992.47,227.50,-735.0,-481.25,1,95.745,
01/01/2000,01:38:23.15,14.64,-71.74,-992.35,78.75,-612.50,-271.25,1,95.789,
01/01/2000,01:38:23.16,14.64,-71.74,-992.35,87.50,-735.0,-393.75,1,95.833,
01/01/2000,01:38:23.17,14.64,-71.74,-992.35,131.25,-743.75,-253.75,1,95.876,
01/01/2000,01:38:23.18,14.27,-71.74,-992.35,140.0,-700.0,-350.0,1,94.949,
01/01/2000,01:38:23.19,14.52,-71.61,-992.35,70.0,-770.0,-428.75,1,95.0,
01/01/2000,01:38:23.20,14.64,-71.86,-992.35,96.25,-778.75,-341.25,1,95.050,
01/01/2000,01:38:23.21,14.64,-71.74,-992.23,26.25,-726.25,-323.75,1,95.098,
01/01/2000,01:38:23.22,14.64,-71.86,-992.10,210.0,-717.50,-341.25,1,95.146,
01/01/2000,01:38:23.24,14.64,-71.74,-992.35,350.0,-761.25,-323.75,1,95.192,
01/01/2000,01:38:23.25,14.88,-71.86,-992.71,61.25,-682.50,-218.75,1,95.238,
01/01/2000,01:38:23.26,14.88,-71.98,-992.59,148.75,-700.0,-350.0,1,95.283,
01/01/2000,01:38:23.27,14.40,-71.86,-992.10,192.50,-752.50,-315.0,1,95.327,
01/01/2000,01:38:23.28,14.27,-71.86,-991.98,192.50,-752.50,-350.0,1,95.370,
01/01/2000,01:38:23.29,14.40,-71.86,-992.10,192.50,-691.25,-358.75,1,95.413,
01/01/2000,01:38:23.30,14.52,-71.74,-992.47,157.50,-708.75,-297.50,1,95.455,
01/01/2000,01:38:23.31,14.64,-71.74,-992.71,218.75,-612.50,-306.25,1,95.495,
01/01/2000,01:38:23.32,14.52,-71.74,-992.59,70.0,-743.75,-315.0,1,95.536,
01/01/2000,01:38:23.33,14.27,-71.98,-992.47,131.25,-682.50,-367.50,1,94.737,
01/01/2000,01:38:23.34,14.15,-71.98,-992.23,52.50,-700.0,-437.50,1,94.783,
01/01/2000,01:38:23.35,14.52,-71.74,-992.35,122.50,-595.0,-376.25,1,94.828,
01/01/2000,01:38:23.36,14.76,-71.74,-992.47,96.25,-682.50,-271.25,1,94.872,
01/01/2000,01:38:23.37,14.64,-71.61,-992.47,245.0,-726.25,-350.0,1,94.915,
01/01/2000,01:38:23.38,14.40,-71.74,-992.35,245.0,-778.75,-446.25,1,94.958,
01/01/2000,01:38:23.40,14.40,-71.61,-992.35,227.50,-778.75,-323.75,1,95.0,
01/01/2000,01:38:23.41,14.76,-71.49,-992.59,17.50,-577.50,-323.75,1,95.041,
01/01/2000,01:38:23.42,14.64,-71.74,-992.47,122.50,-638.75,-402.50,1,95.082,
01/01/2000,01:38:23.43,14.52,-71.98,-992.23,218.75,-726.25,-332.50,1,95.122,
01/01/2000,01:38:23.44,14.40,-71.86,-992.10,210.0,-708.75,-463.75,1,95.161,
01/01/2000,01:38:23.45,14.40,-71.61,-992.35,140.0,-717.50,-315.0,1,95.200,
01/01/2000,01:38:23.46,14.64,-71.49,-992.71,-26.25,-726.25,-341.25,1,95.238,
01/01/2000,01:38:23.47,14.40,-71.49,-992.47,148.75,-665.0,-288.75,1,95.276,
01/01/2000,01:38:23.48,14.15,-71.74,-992.10,131.25,-638.75,-332.50,1,95.313,
01/01/2000,01:38:23.49,14.27,-71.74,-992.10,87.50,-621.25,-498.75,1,95.349,
01/01/2000,01:38:23.50,14.40,-71.74,-992.59,236.25,-691.25,-341.25,1,95.385,
01/01/2000,01:38:23.51,14.52,-71.49,-992.71,70.0,-665.0,-297.50,1,95.420,
01/01/2000,01:38:23.52,14.40,-71.37,-992.47,70.0,-656.25,-288.75,1,95.455,
01/01/2000,01:38:23.53,14.15,-71.49,-992.23,175.0,-586.25,-306.25,1,95.489,
01/01/2000,01:38:23.54,13.91,-71.61,-992.35,87.50,-665.0,-358.75,1,94.815,
01/01/2000,01:38:23.55,14.03,-71.49,-992.59,210.0,-805.0,-446.25,1,94.853,
01/01/2000,01:38:23.56,14.64,-71.37,-992.96,218.75,-805.0,-210.0,1,94.891,
01/01/2000,01:38:23.58,14.40,-71.61,-992.84,122.50,-673.75,-148.75,1,94.928,
01/01/2000,01:38:23.58,13.42,-71.74,-992.35,113.75,-638.75,-210.0,1,94.964,
01/01/2000,01:38:23.60,13.42,-71.49,-992.23,218.75,-778.75,-735.0,1,95.0,
01/01/2000,01:38:23.61,14.64,-71.25,-992.59,78.75,-717.50,-577.50,1,95.035,
01/01/2000,01:38:23.62,14.88,-71.25,-992.96,140.0,-778.75,-61.25,1,95.070,
01/01/2000,01:38:23.63,14.27,-71.49,-992.71,52.50,-691.25,-175.0,1,95.105,
01/01/2000,01:38:23.64,13.79,-71.49,-991.98,131.25,-717.50,-647.50,1,95.139,
01/01/2000,01:38:23.65,14.15,-71.49,-992.10,306.25,-778.75,-673.75,1,95.172,
01/01/2000,01:38:23.66,14.64,-71.37,-992.71,105.0,-647.50,-446.25,1,95.205,
01/01/2000,01:38:23.67,14.88,-71.37,-992.96,201.25,-691.25,-262.50,1,95.238,
01/01/2000,01:38:23.68,14.40,-71.49,-992.35,166.25,-630.0,-323.75,1,94.631,
01/01/2000,01:38:23.69,13.91,-71.61,-991.98,105.0,-682.50,-393.75,1,94.667,
01/01/2000,01:38:23.70,14.15,-71.61,-992.35,175.0,-735.0,-332.50,1,94.702,
01/01/2000,01:38:23.71,14.64,-71.61,-992.71,148.75,-673.75,-315.0,1,94.737,
01/01/2000,01:38:23.72,14.76,-71.61,-992.84,78.75,-673.75,-376.25,1,94.771,
01/01/2000,01:38:23.73,14.27,-71.61,-992.35,140.0,-665.0,-297.50,1,94.805,
01/01/2000,01:38:23.75,13.91,-71.61,-992.10,140.0,-673.75,-341.25,1,94.839,
01/01/2000,01:38:23.76,14.52,-71.49,-992.47,87.50,-770.0,-358.75,1,94.268,
01/01/2000,01:38:23.77,14.64,-71.37,-992.59,61.25,-708.75,-218.75,1,94.904,
01/01/2000,01:38:23.78,14.40,-71.49,-992.47,192.50,-647.50,-280.0,1,94.340,
01/01/2000,01:38:23.79,14.03,-71.61,-992.23,236.25,-603.75,-437.50,1,94.375,
01/01/2000,01:38:23.80,14.03,-71.49,-992.35,131.25,-726.25,-437.50,1,94.410,
01/01/2000,01:38:23.81,14.40,-71.49,-992.59,218.75,-700.0,-350.0,1,94.444,
01/01/2000,01:38:23.82,14.64,-71.37,-992.59,78.75,-691.25,-297.50,1,94.479,
01/01/2000,01:38:23.83,14.27,-71.49,-992.23,105.0,-665.0,-280.0,1,94.512,
01/01/2000,01:38:23.84,13.91,-71.61,-991.86,315.0,-805.0,-437.50,1,94.545,
01/01/2000,01:38:23.85,13.91,-71.61,-992.23,175.0,-577.50,-341.25,1,94.578,
01/01/2000,01:38:23.86,14.15,-71.37,-992.47,26.25,-682.50,-315.0,1,94.611,
01/01/2000,01:38:23.87,14.40,-71.25,-992.47,157.50,-875.0,-315.0,1,94.643,
01/01/2000,01:38:23.88,14.27,-71.37,-992.10,17.50,-647.50,-297.50,1,94.675,
01/01/2000,01:38:23.90,14.03,-71.61,-991.86,105.0,-708.75,-446.25,1,94.706,
01/01/2000,01:38:23.91,14.03,-71.49,-992.10,166.25,-542.50,-446.25,1,94.737,
01/01/2000,01:38:23.92,14.40,-71.37,-992.35,262.50,-700.0,-393.75,1,94.767,
01/01/2000,01:38:23.93,14.52,-71.25,-992.59,122.50,-647.50,-323.75,1,94.798,
01/01/2000,01:38:23.94,14.27,-71.25,-992.23,78.75,-673.75,-323.75,1,94.828,
01/01/2000,01:38:23.95,14.03,-71.37,-991.86,227.50,-708.75,-428.75,1,94.857,
01/01/2000,01:38:23.96,14.03,-71.49,-991.62,315.0,-778.75,-297.50,1,94.886,
01/01/2000,01:38:23.97,14.40,-71.37,-992.10,52.50,-778.75,-385.0,1,94.915,
01/01/2000,01:38:23.98,14.27,-71.49,-992.23,236.25,-673.75,-262.50,1,94.944,
01/01/2000,01:38:23.99,14.15,-71.37,-992.10,192.50,-665.0,-332.50,1,94.972,
01/01/2000,01:38:24.00,13.91,-71.37,-991.86,157.50,-647.50,-393.75,1,95.0,
01/01/2000,01:38:24.01,14.03,-71.25,-991.86,236.25,-682.50,-341.25,1,95.028,
01/01/2000,01:38:24.02,14.40,-71.25,-992.23,183.75,-708.75,-358.75,1,95.055,
01/01/2000,01:38:24.03,14.52,-71.49,-992.35,17.50,-647.50,-341.25,1,94.565,
01/01/2000,01:38:24.04,14.40,-71.49,-992.10,87.50,-621.25,-332.50,1,94.595,
01/01/2000,01:38:24.05,14.27,-71.49,-992.10,175.0,-577.50,-367.50,1,94.624,
01/01/2000,01:38:24.06,14.40,-71.37,-992.35,96.25,-770.0,-350.0,1,94.652,
01/01/2000,01:38:24.07,14.76,-71.13,-992.47,-61.25,-708.75,-376.25,1,94.681,
01/01/2000,01:38:24.08,14.64,-71.13,-992.47,131.25,-770.0,-280.0,1,94.709,
01/01/2000,01:38:24.09,14.27,-71.25,-992.35,122.50,-700.0,-288.75,1,94.737,
01/01/2000,01:38:24.11,14.15,-71.37,-992.10,140.0,-735.0,-393.75,1,94.764,
01/01/2000,01:38:24.12,14.03,-71.25,-992.35,113.75,-700.0,-323.75,1,94.792,
01/01/2000,01:38:24.13,13.91,-71.25,-992.59,280.0,-857.50,-586.25,1,94.819,
01/01/2000,01:38:24.14,15.62,-71.13,-991.74,8.75,-691.25,-437.50,1,94.845,
01/01/2000,01:38:24.15,14.88,-71.74,-991.37,393.75,-857.50,455.0,1,94.872,
01/01/2000,01:38:24.16,13.42,-71.86,-991.62,78.75,-595.0,113.75,1,94.898,
01/01/2000,01:38:24.17,12.69,-71.98,-992.47,218.75,-673.75,-1400.0,1,94.924,
01/01/2000,01:38:24.18,14.88,-71.13,-992.96,105.0,-682.50,-691.25,1,94.949,
01/01/2000,01:38:24.19,15.01,-70.76,-991.98,-61.25,-586.25,883.75,1,94.975,
01/01/2000,01:38:24.20,14.40,-71.37,-991.13,253.75,-656.25,971.25,1,95.0,
01/01/2000,01:38:24.21,14.03,-71.74,-991.01,175.0,-708.75,-691.25,1,95.025,
01/01/2000,01:38:24.22,13.91,-72.10,-991.74,227.50,-901.25,-1146.25,1,94.581,
01/01/2000,01:38:24.23,14.03,-71.98,-992.84,78.75,-673.75,-393.75,1,95.074,
01/01/2000,01:38:24.25,14.40,-70.88,-992.10,245.0,-656.25,-122.50,1,94.634,
01/01/2000,01:38:24.26,14.15,-70.64,-990.88,-35.0,-647.50,-376.25,1,94.660,
01/01/2000,01:38:24.27,13.91,-71.00,-991.13,175.0,-665.0,-227.50,1,94.686,
01/01/2000,01:38:24.28,14.15,-71.74,-991.98,218.75,-665.0,-402.50,1,94.712,
01/01/2000,01:38:24.29,14.52,-71.74,-992.71,253.75,-752.50,-437.50,1,94.737,
01/01/2000,01:38:24.30,14.40,-71.37,-992.10,-17.50,-691.25,-341.25,1,94.762,
01/01/2000,01:38:24.31,14.15,-70.76,-991.13,148.75,-726.25,-341.25,1,94.787,
01/01/2000,01:38:24.32,14.15,-70.76,-990.88,166.25,-752.50,-341.25,1,94.366,
01/01/2000,01:38:24.33,14.64,-71.25,-991.74,175.0,-822.50,-236.25,1,94.393,
01/01/2000,01:38:24.34,14.64,-71.74,-992.47,70.0,-726.25,-323.75,1,94.419,
01/01/2000,01:38:24.35,14.27,-71.86,-992.47,87.50,-778.75,-411.25,1,94.444,
01/01/2000,01:38:24.36,14.27,-71.61,-991.86,122.50,-638.75,-428.75,1,94.470,
01/01/2000,01:38:24.37,14.15,-71.13,-991.13,192.50,-761.25,-376.25,1,94.495,
01/01/2000,01:38:24.38,14.52,-71.25,-991.62,113.75,-726.25,-192.50,1,94.521,
01/01/2000,01:38:24.39,14.76,-71.49,-992.23,140.0,-665.0,-315.0,1,94.545,
01/01/2000,01:38:24.40,14.03,-71.98,-992.71,280.0,-568.75,-271.25,1,94.570,
01/01/2000,01:38:24.41,10.98,-71.98,-993.57,157.50,-297.50,420.0,1,94.595,
01/01/2000,01:38:24.42,12.08,-71.49,-993.32,866.25,-796.25,-962.50,1,94.619,
01/01/2000,01:38:24.44,18.30,-70.15,-991.01,-472.50,-936.25,-3036.25,1,94.643,
01/01/2000,01:38:24.44,20.25,-71.61,-988.93,297.50,-971.25,1785.0,1,94.667,
01/01/2000,01:38:24.46,13.18,-72.59,-990.03,52.50,-393.75,4655.0,1,94.690,
01/01/2000,01:38:24.47,9.27,-73.44,-994.67,437.50,-446.25,-1085.0,1,94.714,
01/01/2000,01:38:24.48,12.20,-71.86,-996.62,533.75,-665.0,-7218.75,1,94.737,
01/01/2000,01:38:24.49,15.01,-70.03,-995.64,192.50,-735.0,-5556.25,1,94.760,
01/01/2000,01:38:24.50,17.57,-69.05,-991.49,35.0,-665.0,3167.50,1,94.783,
01/01/2000,01:38:24.51,16.35,-70.15,-986.49,70.0,-743.75,5696.25,1,94.805,
01/01/2000,01:38:24.52,13.91,-72.35,-988.20,210.0,-708.75,2555.0,1,94.828,
01/01/2000,01:38:24.53,12.93,-74.42,-995.28,437.50,-770.0,-4690.0,1,94.444,
01/01/2000,01:38:24.54,12.93,-73.57,-997.47,218.75,-463.75,-3928.75,1,94.468,
01/01/2000,01:38:24.55,14.03,-71.49,-995.03,-61.25,-472.50,-411.25,1,94.492,
01/01/2000,01:38:24.56,15.37,-69.42,-990.15,78.75,-665.0,1785.0,1,94.515,
01/01/2000,01:38:24.57,15.98,-69.05,-986.98,140.0,-866.25,848.75,1,94.538,
01/01/2000,01:38:24.58,15.49,-71.00,-989.79,210.0,-910.0,-140.0,1,94.561,
01/01/2000,01:38:24.59,14.64,-73.20,-994.06,192.50,-612.50,-446.25,1,94.583,
01/01/2000,01:38:24.61,12.93,-73.93,-995.64,35.0,-533.75,-1111.25,1,94.606,
01/01/2000,01:38:24.62,12.81,-72.47,-992.71,122.50,-603.75,-1443.75,1,94.628,
01/01/2000,01:38:24.63,14.76,-69.66,-988.69,201.25,-717.50,-831.25,1,94.650,
01/01/2000,01:38:24.64,16.23,-69.66,-989.18,148.75,-848.75,367.50,1,94.672,
01/01/2000,01:38:24.65,16.47,-70.76,-991.49,175.0,-682.50,1233.75,1,94.694,
01/01/2000,01:38:24.66,15.25,-72.10,-993.57,-166.25,-665.0,1085.0,1,94.715,
01/01/2000,01:38:24.67,12.69,-73.44,-993.08,332.50,-568.75,-1181.25,1,94.737,
01/01/2000,01:38:24.68,12.32,-72.47,-991.86,350.0,-770.0,-2423.75,1,94.758,
01/01/2000,01:38:24.69,14.88,-70.76,-991.01,367.50,-831.25,-1041.25,1,94.779,
01/01/2000,01:38:24.70,16.71,-70.27,-991.37,-35.0,-691.25,1251.25,1,94.800,
01/01/2000,01:38:24.71,16.35,-70.88,-991.74,-17.50,-700.0,2318.75,1,94.821,
01/01/2000,01:38:24.72,14.76,-71.61,-991.86,78.75,-700.0,-682.50,1,94.841,
01/01/2000,01:38:24.73,12.93,-72.59,-992.10,428.75,-813.75,-2397.50,1,94.862,
01/01/2000,01:38:24.74,13.79,-71.74,-992.96,183.75,-533.75,-1295.0,1,94.510,
01/01/2000,01:38:24.75,15.37,-70.76,-992.96,183.75,-700.0,315.0,1,94.531,
01/01/2000,01:38:24.77,15.98,-70.27,-991.37,87.50,-682.50,936.25,1,94.553,
01/01/2000,01:38:24.78,14.88,-70.76,-990.52,157.50,-752.50,-306.25,1,94.574,
01/01/2000,01:38:24.79,13.66,-72.22,-991.74,236.25,-770.0,-953.75,1,94.595,
01/01/2000,01:38:24.80,13.54,-72.35,-993.57,122.50,-638.75,-1137.50,1,94.615,
01/01/2000,01:38:24.81,14.40,-71.86,-994.30,148.75,-542.50,-402.50,1,94.636,
01/01/2000,01:38:24.82,14.88,-70.64,-992.35,148.75,-647.50,323.75,1,94.656,
01/01/2000,01:38:24.83,14.76,-70.39,-990.76,192.50,-761.25,166.25,1,94.677,
01/01/2000,01:38:24.84,14.40,-70.88,-990.40,227.50,-735.0,-367.50,1,94.697,
01/01/2000,01:38:24.85,14.40,-71.86,-991.86,227.50,-700.0,-481.25,1,94.717,
01/01/2000,01:38:24.86,14.27,-72.59,-993.57,227.50,-516.25,-472.50,1,94.382,
01/01/2000,01:38:24.87,14.15,-72.10,-993.81,43.75,-638.75,-542.50,1,94.757,
01/01/2000,01:38:24.88,14.15,-71.13,-992.10,183.75,-595.0,-472.50,1,94.424,
01/01/2000,01:38:24.89,14.64,-70.39,-990.88,218.75,-761.25,-288.75,1,94.444,
01/01/2000,01:38:24.90,15.01,-70.76,-991.37,113.75,-770.0,-78.75,1,94.465,
01/01/2000,01:38:24.91,14.88,-71.49,-992.59,61.25,-726.25,-113.75,1,94.485,
01/01/2000,01:38:24.92,14.40,-72.22,-993.20,210.0,-656.25,-332.50,1,94.505,
01/01/2000,01:38:24.93,14.03,-72.10,-992.59,131.25,-708.75,-656.25,1,94.526,
01/01/2000,01:38:24.94,13.91,-71.61,-991.86,262.50,-717.50,-726.25,1,94.545,
01/01/2000,01:38:24.96,14.64,-70.76,-991.37,140.0,-761.25,-376.25,1,94.565,
01/01/2000,01:38:24.97,15.37,-71.00,-991.98,78.75,-665.0,43.75,1,94.585,
01/01/2000,01:38:24.98,15.01,-71.61,-992.35,52.50,-761.25,113.75,1,94.604,
01/01/2000,01:38:24.99,14.15,-72.22,-992.35,148.75,-656.25,-122.50,1,94.624,
01/01/2000,01:38:25.00,13.66,-72.22,-991.98,288.75,-665.0,-936.25,1,94.643,
01/01/2000,01:38:25.01,14.40,-71.49,-992.10,175.0,-708.75,-918.75,1,94.662,
01/01/2000,01:38:25.02,14.88,-70.88,-992.35,105.0,-717.50,52.50,1,94.681,
01/01/2000,01:38:25.03,14.88,-71.13,-992.10,148.75,-577.50,341.25,1,94.700,
01/01/2000,01:38:25.04,14.27,-71.61,-991.86,218.75,-735.0,-43.75,1,94.718,
01/01/2000,01:38:25.05,13.91,-71.98,-991.74,332.50,-682.50,-743.75,1,94.737,
01/01/2000,01:38:25.06,13.91,-71.98,-991.86,183.75,-735.0,-787.50,1,94.755,
01/01/2000,01:38:25.07,14.40,-71.74,-992.59,236.25,-752.50,-288.75,1,94.774,
01/01/2000,01:38:25.08,14.76,-71.25,-992.23,96.25,-752.50,-157.50,1,94.792,
01/01/2000,01:38:25.10,14.52,-71.25,-991.49,52.50,-726.25,-131.25,1,94.483,
01/01/2000,01:38:25.11,14.40,-71.49,-991.37,218.75,-691.25,-297.50,1,94.502,
01/01/2000,01:38:25.12,14.15,-71.98,-991.86,218.75,-735.0,-542.50,1,94.521,
01/01/2000,01:38:25.13,14.27,-71.98,-992.71,157.50,-708.75,-498.75,1,94.539,
01/01/2000,01:38:25.14,14.64,-71.74,-992.35,271.25,-691.25,-306.25,1,94.558,
01/01/2000,01:38:25.15,14.64,-71.49,-991.86,105.0,-717.50,-280.0,1,94.576,
01/01/2000,01:38:25.16,14.40,-71.61,-991.37,201.25,-805.0,-350.0,1,94.595,
01/01/2000,01:38:25.17,14.52,-71.98,-991.62,192.50,-752.50,-385.0,1,94.613,
01/01/2000,01:38:25.18,14.64,-72.22,-992.23,131.25,-638.75,-280.0,1,94.631,
01/01/2000,01:38:25.19,14.64,-72.10,-992.35,-8.75,-656.25,-393.75,1,94.649,
01/01/2000,01:38:25.20,14.40,-71.86,-991.98,113.75,-638.75,-437.50,1,94.667,
01/01/2000,01:38:25.21,14.27,-71.61,-991.62,166.25,-708.75,-315.0,1,94.684,
01/01/2000,01:38:25.22,14.52,-71.37,-991.62,140.0,-647.50,-288.75,1,94.702,
01/01/2000,01:38:25.23,14.64,-71.61,-992.35,52.50,-708.75,-376.25,1,94.408,
01/01/2000,01:38:25.24,14.40,-71.98,-992.59,78.75,-743.75,-420.0,1,94.426,
01/01/2000,01:38:25.25,14.15,-72.10,-992.10,175.0,-638.75,-437.50,1,94.444,
01/01/2000,01:38:25.26,14.40,-71.74,-991.62,218.75,-656.25,-367.50,1,94.463,
01/01/2000,01:38:25.28,14.64,-71.49,-991.86,236.25,-673.75,-201.25,1,94.481,
01/01/2000,01:38:25.29,14.52,-71.86,-992.35,78.75,-603.75,-385.0,1,94.498,
01/01/2000,01:38:25.30,14.40,-71.98,-992.35,210.0,-621.25,-481.25,1,94.516,
01/01/2000,01:38:25.31,14.27,-71.98,-992.10,78.75,-787.50,-393.75,1,94.534,
01/01/2000,01:38:25.32,14.27,-71.86,-991.86,253.75,-595.0,-402.50,1,94.551,
01/01/2000,01:38:25.33,14.52,-71.61,-991.98,201.25,-647.50,-341.25,1,94.569,
01/01/2000,01:38:25.34,14.64,-71.61,-992.10,87.50,-778.75,-288.75,1,94.586,
01/01/2000,01:38:25.35,14.52,-71.61,-992.10,43.75,-708.75,-350.0,1,94.603,
01/01/2000,01:38:25.36,14.15,-71.98,-991.86,183.75,-647.50,-385.0,1,94.620,
01/01/2000,01:38:25.37,14.03,-71.74,-991.98,227.50,-717.50,-481.25,1,94.637,
01/01/2000,01:38:25.38,14.15,-71.61,-992.10,192.50,-735.0,-358.75,1,94.357,
01/01/2000,01:38:25.39,14.64,-71.37,-991.98,-43.75,-638.75,-297.50,1,94.375,
01/01/2000,01:38:25.40,14.40,-71.49,-991.86,96.25,-822.50,-253.75,1,94.393,
01/01/2000,01:38:25.41,14.40,-71.49,-991.74,175.0,-691.25,-227.50,1,94.410,
01/01/2000,01:38:25.42,14.27,-71.86,-991.62,183.75,-726.25,-420.0,1,94.427,
01/01/2000,01:38:25.43,14.40,-71.74,-991.86,131.25,-691.25,-376.25,1,94.444,
01/01/2000,01:38:25.45,14.40,-71.61,-992.10,140.0,-726.25,-376.25,1,94.462,
01/01/2000,01:38:25.46,14.40,-71.49,-992.10,175.0,-630.0,-341.25,1,94.479,
01/01/2000,01:38:25.47,14.15,-71.37,-991.62,183.75,-673.75,-297.50,1,94.495,
01/01/2000,01:38:25.48,14.15,-71.49,-991.49,157.50,-761.25,-315.0,1,94.512,
01/01/2000,01:38:25.49,14.40,-71.61,-991.74,175.0,-691.25,-358.75,1,94.529,
01/01/2000,01:38:25.50,14.52,-71.74,-992.10,218.75,-717.50,-323.75,1,94.545,
01/01/2000,01:38:25.51,14.52,-71.49,-991.86,166.25,-586.25,-420.0,1,94.562,
01/01/2000,01:38:25.52,14.40,-71.49,-991.62,105.0,-726.25,-253.75,1,94.578,
01/01/2000,01:38:25.53,14.40,-71.61,-991.74,227.50,-665.0,-358.75,1,94.595,
01/01/2000,01:38:25.54,14.40,-71.61,-991.98,201.25,-796.25,-367.50,1,94.611,
01/01/2000,01:38:25.55,14.40,-71.86,-992.10,87.50,-743.75,-332.50,1,94.627,
01/01/2000,01:38:25.56,14.40,-71.98,-992.10,175.0,-551.25,-393.75,1,94.643,
01/01/2000,01:38:25.57,14.52,-71.86,-991.74,148.75,-743.75,-411.25,1,94.659,
01/01/2000,01:38:25.58,14.52,-71.74,-991.62,175.0,-682.50,-350.0,1,94.675,
01/01/2000,01:38:25.59,14.64,-71.74,-991.74,87.50,-778.75,-288.75,1,94.412,
01/01/2000,01:38:25.60,14.64,-71.74,-991.98,70.0,-691.25,-367.50,1,94.428,
01/01/2000,01:38:25.61,14.52,-71.86,-991.98,192.50,-700.0,-420.0,1,94.444,
01/01/2000,01:38:25.62,14.40,-71.86,-991.86,280.0,-656.25,-367.50,1,94.461,
01/01/2000,01:38:25.63,14.40,-71.74,-991.98,148.75,-735.0,-341.25,1,94.477,
01/01/2000,01:38:25.64,14.52,-71.74,-992.10,218.75,-638.75,-271.25,1,94.493,
01/01/2000,01:38:25.66,14.52,-71.74,-992.35,183.75,-612.50,-376.25,1,94.509,
01/01/2000,01:38:25.67,14.64,-71.86,-992.23,140.0,-743.75,-446.25,1,94.524,
01/01/2000,01:38:25.68,14.52,-71.98,-991.98,157.50,-577.50,-350.0,1,94.540,
01/01/2000,01:38:25.69,14.40,-71.74,-991.74,166.25,-796.25,-385.0,1,94.556,
01/01/2000,01:38:25.70,14.52,-71.49,-991.74,96.25,-770.0,-297.50,1,94.571,
01/01/2000,01:38:25.71,14.52,-71.49,-991.86,140.0,-708.75,-367.50,1,94.587,
01/01/2000,01:38:25.72,14.52,-71.49,-991.86,166.25,-586.25,-367.50,1,94.602,
01/01/2000,01:38:25.73,14.40,-71.61,-991.62,236.25,-770.0,-385.0,1,94.350,
01/01/2000,01:38:25.74,14.40,-71.86,-991.49,175.0,-700.0,-350.0,1,94.366,
01/01/2000,01:38:25.75,14.52,-71.74,-991.74,201.25,-735.0,-385.0,1,94.382,
01/01/2000,01:38:25.76,14.52,-71.74,-991.74,157.50,-778.75,-262.50,1,94.398,
01/01/2000,01:38:25.77,14.52,-71.61,-991.62,96.25,-735.0,-323.75,1,94.413,
01/01/2000,01:38:25.79,14.40,-71.49,-991.62,245.0,-700.0,-297.50,1,94.429,
01/01/2000,01:38:25.80,14.52,-71.74,-991.74,113.75,-595.0,-393.75,1,94.444,
01/01/2000,01:38:25.81,14.64,-71.74,-991.74,105.0,-717.50,-315.0,1,94.460,
01/01/2000,01:38:25.82,14.64,-71.49,-991.74,70.0,-656.25,-358.75,1,94.475,
01/01/2000,01:38:25.83,14.64,-71.49,-991.62,315.0,-621.25,-315.0,1,94.490,
01/01/2000,01:38:25.84,14.40,-71.49,-991.62,52.50,-656.25,-306.25,1,94.505,
01/01/2000,01:38:25.85,14.40,-71.74,-991.74,271.25,-726.25,-315.0,1,94.521,
01/01/2000,01:38:25.86,14.40,-71.61,-991.74,70.0,-665.0,-420.0,1,94.536,
01/01/2000,01:38:25.87,14.40,-71.61,-991.62,-26.25,-708.75,-341.25,1,94.550,
01/01/2000,01:38:25.88,14.40,-71.61,-991.62,227.50,-647.50,-358.75,1,94.565,
01/01/2000,01:38:25.89,14.40,-71.74,-991.86,26.25,-647.50,-323.75,1,94.580,
01/01/2000,01:38:25.90,14.64,-71.61,-991.98,148.75,-822.50,-288.75,1,94.595,
01/01/2000,01:38:25.91,14.64,-71.74,-992.10,148.75,-805.0,-367.50,1,94.609,
01/01/2000,01:38:25.92,14.52,-71.61,-991.98,271.25,-656.25,-332.50,1,94.624,
01/01/2000,01:38:25.93,14.40,-71.61,-991.86,271.25,-700.0,-393.75,1,94.638,
01/01/2000,01:38:25.94,14.64,-71.49,-991.86,157.50,-612.50,-306.25,1,94.400,
01/01/2000,01:38:25.95,14.64,-71.49,-991.74,201.25,-805.0,-376.25,1,94.415,
01/01/2000,01:38:25.96,14.64,-71.61,-991.74,192.50,-813.75,-341.25,1,94.430,
01/01/2000,01:38:25.97,14.52,-71.74,-991.86,140.0,-673.75,-498.75,1,94.444,
01/01/2000,01:38:25.98,14.40,-71.74,-991.86,148.75,-691.25,-341.25,1,94.459,
01/01/2000,01:38:25.99,14.64,-71.49,-991.86,157.50,-603.75,-350.0,1,94.474,
01/01/2000,01:38:26.01,14.64,-71.61,-991.62,262.50,-691.25,-332.50,1,94.488,
01/01/2000,01:38:26.02,14.52,-71.74,-991.74,26.25,-752.50,-315.0,1,94.503,
01/01/2000,01:38:26.03,14.40,-71.74,-991.74,140.0,-700.0,-341.25,1,94.517,
01/01/2000,01:38:26.04,14.40,-71.74,-991.86,87.50,-708.75,-341.25,1,94.531,
01/01/2000,01:38:26.05,14.52,-71.74,-991.86,-26.25,-726.25,-271.25,1,94.545,
01/01/2000,01:38:26.06,14.40,-71.74,-991.86,280.0,-656.25,-376.25,1,94.560,
01/01/2000,01:38:26.07,14.40,-71.74,-991.86,131.25,-848.75,-262.50,1,94.574,
01/01/2000,01:38:26.08,14.40,-71.74,-991.86,131.25,-735.0,-393.75,1,94.588,
01/01/2000,01:38:26.09,14.40,-71.74,-991.86,166.25,-621.25,-402.50,1,94.602,
01/01/2000,01:38:26.10,14.40,-71.74,-991.74,262.50,-717.50,-341.25,1,94.615,
01/01/2000,01:38:26.11,14.52,-71.61,-991.86,157.50,-577.50,-315.0,1,94.629,
01/01/2000,01:38:26.12,14.40,-71.61,-991.86,157.50,-708.75,-358.75,1,94.643,
01/01/2000,01:38:26.13,14.40,-71.49,-991.86,140.0,-612.50,-437.50,1,94.656,
01/01/2000,01:38:26.14,14.27,-71.49,-991.86,131.25,-717.50,-280.0,1,94.670,
01/01/2000,01:38:26.15,14.40,-71.37,-991.98,183.75,-647.50,-288.75,1,94.444,
01/01/2000,01:38:26.16,14.40,-71.49,-991.86,245.0,-656.25,-350.0,1,94.458,
01/01/2000,01:38:26.17,14.40,-71.49,-991.86,192.50,-735.0,-358.75,1,94.472,
01/01/2000,01:38:26.18,14.52,-71.49,-991.86,192.50,-708.75,-288.75,1,94.486,
01/01/2000,01:38:26.19,14.64,-71.37,-991.86,245.0,-691.25,-332.50,1,94.500,
01/01/2000,01:38:26.20,14.76,-71.25,-991.86,105.0,-770.0,-262.50,1,94.514,
01/01/2000,01:38:26.22,14.64,-71.37,-992.10,175.0,-665.0,-332.50,1,94.527,
01/01/2000,01:38:26.23,14.52,-71.37,-991.98,227.50,-778.75,-323.75,1,94.541,
01/01/2000,01:38:26.24,14.64,-71.25,-991.86,183.75,-612.50,-376.25,1,94.554,
01/01/2000,01:38:26.25,14.76,-71.37,-991.86,157.50,-726.25,-288.75,1,94.568,
01/01/2000,01:38:26.26,14.64,-71.37,-991.86,175.0,-665.0,-297.50,1,94.581,
01/01/2000,01:38:26.27,14.52,-71.49,-991.98,218.75,-656.25,-455.0,1,94.595,
01/01/2000,01:38:26.28,14.40,-71.49,-992.23,96.25,-717.50,-358.75,1,94.608,
01/01/2000,01:38:26.30,14.52,-71.37,-992.10,218.75,-752.50,-245.0,1,94.390,
01/01/2000,01:38:26.31,14.52,-71.49,-991.98,227.50,-726.25,-446.25,1,94.404,
01/01/2000,01:38:26.32,14.40,-71.49,-991.86,218.75,-735.0,-297.50,1,94.417,
01/01/2000,01:38:26.33,14.40,-71.61,-991.86,113.75,-603.75,-402.50,1,94.431,
01/01/2000,01:38:26.34,14.40,-71.61,-991.86,210.0,-673.75,-385.0,1,94.444,
01/01/2000,01:38:26.35,14.64,-71.37,-991.86,122.50,-665.0,-376.25,1,94.458,
01/01/2000,01:38:26.36,14.64,-71.49,-991.86,192.50,-621.25,-376.25,1,94.471,
01/01/2000,01:38:26.37,14.64,-71.49,-991.74,201.25,-708.75,-393.75,1,94.484,
01/01/2000,01:38:26.38,14.64,-71.37,-991.86,201.25,-708.75,-253.75,1,94.498,
01/01/2000,01:38:26.39,14.76,-71.61,-991.86,175.0,-647.50,-341.25,1,94.511,
01/01/2000,01:38:26.40,14.76,-71.49,-991.86,210.0,-656.25,-420.0,1,94.524,
01/01/2000,01:38:26.41,14.76,-71.49,-991.62,253.75,-691.25,-297.50,1,94.537,
01/01/2000,01:38:26.42,14.64,-71.25,-991.62,-26.25,-743.75,-358.75,1,94.550,
01/01/2000,01:38:26.43,14.52,-71.49,-991.74,288.75,-621.25,-393.75,1,94.563,
01/01/2000,01:38:26.44,14.64,-71.37,-991.98,43.75,-717.50,-253.75,1,94.575,
01/01/2000,01:38:26.45,14.88,-71.49,-991.74,210.0,-612.50,-420.0,1,94.588,
01/01/2000,01:38:26.46,14.52,-71.61,-991.49,52.50,-700.0,-253.75,1,94.601,
01/01/2000,01:38:26.47,14.64,-71.61,-991.37,-52.50,-708.75,-367.50,1,94.614,
01/01/2000,01:38:26.48,14.27,-71.74,-991.62,341.25,-691.25,-376.25,1,94.626,
01/01/2000,01:38:26.49,14.40,-71.37,-991.86,78.75,-612.50,-245.0,1,94.639,
01/01/2000,01:38:26.50,14.40,-71.61,-991.98,323.75,-665.0,-245.0,1,94.432,
01/01/2000,01:38:26.51,14.40,-71.37,-991.74,218.75,-691.25,-227.50,1,94.444,
01/01/2000,01:38:26.52,14.52,-71.49,-991.49,157.50,-717.50,-420.0,1,94.457,
01/01/2000,01:38:26.53,14.52,-71.86,-991.62,52.50,-665.0,-227.50,1,94.470,
01/01/2000,01:38:26.54,14.64,-71.86,-991.62,166.25,-647.50,-472.50,1,94.483,
01/01/2000,01:38:26.55,14.64,-71.74,-991.74,262.50,-813.75,-341.25,1,94.495,
01/01/2000,01:38:26.56,14.64,-71.49,-991.86,148.75,-656.25,-385.0,1,94.508,
01/01/2000,01:38:26.58,14.52,-71.49,-991.86,218.75,-656.25,-367.50,1,94.521,
01/01/2000,01:38:26.59,14.64,-71.49,-991.62,175.0,-656.25,-297.50,1,94.533,
01/01/2000,01:38:26.60,14.64,-71.61,-991.62,201.25,-735.0,-315.0,1,94.545,
01/01/2000,01:38:26.61,14.88,-71.74,-991.62,61.25,-726.25,-341.25,1,94.558,
01/01/2000,01:38:26.62,14.64,-71.98,-991.49,166.25,-691.25,-490.0,1,94.570,
01/01/2000,01:38:26.63,14.40,-71.49,-991.62,192.50,-735.0,-315.0,1,94.582,
01/01/2000,01:38:26.64,14.40,-71.13,-991.86,113.75,-673.75,-323.75,1,94.595,
01/01/2000,01:38:26.65,14.40,-71.25,-991.86,157.50,-673.75,-245.0,1,94.607,
01/01/2000,01:38:26.66,14.52,-71.49,-991.74,175.0,-770.0,-367.50,1,94.619,
01/01/2000,01:38:26.67,14.52,-71.74,-991.74,105.0,-708.75,-428.75,1,94.631,
01/01/2000,01:38:26.68,14.64,-71.74,-991.62,227.50,-647.50,-218.75,1,94.643,
01/01/2000,01:38:26.69,14.64,-71.74,-991.62,157.50,-892.50,-428.75,1,94.655,
01/01/2000,01:38:26.70,14.64,-71.61,-991.62,78.75,-770.0,-315.0,1,94.667,
01/01/2000,01:38:26.71,14.64,-71.37,-991.86,26.25,-726.25,-288.75,1,94.469,
01/01/2000,01:38:26.72,14.52,-71.49,-991.74,183.75,-673.75,-297.50,1,94.481,
01/01/2000,01:38:26.73,14.64,-71.61,-991.86,175.0,-647.50,-341.25,1,94.493,
01/01/2000,01:38:26.75,14.64,-71.74,-991.86,271.25,-665.0,-332.50,1,94.505,
01/01/2000,01:38:26.75,14.88,-71.74,-991.86,166.25,-708.75,-367.50,1,94.518,
01/01/2000,01:38:26.77,14.88,-71.74,-991.62,166.25,-717.50,-376.25,1,94.530,
01/01/2000,01:38:26.78,14.64,-71.74,-991.74,70.0,-682.50,-280.0,1,94.541,
01/01/2000,01:38:26.79,14.40,-71.61,-991.86,78.75,-735.0,-315.0,1,94.553,
01/01/2000,01:38:26.81,14.40,-71.74,-991.74,0.0,-630.0,-306.25,1,94.360,
01/01/2000,01:38:26.82,14.40,-71.74,-991.62,201.25,-656.25,-341.25,1,94.372,
01/01/2000,01:38:26.83,14.52,-71.74,-991.49,78.75,-595.0,-367.50,1,94.384,
01/01/2000,01:38:26.84,14.40,-71.86,-991.37,157.50,-700.0,-288.75,1,94.397,
01/01/2000,01:38:26.85,14.40,-71.74,-991.37,113.75,-735.0,-385.0,1,94.409,
01/01/2000,01:38:26.86,14.40,-71.74,-991.62,262.50,-612.50,-420.0,1,94.421,
01/01/2000,01:38:26.87,14.15,-71.49,-991.62,210.0,-770.0,-280.0,1,94.433,
01/01/2000,01:38:26.88,14.40,-71.49,-991.49,122.50,-708.75,-280.0,1,94.444,
01/01/2000,01:38:26.89,14.40,-71.49,-991.37,166.25,-647.50,-297.50,1,94.456,
01/01/2000,01:38:26.90,14.40,-71.74,-991.49,61.25,-708.75,-332.50,1,94.468,
01/01/2000,01:38:26.91,14.15,-71.98,-991.62,201.25,-778.75,-446.25,1,94.480,
01/01/2000,01:38:26.92,14.15,-71.74,-991.86,61.25,-717.50,-411.25,1,94.492,
01/01/2000,01:38:26.93,14.40,-71.49,-991.98,183.75,-665.0,-297.50,1,94.503,
01/01/2000,01:38:26.94,14.40,-71.49,-991.86,227.50,-735.0,-210.0,1,94.515,
01/01/2000,01:38:26.95,14.52,-71.49,-991.62,96.25,-612.50,-323.75,1,94.526,
01/01/2000,01:38:26.96,14.52,-71.74,-991.62,175.0,-752.50,-385.0,1,94.538,
01/01/2000,01:38:26.97,14.52,-71.86,-991.62,183.75,-717.50,-341.25,1,94.549,
01/01/2000,01:38:26.98,14.64,-71.98,-991.62,253.75,-743.75,-385.0,1,94.561,
01/01/2000,01:38:26.99,14.52,-71.61,-991.86,87.50,-647.50,-341.25,1,94.572,
01/01/2000,01:38:27.00,14.52,-71.49,-991.86,192.50,-673.75,-297.50,1,94.387,
01/01/2000,01:38:27.01,14.64,-71.25,-991.86,385.0,-726.25,-358.75,1,94.398,
01/01/2000,01:38:27.02,14.64,-71.49,-991.86,140.0,-805.0,-358.75,1,94.410,
01/01/2000,01:38:27.03,14.76,-71.61,-991.86,87.50,-708.75,-420.0,1,94.421,
01/01/2000,01:38:27.04,14.64,-71.86,-991.86,87.50,-691.25,-297.50,1,94.433,
01/01/2000,01:38:27.05,14.76,-71.74,-991.74,183.75,-647.50,-385.0,1,94.444,
01/01/2000,01:38:27.07,14.64,-71.49,-991.74,61.25,-700.0,-376.25,1,94.456,
01/01/2000,01:38:27.08,14.76,-71.37,-991.86,192.50,-673.75,-315.0,1,94.467,
01/01/2000,01:38:27.09,14.88,-71.49,-991.86,227.50,-717.50,-315.0,1,94.479,
01/01/2000,01:38:27.10,14.88,-71.74,-991.62,35.0,-682.50,-446.25,1,94.490,
01/01/2000,01:38:27.11,14.64,-71.74,-991.62,192.50,-691.25,-367.50,1,94.501,
01/01/2000,01:38:27.12,14.76,-71.74,-991.37,192.50,-673.75,-288.75,1,94.512,
01/01/2000,01:38:27.13,14.52,-71.61,-991.37,227.50,-831.25,-323.75,1,94.523,
01/01/2000,01:38:27.14,14.40,-71.49,-991.62,245.0,-621.25,-323.75,1,94.343,
01/01/2000,01:38:27.15,14.52,-71.49,-991.74,218.75,-673.75,-341.25,1,94.545,
01/01/2000,01:38:27.16,14.52,-71.49,-991.74,280.0,-752.50,-306.25,1,94.366,
01/01/2000,01:38:27.17,14.52,-71.61,-991.62,157.50,-673.75,-297.50,1,94.378,
01/01/2000,01:38:27.18,14.52,-71.74,-991.49,210.0,-796.25,-297.50,1,94.389,
01/01/2000,01:38:27.19,14.64,-71.74,-991.49,105.0,-743.75,-437.50,1,94.400,
01/01/2000,01:38:27.21,14.64,-71.74,-991.62,262.50,-682.50,-306.25,1,94.411,
01/01/2000,01:38:27.22,14.52,-71.49,-991.62,175.0,-682.50,-323.75,1,94.422,
01/01/2000,01:38:27.23,14.40,-71.37,-991.62,315.0,-770.0,-402.50,1,94.433,
01/01/2000,01:38:27.24,14.64,-71.49,-991.74,201.25,-708.75,-350.0,1,94.444,
01/01/2000,01:38:27.25,14.52,-71.61,-991.62,140.0,-735.0,-376.25,1,94.455,
01/01/2000,01:38:27.26,14.64,-71.61,-991.62,96.25,-568.75,-376.25,1,94.466,
01/01/2000,01:38:27.27,14.64,-71.61,-991.74,192.50,-665.0,-367.50,1,94.477,
01/01/2000,01:38:27.28,14.40,-71.49,-991.86,61.25,-700.0,-385.0,1,94.488,
01/01/2000,01:38:27.29,14.40,-71.49,-991.86,87.50,-682.50,-315.0,1,94.499,
01/01/2000,01:38:27.30,14.64,-71.49,-991.74,105.0,-673.75,-323.75,1,94.510,
01/01/2000,01:38:27.31,14.52,-71.61,-991.62,166.25,-700.0,-262.50,1,94.336,
01/01/2000,01:38:27.33,14.52,-71.74,-991.62,183.75,-717.50,-411.25,1,94.347,
01/01/2000,01:38:27.34,14.64,-71.61,-991.62,122.50,-665.0,-306.25,1,94.358,
01/01/2000,01:38:27.35,14.52,-71.61,-991.74,236.25,-743.75,-341.25,1,94.369,
01/01/2000,01:38:27.36,14.52,-71.49,-991.86,166.25,-717.50,-236.25,1,94.380,
01/01/2000,01:38:27.37,14.40,-71.61,-991.86,218.75,-700.0,-376.25,1,94.391,
01/01/2000,01:38:27.38,14.27,-71.49,-991.86,236.25,-700.0,-288.75,1,94.402,
01/01/2000,01:38:27.39,14.40,-71.86,-992.10,183.75,-752.50,-393.75,1,94.412,
01/01/2000,01:38:27.40,14.52,-71.61,-992.10,96.25,-665.0,-297.50,1,94.423,
01/01/2000,01:38:27.41,14.52,-71.61,-991.98,96.25,-726.25,-402.50,1,94.434,
01/01/2000,01:38:27.42,14.52,-71.49,-991.86,148.75,-805.0,-332.50,1,94.444,
01/01/2000,01:38:27.43,14.40,-71.49,-991.98,87.50,-778.75,-376.25,1,94.455,
01/01/2000,01:38:27.44,14.40,-71.37,-992.10,78.75,-665.0,-271.25,1,94.466,
01/01/2000,01:38:27.45,14.64,-71.49,-992.10,175.0,-700.0,-402.50,1,94.476,
01/01/2000,01:38:27.46,14.64,-71.37,-991.86,122.50,-691.25,-332.50,1,94.487,
01/01/2000,01:38:27.47,14.40,-71.49,-991.62,271.25,-787.50,-385.0,1,94.497,
01/01/2000,01:38:27.48,14.27,-71.49,-991.62,175.0,-735.0,-385.0,1,94.508,
01/01/2000,01:38:27.49,14.27,-71.49,-991.86,253.75,-778.75,-463.75,1,94.518,
01/01/2000,01:38:27.50,14.40,-71.49,-991.98,218.75,-752.50,-350.0,1,94.528,
01/01/2000,01:38:27.51,14.40,-71.61,-991.86,262.50,-691.25,-332.50,1,94.539,
01/01/2000,01:38:27.52,14.40,-71.49,-991.49,96.25,-752.50,-245.0,1,94.549,
01/01/2000,01:38:27.53,14.15,-71.74,-991.37,245.0,-752.50,-297.50,1,94.559,
01/01/2000,01:38:27.54,14.15,-71.74,-991.49,166.25,-761.25,-385.0,1,94.569,
01/01/2000,01:38:27.55,14.27,-71.98,-991.74,131.25,-700.0,-332.50,1,94.579,
01/01/2000,01:38:27.56,14.40,-71.74,-991.74,192.50,-612.50,-402.50,1,94.413,
01/01/2000,01:38:27.57,14.27,-71.74,-991.62,201.25,-726.25,-472.50,1,94.424,
01/01/2000,01:38:27.58,14.15,-71.49,-991.62,140.0,-621.25,-341.25,1,94.434,
01/01/2000,01:38:27.59,14.40,-71.49,-991.49,183.75,-717.50,-411.25,1,94.444,
01/01/2000,01:38:27.60,14.40,-71.49,-991.62,96.25,-647.50,-393.75,1,94.455,
01/01/2000,01:38:27.61,14.27,-71.74,-991.62,131.25,-647.50,-350.0,1,94.465,
01/01/2000,01:38:27.63,14.40,-71.61,-991.49,218.75,-673.75,-402.50,1,94.475,
01/01/2000,01:38:27.64,14.40,-71.61,-991.62,227.50,-822.50,-350.0,1,94.485,
01/01/2000,01:38:27.65,14.52,-71.49,-991.62,113.75,-691.25,-341.25,1,94.495,
01/01/2000,01:38:27.66,14.64,-71.49,-991.62,157.50,-717.50,-315.0,1,94.505,
01/01/2000,01:38:27.67,14.52,-71.61,-991.62,43.75,-752.50,-350.0,1,94.516,
01/01/2000,01:38:27.68,14.40,-71.74,-991.62,157.50,-717.50,-393.75,1,94.526,
01/01/2000,01:38:27.69,14.52,-71.37,-991.74,96.25,-708.75,-367.50,1,94.536,
01/01/2000,01:38:27.70,14.76,-71.25,-991.62,201.25,-673.75,-236.25,1,94.374,
01/01/2000,01:38:27.71,14.76,-71.37,-991.74,253.75,-796.25,-306.25,1,94.555,
01/01/2000,01:38:27.72,14.64,-71.49,-991.62,236.25,-770.0,-332.50,1,94.394,
01/01/2000,01:38:27.73,14.40,-71.61,-991.62,157.50,-831.25,-376.25,1,94.404,
01/01/2000,01:38:27.74,14.40,-71.49,-991.62,218.75,-691.25,-315.0,1,94.414,
01/01/2000,01:38:27.75,14.64,-71.37,-991.62,201.25,-735.0,-262.50,1,94.424,
01/01/2000,01:38:27.76,14.64,-71.13,-991.86,61.25,-577.50,-297.50,1,94.434,
01/01/2000,01:38:27.78,14.40,-71.37,-991.74,166.25,-682.50,-323.75,1,94.444,
01/01/2000,01:38:27.79,14.40,-71.61,-991.74,166.25,-691.25,-332.50,1,94.454,
01/01/2000,01:38:27.80,14.40,-71.74,-991.74,280.0,-717.50,-376.25,1,94.464,
01/01/2000,01:38:27.81,14.52,-71.74,-991.86,175.0,-630.0,-271.25,1,94.474,
01/01/2000,01:38:27.82,14.52,-71.49,-991.86,105.0,-673.75,-271.25,1,94.484,
01/01/2000,01:38:27.83,14.40,-71.49,-991.74,78.75,-621.25,-385.0,1,94.494,
01/01/2000,01:38:27.84,14.27,-71.37,-991.74,131.25,-752.50,-376.25,1,94.336,
01/01/2000,01:38:27.85,14.40,-71.49,-991.74,166.25,-752.50,-297.50,1,94.346,
01/01/2000,01:38:27.86,14.64,-71.49,-991.74,61.25,-700.0,-385.0,1,94.356,
01/01/2000,01:38:27.87,14.52,-71.61,-991.62,43.75,-647.50,-385.0,1,94.366,
01/01/2000,01:38:27.88,14.52,-71.49,-991.62,148.75,-700.0,-350.0,1,94.376,
01/01/2000,01:38:27.89,14.40,-71.37,-991.62,105.0,-726.25,-402.50,1,94.386,
01/01/2000,01:38:27.90,14.40,-71.25,-991.86,140.0,-726.25,-323.75,1,94.396,
01/01/2000,01:38:27.91,14.40,-71.49,-991.98,0.0,-726.25,-402.50,1,94.406,
01/01/2000,01:38:27.92,14.40,-71.49,-991.86,183.75,-708.75,-367.50,1,94.415,
01/01/2000,01:38:27.93,14.52,-71.61,-991.62,227.50,-822.50,-455.0,1,94.425,
01/01/2000,01:38:27.94,14.52,-71.74,-991.62,113.75,-665.0,-288.75,1,94.435,
01/01/2000,01:38:27.96,14.40,-71.74,-991.74,236.25,-621.25,-367.50,1,94.444,
01/01/2000,01:38:27.96,14.40,-71.49,-991.86,105.0,-647.50,-227.50,1,94.454,
01/01/2000,01:38:27.98,14.40,-71.61,-991.86,201.25,-735.0,-341.25,1,94.464,
01/01/2000,01:38:27.99,14.40,-71.61,-991.62,148.75,-647.50,-341.25,1,94.473,
01/01/2000,01:38:28.00,14.64,-71.74,-991.49,218.75,-726.25,-350.0,1,94.483,
01/01/2000,01:38:28.01,14.64,-71.61,-991.37,183.75,-647.50,-367.50,1,94.492,
01/01/2000,01:38:28.02,14.52,-71.74,-991.37,148.75,-726.25,-271.25,1,94.502,
01/01/2000,01:38:28.03,14.40,-71.61,-991.49,183.75,-717.50,-393.75,1,94.511,
01/01/2000,01:38:28.04,14.52,-71.49,-991.62,175.0,-761.25,-367.50,1,94.521,
01/01/2000,01:38:28.05,14.40,-71.25,-991.37,140.0,-612.50,-280.0,1,94.369,
01/01/2000,01:38:28.06,14.52,-71.25,-991.37,192.50,-638.75,-245.0,1,94.378,
01/01/2000,01:38:28.07,14.52,-71.49,-991.37,315.0,-700.0,-385.0,1,94.388,
01/01/2000,01:38:28.08,14.64,-71.49,-991.49,140.0,-647.50,-323.75,1,94.397,
01/01/2000,01:38:28.09,14.64,-71.49,-991.37,175.0,-752.50,-385.0,1,94.407,
01/01/2000,01:38:28.10,14.64,-71.37,-991.25,175.0,-638.75,-376.25,1,94.416,
01/01/2000,01:38:28.11,14.64,-71.25,-991.37,262.50,-665.0,-297.50,1,94.426,
01/01/2000,01:38:28.13,14.64,-71.25,-991.49,271.25,-761.25,-288.75,1,94.435,
01/01/2000,01:38:28.14,14.64,-71.37,-991.62,122.50,-735.0,-428.75,1,94.444,
01/01/2000,01:38:28.15,14.52,-71.49,-991.62,105.0,-778.75,-358.75,1,94.454,
01/01/2000,01:38:28.16,14.52,-71.61,-991.74,96.25,-743.75,-437.50,1,94.463,
01/01/2000,01:38:28.17,14.64,-71.49,-991.74,210.0,-735.0,-315.0,1,94.472,
01/01/2000,01:38:28.18,14.64,-71.37,-991.62,78.75,-691.25,-332.50,1,94.482,
01/01/2000,01:38:28.19,14.64,-71.37,-991.86,96.25,-787.50,-315.0,1,94.491,
01/01/2000,01:38:28.20,14.64,-71.37,-991.74,122.50,-630.0,-358.75,1,94.500,
01/01/2000,01:38:28.21,14.76,-71.37,-991.74,-8.75,-717.50,-280.0,1,94.509,
01/01/2000,01:38:28.22,14.88,-71.49,-991.74,183.75,-656.25,-411.25,1,94.518,
01/01/2000,01:38:28.23,14.88,-71.49,-991.62,210.0,-761.25,-358.75,1,94.527,
01/01/2000,01:38:28.24,14.88,-71.61,-991.49,201.25,-726.25,-350.0,1,94.536,
01/01/2000,01:38:28.25,14.64,-71.61,-991.49,166.25,-761.25,-341.25,1,94.545,
01/01/2000,01:38:28.26,14.52,-71.61,-991.74,131.25,-726.25,-245.0,1,94.399,
01/01/2000,01:38:28.27,14.52,-71.61,-991.86,175.0,-638.75,-341.25,1,94.408,
01/01/2000,01:38:28.28,14.64,-71.49,-991.86,183.75,-638.75,-332.50,1,94.417,
01/01/2000,01:38:28.29,14.52,-71.49,-991.86,113.75,-665.0,-376.25,1,94.426,
01/01/2000,01:38:28.31,14.52,-71.74,-991.62,218.75,-735.0,-385.0,1,94.435,
01/01/2000,01:38:28.31,14.52,-71.74,-991.62,166.25,-568.75,-358.75,1,94.444,
01/01/2000,01:38:28.33,14.52,-71.74,-991.62,140.0,-691.25,-393.75,1,94.454,
01/01/2000,01:38:28.34,14.52,-71.74,-991.86,201.25,-647.50,-376.25,1,94.309,
01/01/2000,01:38:28.35,14.40,-71.74,-991.86,157.50,-647.50,-271.25,1,94.318,
01/01/2000,01:38:28.36,14.27,-71.74,-991.74,210.0,-647.50,-420.0,1,94.327,
01/01/2000,01:38:28.37,14.27,-71.98,-991.62,157.50,-735.0,-420.0,1,94.337,
01/01/2000,01:38:28.38,14.27,-71.98,-991.62,157.50,-700.0,-402.50,1,94.346,
01/01/2000,01:38:28.39,14.27,-71.86,-991.74,148.75,-691.25,-358.75,1,94.355,
01/01/2000,01:38:28.41,14.15,-71.74,-991.62,236.25,-638.75,-341.25,1,94.364,
01/01/2000,01:38:28.42,14.15,-71.61,-991.62,148.75,-752.50,-271.25,1,94.373,
01/01/2000,01:38:28.43,14.15,-71.74,-991.62,201.25,-735.0,-358.75,1,94.382,
01/01/2000,01:38:28.44,14.27,-71.98,-991.37,236.25,-770.0,-367.50,1,94.391,
01/01/2000,01:38:28.45,14.40,-71.98,-991.37,131.25,-778.75,-288.75,1,94.400,
01/01/2000,01:38:28.46,14.52,-71.98,-991.49,166.25,-761.25,-385.0,1,94.409,
01/01/2000,01:38:28.47,14.64,-71.86,-991.62,140.0,-708.75,-297.50,1,94.418,
01/01/2000,01:38:28.48,14.64,-71.74,-991.62,175.0,-665.0,-280.0,1,94.427,
01/01/2000,01:38:28.49,14.52,-71.74,-991.74,175.0,-761.25,-297.50,1,94.436,
01/01/2000,01:38:28.50,14.52,-71.86,-991.62,288.75,-638.75,-306.25,1,94.444,
01/01/2000,01:38:28.51,14.40,-71.86,-991.74,210.0,-691.25,-420.0,1,94.453,
01/01/2000,01:38:28.52,14.40,-71.86,-991.86,175.0,-647.50,-341.25,1,94.462,
01/01/2000,01:38:28.53,14.64,-71.74,-991.62,210.0,-743.75,-446.25,1,94.471,
01/01/2000,01:38:28.54,14.64,-71.74,-991.62,192.50,-665.0,-271.25,1,94.479,
01/01/2000,01:38:28.55,14.52,-71.86,-991.62,175.0,-761.25,-332.50,1,94.488,
01/01/2000,01:38:28.56,14.52,-71.98,-991.49,175.0,-717.50,-376.25,1,94.497,
01/01/2000,01:38:28.57,14.52,-71.86,-991.62,157.50,-630.0,-367.50,1,94.357,
01/01/2000,01:38:28.58,14.52,-71.74,-991.62,0.0,-603.75,-323.75,1,94.514,
01/01/2000,01:38:28.59,14.52,-71.74,-991.62,122.50,-665.0,-385.0,1,94.375,
01/01/2000,01:38:28.60,14.52,-71.74,-991.49,35.0,-796.25,-288.75,1,94.384,
01/01/2000,01:38:28.62,14.40,-71.86,-991.62,131.25,-691.25,-288.75,1,94.393,
01/01/2000,01:38:28.63,14.27,-71.74,-991.74,201.25,-691.25,-428.75,1,94.401,
01/01/2000,01:38:28.64,14.40,-71.61,-991.86,52.50,-673.75,-227.50,1,94.410,
01/01/2000,01:38:28.65,14.64,-71.61,-991.62,157.50,-700.0,-236.25,1,94.419,
01/01/2000,01:38:28.66,14.64,-71.61,-991.62,131.25,-717.50,-227.50,1,94.427,
01/01/2000,01:38:28.67,14.64,-71.86,-991.62,218.75,-743.75,-367.50,1,94.436,
01/01/2000,01:38:28.68,14.52,-71.86,-991.86,157.50,-673.75,-420.0,1,94.444,
01/01/2000,01:38:28.69,14.52,-71.74,-991.86,-35.0,-700.0,-280.0,1,94.453,
01/01/2000,01:38:28.70,14.64,-71.49,-991.98,218.75,-726.25,-437.50,1,94.462,
01/01/2000,01:38:28.71,14.64,-71.49,-991.74,236.25,-743.75,-166.25,1,94.470,
01/01/2000,01:38:28.72,14.52,-71.49,-991.86,122.50,-726.25,-323.75,1,94.479,
01/01/2000,01:38:28.73,14.64,-71.61,-991.74,17.50,-665.0,-402.50,1,94.487,
01/01/2000,01:38:28.74,14.64,-71.74,-991.86,96.25,-708.75,-393.75,1,94.495,
01/01/2000,01:38:28.75,14.64,-71.74,-991.98,253.75,-682.50,-376.25,1,94.504,
01/01/2000,01:38:28.76,14.40,-71.49,-991.98,183.75,-691.25,-315.0,1,94.368,
01/01/2000,01:38:28.77,14.40,-71.37,-991.98,227.50,-691.25,-385.0,1,94.377,
01/01/2000,01:38:28.78,14.40,-71.49,-991.98,96.25,-708.75,-288.75,1,94.385,
01/01/2000,01:38:28.79,14.40,-71.49,-991.98,183.75,-700.0,-358.75,1,94.394,
01/01/2000,01:38:28.80,14.40,-71.61,-991.86,157.50,-665.0,-315.0,1,94.402,
01/01/2000,01:38:28.81,14.52,-71.61,-991.98,227.50,-630.0,-411.25,1,94.411,
01/01/2000,01:38:28.83,14.40,-71.74,-991.98,201.25,-708.75,-367.50,1,94.419,
01/01/2000,01:38:28.84,14.40,-71.74,-991.98,105.0,-700.0,-288.75,1,94.428,
01/01/2000,01:38:28.85,14.40,-71.61,-992.23,271.25,-665.0,-306.25,1,94.436,
01/01/2000,01:38:28.86,14.52,-71.61,-992.23,113.75,-665.0,-341.25,1,94.303,
01/01/2000,01:38:28.87,14.52,-71.74,-992.10,148.75,-665.0,-323.75,1,94.311,
01/01/2000,01:38:28.88,14.64,-71.86,-991.98,0.0,-595.0,-315.0,1,94.320,
01/01/2000,01:38:28.89,14.64,-71.98,-991.98,218.75,-735.0,-385.0,1,94.328,
01/01/2000,01:38:28.90,14.76,-71.98,-991.98,-17.50,-761.25,-350.0,1,94.337,
01/01/2000,01:38:28.92,14.64,-71.98,-991.98,166.25,-656.25,-367.50,1,94.345,
01/01/2000,01:38:28.92,14.64,-71.61,-991.98,148.75,-603.75,-341.25,1,94.354,
01/01/2000,01:38:28.94,14.64,-71.61,-991.98,148.75,-726.25,-315.0,1,94.362,
01/01/2000,01:38:28.94,14.64,-71.74,-991.98,43.75,-682.50,-376.25,1,94.370,
01/01/2000,01:38:28.96,14.64,-71.86,-992.10,96.25,-726.25,-323.75,1,94.379,
01/01/2000,01:38:28.97,14.52,-71.98,-992.10,140.0,-682.50,-297.50,1,94.387,
01/01/2000,01:38:28.98,14.52,-71.74,-991.98,105.0,-682.50,-315.0,1,94.395,
01/01/2000,01:38:28.99,14.52,-71.74,-992.10,175.0,-778.75,-306.25,1,94.404,
01/01/2000,01:38:29.00,14.52,-71.49,-992.10,236.25,-682.50,-332.50,1,94.412,
01/01/2000,01:38:29.01,14.52,-71.49,-992.23,201.25,-630.0,-306.25,1,94.420,
01/01/2000,01:38:29.02,14.52,-71.49,-992.23,210.0,-752.50,-376.25,1,94.428,
01/01/2000,01:38:29.03,14.52,-71.74,-992.10,113.75,-638.75,-236.25,1,94.436,
01/01/2000,01:38:29.04,14.88,-71.74,-991.98,113.75,-568.75,-472.50,1,94.444,
01/01/2000,01:38:29.05,14.64,-71.98,-991.98,148.75,-735.0,-210.0,1,94.453,
01/01/2000,01:38:29.06,14.64,-71.61,-991.98,166.25,-586.25,-542.50,1,94.461,
01/01/2000,01:38:29.07,14.40,-71.74,-992.23,245.0,-770.0,-385.0,1,94.469,
01/01/2000,01:38:29.08,14.40,-71.49,-992.23,-43.75,-621.25,-323.75,1,94.477,
01/01/2000,01:38:29.09,14.40,-71.74,-992.10,262.50,-770.0,-315.0,1,94.485,
01/01/2000,01:38:29.10,14.64,-71.86,-992.10,-26.25,-525.0,-315.0,1,94.493,
01/01/2000,01:38:29.11,14.64,-71.98,-992.10,157.50,-822.50,-516.25,1,94.364,
01/01/2000,01:38:29.12,14.64,-72.10,-991.98,87.50,-708.75,-227.50,1,94.372,
01/01/2000,01:38:29.13,14.64,-71.86,-992.23,-61.25,-638.75,-376.25,1,94.380,
01/01/2000,01:38:29.15,14.40,-71.74,-992.23,236.25,-586.25,-315.0,1,94.388,
01/01/2000,01:38:29.15,14.64,-71.37,-992.10,166.25,-577.50,-411.25,1,94.397,
01/01/2000,01:38:29.17,14.40,-71.61,-992.10,262.50,-787.50,-227.50,1,94.405,
01/01/2000,01:38:29.17,14.64,-71.74,-992.23,105.0,-708.75,-210.0,1,94.413,
01/01/2000,01:38:29.19,14.64,-71.98,-992.10,-8.75,-595.0,-428.75,1,94.421,
01/01/2000,01:38:29.20,14.52,-71.98,-992.23,166.25,-568.75,-227.50,1,94.429,
01/01/2000,01:38:29.21,14.76,-71.61,-992.23,166.25,-708.75,-463.75,1,94.437,
01/01/2000,01:38:29.22,14.64,-71.61,-992.23,245.0,-708.75,-271.25,1,94.444,
01/01/2000,01:38:29.23,14.64,-71.61,-992.35,157.50,-621.25,-350.0,1,94.452,
01/01/2000,01:38:29.24,14.64,-71.74,-992.23,148.75,-612.50,-446.25,1,94.460,
01/01/2000,01:38:29.25,14.76,-71.98,-992.10,183.75,-717.50,-367.50,1,94.334,
01/01/2000,01:38:29.26,14.88,-71.74,-992.10,43.75,-743.75,-332.50,1,94.342,
01/01/2000,01:38:29.27,14.64,-71.61,-991.86,297.50,-673.75,-402.50,1,94.350,
01/01/2000,01:38:29.28,14.76,-71.37,-991.86,175.0,-647.50,-297.50,1,94.358,
01/01/2000,01:38:29.29,14.64,-71.49,-991.98,192.50,-761.25,-428.75,1,94.366,
01/01/2000,01:38:29.30,14.76,-71.61,-992.10,175.0,-656.25,-341.25,1,94.374,
01/01/2000,01:38:29.31,14.88,-71.74,-992.23,201.25,-752.50,-385.0,1,94.382,
01/01/2000,01:38:29.33,14.64,-71.86,-992.10,8.75,-691.25,-358.75,1,94.390,
01/01/2000,01:38:29.34,14.64,-71.86,-992.10,78.75,-813.75,-393.75,1,94.398,
01/01/2000,01:38:29.35,14.52,-71.86,-992.10,227.50,-586.25,-385.0,1,94.406,
01/01/2000,01:38:29.36,14.64,-71.74,-992.23,210.0,-770.0,-350.0,1,94.413,
01/01/2000,01:38:29.37,14.52,-71.61,-992.10,157.50,-595.0,-498.75,1,94.421,
01/01/2000,01:38:29.38,14.52,-71.49,-991.98,201.25,-743.75,-367.50,1,94.298,
01/01/2000,01:38:29.39,14.52,-71.49,-991.86,157.50,-761.25,-288.75,1,94.306,
01/01/2000,01:38:29.40,14.52,-71.61,-992.10,227.50,-638.75,-341.25,1,94.313,
01/01/2000,01:38:29.41,14.52,-71.61,-992.10,26.25,-735.0,-262.50,1,94.321,
01/01/2000,01:38:29.42,14.40,-71.74,-991.98,122.50,-682.50,-297.50,1,94.329,
01/01/2000,01:38:29.43,14.40,-71.49,-991.86,175.0,-673.75,-227.50,1,94.337,
01/01/2000,01:38:29.44,14.27,-71.49,-991.98,113.75,-665.0,-402.50,1,94.345,
01/01/2000,01:38:29.45,14.40,-71.25,-992.10,166.25,-735.0,-271.25,1,94.353,
01/01/2000,01:38:29.47,14.52,-71.49,-992.10,157.50,-612.50,-385.0,1,94.360,
01/01/2000,01:38:29.48,14.76,-71.49,-991.86,26.25,-621.25,-323.75,1,94.368,
01/01/2000,01:38:29.49,14.64,-71.74,-991.74,140.0,-796.25,-428.75,1,94.376,
01/01/2000,01:38:29.50,14.64,-71.86,-991.62,52.50,-717.50,-428.75,1,94.384,
01/01/2000,01:38:29.51,14.40,-71.86,-991.86,210.0,-770.0,-428.75,1,94.391,
01/01/2000,01:38:29.52,14.40,-71.49,-991.98,148.75,-700.0,-297.50,1,94.399,
01/01/2000,01:38:29.53,14.52,-71.13,-992.10,297.50,-630.0,-481.25,1,94.407,
01/01/2000,01:38:29.54,14.64,-71.25,-991.86,271.25,-691.25,-245.0,1,94.414,
01/01/2000,01:38:29.55,14.76,-71.49,-991.62,157.50,-682.50,-262.50,1,94.422,
01/01/2000,01:38:29.56,14.88,-71.86,-991.37,192.50,-735.0,-411.25,1,94.429,
01/01/2000,01:38:29.57,14.76,-72.10,-991.49,105.0,-621.25,-446.25,1,94.437,
01/01/2000,01:38:29.58,14.64,-71.86,-991.86,105.0,-752.50,-428.75,1,94.444,
01/01/2000,01:38:29.59,14.64,-71.49,-991.98,166.25,-647.50,-280.0,1,94.452,
01/01/2000,01:38:29.60,14.64,-71.25,-991.86,157.50,-638.75,-341.25,1,94.332,
01/01/2000,01:38:29.61,14.64,-71.49,-991.86,175.0,-787.50,-402.50,1,94.340,
01/01/2000,01:38:29.62,14.76,-71.74,-991.86,201.25,-630.0,-385.0,1,94.347,
01/01/2000,01:38:29.63,14.76,-71.74,-991.62,210.0,-647.50,-358.75,1,94.355,
01/01/2000,01:38:29.64,14.88,-71.74,-991.62,192.50,-735.0,-323.75,1,94.362,
01/01/2000,01:38:29.65,14.76,-71.49,-991.37,148.75,-805.0,-332.50,1,94.370,
01/01/2000,01:38:29.66,14.88,-71.13,-991.62,201.25,-560.0,-280.0,1,94.378,
01/01/2000,01:38:29.68,14.88,-71.25,-991.98,175.0,-612.50,-341.25,1,94.385,
01/01/2000,01:38:29.69,14.88,-71.37,-991.98,280.0,-735.0,-411.25,1,94.393,
01/01/2000,01:38:29.70,14.88,-71.49,-991.74,122.50,-665.0,-350.0,1,94.400,
01/01/2000,01:38:29.71,14.88,-71.74,-991.49,306.25,-682.50,-481.25,1,94.407,
01/01/2000,01:38:29.72,15.01,-71.74,-991.37,157.50,-708.75,-288.75,1,94.415,
01/01/2000,01:38:29.73,15.01,-71.61,-991.49,183.75,-656.25,-411.25,1,94.422,
01/01/2000,01:38:29.74,14.88,-71.61,-991.62,271.25,-673.75,-306.25,1,94.430,
01/01/2000,01:38:29.75,14.64,-71.74,-991.74,192.50,-603.75,-341.25,1,94.437,
01/01/2000,01:38:29.76,14.64,-71.74,-991.74,157.50,-647.50,-376.25,1,94.444,
01/01/2000,01:38:29.77,14.76,-71.49,-991.62,105.0,-612.50,-411.25,1,94.452,
01/01/2000,01:38:29.78,14.88,-71.61,-991.62,227.50,-770.0,-393.75,1,94.459,
01/01/2000,01:38:29.79,14.76,-71.61,-991.62,148.75,-700.0,-428.75,1,94.466,
01/01/2000,01:38:29.80,14.64,-71.49,-991.74,61.25,-586.25,-420.0,1,94.474,
01/01/2000,01:38:29.82,14.76,-71.37,-991.74,183.75,-691.25,-280.0,1,94.357,
01/01/2000,01:38:29.83,14.88,-71.25,-991.74,122.50,-638.75,-262.50,1,94.364,
01/01/2000,01:38:29.84,14.88,-71.37,-991.62,61.25,-621.25,-455.0,1,94.372,
01/01/2000,01:38:29.85,14.88,-71.49,-991.62,96.25,-665.0,-367.50,1,94.379,
01/01/2000,01:38:29.86,14.64,-71.49,-991.62,148.75,-665.0,-358.75,1,94.386,
01/01/2000,01:38:29.87,14.64,-71.25,-991.49,148.75,-673.75,-393.75,1,94.394,
01/01/2000,01:38:29.88,15.01,-71.25,-991.37,183.75,-743.75,-306.25,1,94.401,
01/01/2000,01:38:29.89,15.01,-71.13,-991.25,70.0,-630.0,-113.75,1,94.286,
01/01/2000,01:38:29.90,14.88,-71.37,-991.25,245.0,-848.75,-227.50,1,94.293,
01/01/2000,01:38:29.91,14.52,-71.61,-991.37,113.75,-857.50,-315.0,1,94.301,
01/01/2000,01:38:29.92,14.64,-71.49,-991.62,210.0,-805.0,-542.50,1,94.308,
01/01/2000,01:38:29.93,14.64,-71.25,-991.74,192.50,-691.25,-323.75,1,94.315,
01/01/2000,01:38:29.94,14.88,-71.00,-991.37,148.75,-752.50,-367.50,1,94.323,
01/01/2000,01:38:29.95,14.76,-71.13,-991.25,131.25,-691.25,-227.50,1,94.330,
01/01/2000,01:38:29.96,14.64,-71.37,-991.13,96.25,-761.25,-245.0,1,94.337,
01/01/2000,01:38:29.97,14.40,-71.74,-991.37,122.50,-691.25,-420.0,1,94.344,
01/01/2000,01:38:29.98,14.40,-71.74,-991.49,192.50,-752.50,-437.50,1,94.352,
01/01/2000,01:38:29.99,14.52,-71.49,-991.62,-17.50,-691.25,-367.50,1,94.359,
01/01/2000,01:38:30.00,14.64,-71.25,-991.49,201.25,-726.25,-280.0,1,94.366,
01/01/2000,01:38:30.01,14.52,-71.13,-991.25,61.25,-595.0,-271.25,1,94.373,
01/01/2000,01:38:30.03,14.52,-71.37,-991.25,175.0,-656.25,-323.75,1,94.381,
01/01/2000,01:38:30.04,14.40,-71.49,-991.37,113.75,-708.75,-315.0,1,94.388,
01/01/2000,01:38:30.05,14.64,-71.61,-991.13,113.75,-796.25,-358.75,1,94.395,
01/01/2000,01:38:30.06,14.64,-71.49,-991.01,201.25,-673.75,-306.25,1,94.402,
01/01/2000,01:38:30.07,14.64,-71.25,-991.01,332.50,-743.75,-376.25,1,94.409,
01/01/2000,01:38:30.08,14.76,-71.25,-991.01,183.75,-770.0,-262.50,1,94.416,
01/01/2000,01:38:30.09,14.64,-71.37,-991.25,96.25,-778.75,-350.0,1,94.423,
01/01/2000,01:38:30.10,14.52,-71.61,-991.25,157.50,-796.25,-341.25,1,94.430,
01/01/2000,01:38:30.11,14.52,-71.49,-991.13,52.50,-691.25,-332.50,1,94.318,
01/01/2000,01:38:30.12,14.64,-71.49,-991.01,297.50,-708.75,-358.75,1,94.325,
01/01/2000,01:38:30.13,14.76,-71.37,-991.13,166.25,-743.75,-367.50,1,94.332,
01/01/2000,01:38:30.14,14.64,-71.37,-991.25,315.0,-656.25,-262.50,1,94.340,
01/01/2000,01:38:30.15,14.52,-71.49,-991.37,358.75,-595.0,-393.75,1,94.347,
01/01/2000,01:38:30.17,14.27,-71.25,-991.25,262.50,-752.50,-332.50,1,94.354,
01/01/2000,01:38:30.18,14.40,-71.25,-991.13,131.25,-647.50,-350.0,1,94.361,
01/01/2000,01:38:30.19,14.64,-71.00,-991.25,236.25,-691.25,-323.75,1,94.368,
01/01/2000,01:38:30.20,14.64,-71.00,-991.37,253.75,-691.25,-367.50,1,94.375,
01/01/2000,01:38:30.21,14.76,-71.25,-991.37,192.50,-726.25,-262.50,1,94.382,
01/01/2000,01:38:30.22,14.76,-71.25,-991.37,113.75,-682.50,-420.0,1,94.389,
01/01/2000,01:38:30.23,14.64,-71.37,-991.37,201.25,-717.50,-350.0,1,94.396,
01/01/2000,01:38:30.24,14.64,-71.25,-991.25,96.25,-682.50,-280.0,1,94.403,
01/01/2000,01:38:30.25,14.64,-71.13,-991.37,105.0,-673.75,-402.50,1,94.410,
01/01/2000,01:38:30.26,14.64,-71.25,-991.49,122.50,-647.50,-376.25,1,94.417,
01/01/2000,01:38:30.27,14.40,-71.37,-991.49,122.50,-682.50,-411.25,1,94.424,
01/01/2000,01:38:30.28,14.40,-71.49,-991.37,122.50,-708.75,-402.50,1,94.431,
01/01/2000,01:38:30.29,14.52,-71.49,-991.37,236.25,-717.50,-306.25,1,94.438,
01/01/2000,01:38:30.30,14.64,-71.25,-991.37,148.75,-630.0,-350.0,1,94.444,
01/01/2000,01:38:30.31,14.52,-71.49,-991.37,148.75,-673.75,-332.50,1,94.335,
01/01/2000,01:38:30.32,14.52,-71.74,-991.25,175.0,-673.75,-437.50,1,94.342,
01/01/2000,01:38:30.33,14.40,-71.61,-991.25,253.75,-726.25,-367.50,1,94.349,
01/01/2000,01:38:30.34,14.52,-71.61,-991.37,78.75,-586.25,-271.25,1,94.356,
01/01/2000,01:38:30.35,14.52,-71.61,-991.37,280.0,-708.75,-376.25,1,94.363,
01/01/2000,01:38:30.36,14.52,-71.37,-991.37,43.75,-656.25,-350.0,1,94.370,
01/01/2000,01:38:30.38,14.40,-71.37,-991.25,148.75,-743.75,-183.75,1,94.261,
01/01/2000,01:38:30.39,14.52,-71.49,-991.25,201.25,-700.0,-288.75,1,94.268,
01/01/2000,01:38:30.40,14.64,-71.37,-991.25,140.0,-665.0,-306.25,1,94.275,
01/01/2000,01:38:30.41,14.76,-71.49,-991.13,183.75,-743.75,-288.75,1,94.282,
01/01/2000,01:38:30.42,14.76,-71.49,-990.88,157.50,-840.0,-288.75,1,94.289,
01/01/2000,01:38:30.43,14.64,-71.74,-990.88,148.75,-726.25,-367.50,1,94.296,
01/01/2000,01:38:30.44,14.64,-71.74,-991.13,192.50,-796.25,-437.50,1,94.303,
01/01/2000,01:38:30.46,14.64,-71.61,-991.37,306.25,-603.75,-376.25,1,94.310,
01/01/2000,01:38:30.47,14.64,-71.37,-991.37,183.75,-700.0,-358.75,1,94.317,
01/01/2000,01:38:30.48,14.64,-71.25,-991.13,78.75,-796.25,-315.0,1,94.324,
01/01/2000,01:38:30.49,14.64,-71.13,-990.88,78.75,-717.50,-385.0,1,94.331,
01/01/2000,01:38:30.50,14.64,-71.49,-990.76,166.25,-682.50,-332.50,1,94.337,
01/01/2000,01:38:30.51,14.64,-71.49,-990.88,166.25,-796.25,-315.0,1,94.344,
01/01/2000,01:38:30.52,14.64,-71.61,-991.13,140.0,-691.25,-393.75,1,94.351,
01/01/2000,01:38:30.53,14.64,-71.25,-991.25,17.50,-656.25,-315.0,1,94.358,
01/01/2000,01:38:30.54,14.64,-71.00,-991.13,192.50,-691.25,-341.25,1,94.365,
01/01/2000,01:38:30.55,14.76,-71.00,-991.13,96.25,-717.50,-218.75,1,94.371,
01/01/2000,01:38:30.56,14.76,-71.25,-991.01,192.50,-708.75,-253.75,1,94.378,
01/01/2000,01:38:30.57,14.76,-71.49,-991.01,17.50,-761.25,-315.0,1,94.385,
01/01/2000,01:38:30.58,14.64,-71.61,-991.01,148.75,-726.25,-455.0,1,94.391,
01/01/2000,01:38:30.59,14.76,-71.49,-990.88,183.75,-691.25,-402.50,1,94.398,
01/01/2000,01:38:30.60,14.64,-71.37,-991.13,157.50,-708.75,-385.0,1,94.405,
01/01/2000,01:38:30.61,14.64,-71.25,-991.13,52.50,-612.50,-288.75,1,94.411,
01/01/2000,01:38:30.62,14.64,-71.49,-991.13,271.25,-700.0,-306.25,1,94.418,
01/01/2000,01:38:30.63,14.64,-71.49,-991.13,122.50,-665.0,-402.50,1,94.425,
01/01/2000,01:38:30.64,14.64,-71.74,-991.01,157.50,-630.0,-358.75,1,94.431,
01/01/2000,01:38:30.65,14.76,-71.74,-991.01,166.25,-682.50,-420.0,1,94.438,
01/01/2000,01:38:30.67,14.76,-71.61,-991.01,183.75,-717.50,-323.75,1,94.333,
01/01/2000,01:38:30.68,14.76,-71.49,-991.13,175.0,-656.25,-306.25,1,94.340,
01/01/2000,01:38:30.69,14.64,-71.49,-991.25,131.25,-630.0,-332.50,1,94.346,
01/01/2000,01:38:30.70,14.64,-71.74,-991.37,52.50,-735.0,-315.0,1,94.353,
01/01/2000,01:38:30.71,14.64,-71.74,-991.37,210.0,-708.75,-315.0,1,94.360,
01/01/2000,01:38:30.72,14.76,-71.74,-991.25,70.0,-568.75,-358.75,1,94.366,
01/01/2000,01:38:30.73,14.88,-71.49,-991.13,140.0,-656.25,-280.0,1,94.373,
01/01/2000,01:38:30.74,14.76,-71.61,-991.01,105.0,-656.25,-350.0,1,94.379,
01/01/2000,01:38:30.75,14.76,-71.49,-991.13,192.50,-656.25,-358.75,1,94.386,
01/01/2000,01:38:30.76,14.64,-71.49,-991.13,262.50,-752.50,-306.25,1,94.393,
01/01/2000,01:38:30.77,14.76,-71.37,-991.13,148.75,-778.75,-393.75,1,94.399,
01/01/2000,01:38:30.78,14.88,-71.49,-991.13,140.0,-656.25,-350.0,1,94.406,
01/01/2000,01:38:30.79,14.88,-71.61,-991.13,43.75,-726.25,-358.75,1,94.412,
01/01/2000,01:38:30.80,14.76,-71.74,-990.88,227.50,-726.25,-297.50,1,94.309,
01/01/2000,01:38:30.81,14.76,-71.49,-991.01,166.25,-612.50,-385.0,1,94.316,
01/01/2000,01:38:30.82,14.64,-71.25,-991.25,175.0,-638.75,-306.25,1,94.322,
01/01/2000,01:38:30.83,14.64,-71.25,-991.13,131.25,-665.0,-253.75,1,94.329,
01/01/2000,01:38:30.84,14.64,-71.49,-991.13,26.25,-761.25,-350.0,1,94.335,
01/01/2000,01:38:30.85,14.52,-71.74,-990.88,87.50,-656.25,-376.25,1,94.342,
01/01/2000,01:38:30.86,14.52,-71.74,-990.76,122.50,-735.0,-455.0,1,94.348,
01/01/2000,01:38:30.88,14.52,-71.49,-990.88,131.25,-673.75,-245.0,1,94.355,
01/01/2000,01:38:30.89,14.64,-71.25,-991.13,148.75,-568.75,-332.50,1,94.361,
01/01/2000,01:38:30.90,14.64,-71.37,-991.13,210.0,-603.75,-306.25,1,94.259,
01/01/2000,01:38:30.91,14.64,-71.74,-991.13,148.75,-673.75,-306.25,1,94.266,
01/01/2000,01:38:30.92,14.64,-71.74,-991.25,245.0,-743.75,-358.75,1,94.273,
01/01/2000,01:38:30.93,14.52,-71.74,-991.25,157.50,-717.50,-332.50,1,94.279,
01/01/2000,01:38:30.94,14.64,-71.49,-991.13,280.0,-691.25,-288.75,1,94.286,
01/01/2000,01:38:30.95,14.64,-71.49,-990.88,306.25,-682.50,-341.25,1,94.292,
01/01/2000,01:38:30.96,14.52,-71.61,-991.01,306.25,-673.75,-446.25,1,94.299,
01/01/2000,01:38:30.97,14.52,-71.74,-991.13,78.75,-630.0,-315.0,1,94.305,
01/01/2000,01:38:30.98,14.40,-71.74,-991.13,175.0,-665.0,-332.50,1,94.312,
01/01/2000,01:38:30.99,14.64,-71.74,-991.13,87.50,-673.75,-297.50,1,94.318,
01/01/2000,01:38:31.00,14.64,-71.61,-991.01,192.50,-630.0,-393.75,1,94.325,
01/01/2000,01:38:31.02,14.64,-71.49,-991.01,210.0,-761.25,-306.25,1,94.331,
01/01/2000,01:38:31.03,14.52,-71.61,-990.88,271.25,-665.0,-376.25,1,94.337,
01/01/2000,01:38:31.04,14.64,-71.61,-991.01,148.75,-691.25,-350.0,1,94.344,
01/01/2000,01:38:31.05,14.64,-71.61,-991.01,113.75,-708.75,-367.50,1,94.350,
01/01/2000,01:38:31.06,14.64,-71.49,-991.13,70.0,-673.75,-315.0,1,94.357,
01/01/2000,01:38:31.07,14.64,-71.49,-991.13,175.0,-673.75,-455.0,1,94.363,
01/01/2000,01:38:31.08,14.76,-71.49,-991.13,253.75,-761.25,-271.25,1,94.369,
01/01/2000,01:38:31.09,14.64,-71.37,-991.37,78.75,-735.0,-428.75,1,94.376,
01/01/2000,01:38:31.10,14.64,-71.37,-991.37,175.0,-656.25,-341.25,1,94.382,
01/01/2000,01:38:31.11,14.64,-71.25,-991.37,192.50,-691.25,-428.75,1,94.388,
01/01/2000,01:38:31.12,14.76,-71.13,-991.37,157.50,-682.50,-323.75,1,94.395,
01/01/2000,01:38:31.13,14.76,-71.25,-991.37,332.50,-673.75,-323.75,1,94.401,
01/01/2000,01:38:31.14,14.76,-71.49,-991.37,140.0,-603.75,-323.75,1,94.407,
01/01/2000,01:38:31.15,14.52,-71.37,-991.37,52.50,-673.75,-332.50,1,94.308,
01/01/2000,01:38:31.16,14.40,-71.49,-991.37,183.75,-770.0,-332.50,1,94.314,
01/01/2000,01:38:31.17,14.52,-71.25,-991.37,96.25,-647.50,-341.25,1,94.321,
01/01/2000,01:38:31.18,14.52,-71.13,-991.37,113.75,-647.50,-376.25,1,94.327,
01/01/2000,01:38:31.19,14.52,-71.13,-991.37,227.50,-638.75,-271.25,1,94.333,
01/01/2000,01:38:31.20,14.40,-71.37,-991.37,166.25,-595.0,-341.25,1,94.340,
01/01/2000,01:38:31.21,14.64,-71.37,-991.25,157.50,-665.0,-332.50,1,94.346,
01/01/2000,01:38:31.23,14.52,-71.49,-991.25,201.25,-612.50,-367.50,1,94.352,
01/01/2000,01:38:31.24,14.52,-71.37,-991.13,210.0,-647.50,-376.25,1,94.358,
01/01/2000,01:38:31.25,14.27,-71.49,-991.25,166.25,-761.25,-402.50,1,94.365,
01/01/2000,01:38:31.26,14.27,-71.49,-991.25,148.75,-665.0,-306.25,1,94.371,
01/01/2000,01:38:31.27,14.40,-71.61,-991.37,140.0,-665.0,-323.75,1,94.377,
01/01/2000,01:38:31.28,14.52,-71.74,-991.37,113.75,-630.0,-385.0,1,94.383,
01/01/2000,01:38:31.29,14.52,-71.86,-991.37,236.25,-761.25,-455.0,1,94.389,
01/01/2000,01:38:31.30,14.64,-71.74,-991.13,140.0,-656.25,-262.50,1,94.292,
01/01/2000,01:38:31.31,14.52,-71.74,-991.37,192.50,-673.75,-323.75,1,94.298,
01/01/2000,01:38:31.32,14.40,-71.74,-991.62,105.0,-691.25,-271.25,1,94.304,
01/01/2000,01:38:31.33,14.52,-71.61,-991.74,227.50,-717.50,-297.50,1,94.311,
01/01/2000,01:38:31.34,14.52,-71.61,-991.62,140.0,-708.75,-402.50,1,94.317,
01/01/2000,01:38:31.35,14.52,-71.74,-991.49,148.75,-603.75,-315.0,1,94.323,
01/01/2000,01:38:31.37,14.64,-71.74,-991.37,78.75,-682.50,-271.25,1,94.329,
01/01/2000,01:38:31.38,14.64,-71.74,-991.62,218.75,-717.50,-341.25,1,94.336,
01/01/2000,01:38:31.39,14.64,-71.61,-991.62,131.25,-691.25,-367.50,1,94.342,
01/01/2000,01:38:31.40,14.52,-71.49,-991.37,166.25,-656.25,-297.50,1,94.245,
01/01/2000,01:38:31.42,14.40,-71.49,-991.37,245.0,-726.25,-376.25,1,94.252,
01/01/2000,01:38:31.43,14.40,-71.49,-991.37,113.75,-612.50,-385.0,1,94.258,
01/01/2000,01:38:31.44,14.52,-71.61,-991.49,122.50,-647.50,-236.25,1,94.264,
01/01/2000,01:38:31.45,14.40,-71.74,-991.49,175.0,-665.0,-332.50,1,94.270,
01/01/2000,01:38:31.46,14.27,-71.74,-991.62,-8.75,-691.25,-306.25,1,94.276,
01/01/2000,01:38:31.47,14.27,-71.74,-991.62,122.50,-770.0,-402.50,1,94.283,
01/01/2000,01:38:31.48,14.40,-71.61,-991.62,70.0,-717.50,-350.0,1,94.289,
01/01/2000,01:38:31.49,14.40,-71.61,-991.49,96.25,-708.75,-350.0,1,94.295,
01/01/2000,01:38:31.50,14.40,-71.61,-991.37,253.75,-682.50,-218.75,1,94.301,
01/01/2000,01:38:31.51,14.40,-71.74,-991.25,148.75,-743.75,-306.25,1,94.307,
01/01/2000,01:38:31.52,14.40,-71.86,-991.13,131.25,-673.75,-367.50,1,94.313,
01/01/2000,01:38:31.53,14.40,-71.86,-991.13,122.50,-708.75,-376.25,1,94.319,
01/01/2000,01:38:31.54,14.40,-71.49,-991.25,87.50,-691.25,-332.50,1,94.325,
01/01/2000,01:38:31.55,14.27,-71.49,-991.13,35.0,-761.25,-218.75,1,94.332,
01/01/2000,01:38:31.56,14.40,-71.49,-991.25,113.75,-831.25,-341.25,1,94.338,
01/01/2000,01:38:31.57,14.40,-71.74,-991.25,201.25,-638.75,-367.50,1,94.344,
01/01/2000,01:38:31.58,14.52,-71.74,-991.37,183.75,-717.50,-245.0,1,94.249,
01/01/2000,01:38:31.59,14.64,-71.74,-991.13,315.0,-752.50,-332.50,1,94.255,
01/01/2000,01:38:31.60,14.64,-71.49,-991.13,61.25,-577.50,-288.75,1,94.261,
01/01/2000,01:38:31.61,14.64,-71.49,-991.25,61.25,-691.25,-315.0,1,94.268,
01/01/2000,01:38:31.62,14.64,-71.49,-991.25,105.0,-743.75,-402.50,1,94.274,
01/01/2000,01:38:31.63,14.64,-71.49,-991.25,297.50,-717.50,-358.75,1,94.280,
01/01/2000,01:38:31.64,14.64,-71.61,-991.25,87.50,-630.0,-393.75,1,94.286,
01/01/2000,01:38:31.66,14.64,-71.74,-991.01,157.50,-700.0,-376.25,1,94.292,
01/01/2000,01:38:31.67,14.52,-71.74,-991.01,183.75,-621.25,-341.25,1,94.298,
01/01/2000,01:38:31.68,14.52,-71.74,-991.13,192.50,-700.0,-437.50,1,94.304,
01/01/2000,01:38:31.69,14.52,-71.74,-991.37,35.0,-621.25,-288.75,1,94.310,
01/01/2000,01:38:31.70,14.64,-71.74,-991.37,218.75,-612.50,-350.0,1,94.316,
01/01/2000,01:38:31.71,14.64,-71.61,-991.13,43.75,-726.25,-271.25,1,94.322,
01/01/2000,01:38:31.72,14.52,-71.74,-990.88,140.0,-700.0,-288.75,1,94.328,
01/01/2000,01:38:31.73,14.52,-71.61,-991.13,131.25,-691.25,-385.0,1,94.334,
01/01/2000,01:38:31.74,14.64,-71.74,-991.25,192.50,-656.25,-332.50,1,94.340,
01/01/2000,01:38:31.75,14.64,-71.61,-991.37,17.50,-595.0,-463.75,1,94.346,
01/01/2000,01:38:31.76,14.52,-71.61,-991.25,113.75,-691.25,-411.25,1,94.351,
01/01/2000,01:38:31.77,14.52,-71.61,-991.25,367.50,-726.25,-297.50,1,94.357,
01/01/2000,01:38:31.78,14.52,-71.61,-991.13,245.0,-656.25,-323.75,1,94.363,
01/01/2000,01:38:31.79,14.52,-71.74,-991.13,131.25,-638.75,-402.50,1,94.271,
01/01/2000,01:38:31.80,14.52,-71.74,-991.13,148.75,-743.75,-402.50,1,94.277,
01/01/2000,01:38:31.81,14.52,-71.74,-991.25,148.75,-805.0,-323.75,1,94.283,
01/01/2000,01:38:31.82,14.64,-71.49,-991.37,218.75,-735.0,-358.75,1,94.289,
01/01/2000,01:38:31.83,14.40,-71.61,-991.25,183.75,-621.25,-315.0,1,94.295,
01/01/2000,01:38:31.84,14.40,-71.74,-991.37,297.50,-691.25,-341.25,1,94.301,
01/01/2000,01:38:31.85,14.27,-71.86,-991.37,78.75,-656.25,-350.0,1,94.306,
01/01/2000,01:38:31.87,14.27,-71.86,-991.25,122.50,-700.0,-306.25,1,94.312,
01/01/2000,01:38:31.88,14.40,-71.74,-991.49,253.75,-778.75,-411.25,1,94.318,
01/01/2000,01:38:31.89,14.40,-71.74,-991.62,52.50,-691.25,-367.50,1,94.324,
01/01/2000,01:38:31.90,14.40,-71.86,-991.62,262.50,-682.50,-350.0,1,94.330,
01/01/2000,01:38:31.91,14.52,-71.74,-991.49,105.0,-665.0,-358.75,1,94.239,
01/01/2000,01:38:31.92,14.64,-71.74,-991.49,227.50,-726.25,-323.75,1,94.245,
01/01/2000,01:38:31.94,14.64,-71.74,-991.37,218.75,-743.75,-358.75,1,94.251,
01/01/2000,01:38:31.95,14.64,-71.74,-991.49,262.50,-726.25,-411.25,1,94.256,
01/01/2000,01:38:31.96,14.52,-71.74,-991.62,87.50,-708.75,-350.0,1,94.262,
01/01/2000,01:38:31.97,14.40,-71.49,-991.49,140.0,-691.25,-350.0,1,94.268,
01/01/2000,01:38:31.98,14.40,-71.49,-991.49,96.25,-787.50,-341.25,1,94.274,
01/01/2000,01:38:31.99,14.52,-71.61,-991.37,175.0,-761.25,-411.25,1,94.280,
01/01/2000,01:38:32.00,14.52,-71.74,-991.37,166.25,-743.75,-376.25,1,94.286,
01/01/2000,01:38:32.01,14.52,-71.86,-991.25,52.50,-717.50,-350.0,1,94.292,
01/01/2000,01:38:32.02,14.52,-71.86,-991.25,227.50,-743.75,-332.50,1,94.297,
01/01/2000,01:38:32.03,14.52,-71.86,-991.25,201.25,-673.75,-280.0,1,94.303,
01/01/2000,01:38:32.04,14.40,-71.74,-991.37,166.25,-726.25,-358.75,1,94.309,
01/01/2000,01:38:32.05,14.52,-71.61,-991.49,201.25,-726.25,-306.25,1,94.315,
01/01/2000,01:38:32.06,14.52,-71.74,-991.62,201.25,-813.75,-271.25,1,94.320,
01/01/2000,01:38:32.07,14.52,-71.74,-991.62,105.0,-630.0,-271.25,1,94.326,
01/01/2000,01:38:32.08,14.40,-71.74,-991.49,43.75,-700.0,-411.25,1,94.332,
01/01/2000,01:38:32.09,14.40,-71.74,-991.37,157.50,-708.75,-358.75,1,94.338,
01/01/2000,01:38:32.10,14.40,-71.61,-991.37,113.75,-577.50,-411.25,1,94.343,
01/01/2000,01:38:32.11,14.40,-71.61,-991.49,210.0,-647.50,-323.75,1,94.349,
01/01/2000,01:38:32.12,14.40,-71.49,-991.49,201.25,-717.50,-271.25,1,94.355,
01/01/2000,01:38:32.13,14.40,-71.49,-991.49,113.75,-638.75,-332.50,1,94.361,
01/01/2000,01:38:32.15,14.40,-71.49,-991.37,122.50,-805.0,-341.25,1,94.271,
01/01/2000,01:38:32.16,14.52,-71.49,-991.13,131.25,-770.0,-350.0,1,94.277,
01/01/2000,01:38:32.17,14.52,-71.49,-991.25,192.50,-708.75,-341.25,1,94.283,
01/01/2000,01:38:32.18,14.52,-71.49,-991.37,17.50,-735.0,-315.0,1,94.289,
01/01/2000,01:38:32.19,14.40,-71.49,-991.37,236.25,-778.75,-323.75,1,94.294,
01/01/2000,01:38:32.20,14.52,-71.49,-991.37,166.25,-673.75,-358.75,1,94.300,
01/01/2000,01:38:32.21,14.52,-71.49,-991.13,288.75,-717.50,-472.50,1,94.306,
01/01/2000,01:38:32.22,14.64,-71.61,-991.13,288.75,-638.75,-376.25,1,94.311,
01/01/2000,01:38:32.23,14.64,-71.61,-991.25,122.50,-726.25,-332.50,1,94.317,
01/01/2000,01:38:32.24,14.40,-71.74,-991.37,218.75,-647.50,-332.50,1,94.323,
01/01/2000,01:38:32.25,14.40,-71.74,-991.49,218.75,-647.50,-358.75,1,94.328,
01/01/2000,01:38:32.26,14.40,-71.61,-991.37,175.0,-831.25,-280.0,1,94.334,
01/01/2000,01:38:32.27,14.40,-71.37,-991.37,157.50,-638.75,-288.75,1,94.340,
01/01/2000,01:38:32.28,14.40,-71.49,-991.37,218.75,-682.50,-323.75,1,94.345,
01/01/2000,01:38:32.29,14.40,-71.37,-991.25,140.0,-612.50,-315.0,1,94.257,
01/01/2000,01:38:32.30,14.40,-71.37,-991.25,236.25,-682.50,-428.75,1,94.263,
01/01/2000,01:38:32.31,14.52,-71.25,-991.13,210.0,-700.0,-306.25,1,94.269,
01/01/2000,01:38:32.32,14.64,-71.25,-991.13,122.50,-796.25,-306.25,1,94.274,
01/01/2000,01:38:32.33,14.64,-71.25,-991.13,43.75,-726.25,-411.25,1,94.280,
01/01/2000,01:38:32.34,14.64,-71.37,-991.13,210.0,-612.50,-332.50,1,94.286,
01/01/2000,01:38:32.36,14.64,-71.49,-991.25,131.25,-700.0,-350.0,1,94.291,
01/01/2000,01:38:32.37,14.64,-71.61,-991.49,131.25,-717.50,-341.25,1,94.297,
01/01/2000,01:38:32.38,14.64,-71.49,-991.37,192.50,-647.50,-481.25,1,94.303,
01/01/2000,01:38:32.39,14.52,-71.25,-991.25,131.25,-656.25,-367.50,1,94.308,
01/01/2000,01:38:32.40,14.52,-71.25,-991.13,157.50,-717.50,-288.75,1,94.314,
01/01/2000,01:38:32.41,14.52,-71.25,-991.25,140.0,-752.50,-385.0,1,94.319,
01/01/2000,01:38:32.42,14.40,-71.49,-991.37,78.75,-656.25,-393.75,1,94.233,
01/01/2000,01:38:32.44,14.15,-71.49,-991.13,0.0,-673.75,-306.25,1,94.238,
01/01/2000,01:38:32.45,14.15,-71.49,-991.01,175.0,-752.50,-358.75,1,94.244,
01/01/2000,01:38:32.46,14.27,-71.37,-991.01,175.0,-717.50,-385.0,1,94.250,
01/01/2000,01:38:32.47,14.27,-71.49,-991.01,192.50,-586.25,-376.25,1,94.255,
01/01/2000,01:38:32.48,14.27,-71.49,-991.25,192.50,-682.50,-306.25,1,94.261,
01/01/2000,01:38:32.49,14.03,-71.61,-991.13,262.50,-647.50,-393.75,1,94.266,
01/01/2000,01:38:32.50,14.03,-71.61,-991.01,87.50,-700.0,-323.75,1,94.272,
01/01/2000,01:38:32.51,14.15,-71.49,-990.88,35.0,-778.75,-376.25,1,94.277,
01/01/2000,01:38:32.52,14.40,-71.49,-991.13,227.50,-735.0,-315.0,1,94.283,
01/01/2000,01:38:32.53,14.40,-71.61,-991.01,218.75,-665.0,-358.75,1,94.288,
01/01/2000,01:38:32.54,14.40,-71.49,-991.01,131.25,-708.75,-358.75,1,94.294,
01/01/2000,01:38:32.55,14.40,-71.74,-991.01,157.50,-700.0,-376.25,1,94.300,
01/01/2000,01:38:32.56,14.40,-71.49,-991.01,122.50,-656.25,-210.0,1,94.305,
01/01/2000,01:38:32.57,14.52,-71.49,-991.01,280.0,-700.0,-428.75,1,94.311,
01/01/2000,01:38:32.58,14.52,-71.49,-991.01,26.25,-813.75,-332.50,1,94.316,
01/01/2000,01:38:32.59,14.52,-71.61,-991.13,157.50,-743.75,-367.50,1,94.321,
01/01/2000,01:38:32.60,14.52,-71.74,-991.13,218.75,-603.75,-385.0,1,94.327,
01/01/2000,01:38:32.61,14.52,-71.74,-991.13,183.75,-691.25,-393.75,1,94.332,
01/01/2000,01:38:32.62,14.64,-71.61,-991.13,253.75,-638.75,-315.0,1,94.338,
01/01/2000,01:38:32.63,14.64,-71.49,-991.13,43.75,-603.75,-367.50,1,94.343,
01/01/2000,01:38:32.64,14.52,-71.61,-990.88,280.0,-778.75,-323.75,1,94.258,
01/01/2000,01:38:32.65,14.40,-71.74,-990.76,157.50,-647.50,-367.50,1,94.264,
01/01/2000,01:38:32.66,14.52,-71.61,-990.76,280.0,-761.25,-341.25,1,94.269,
01/01/2000,01:38:32.67,14.64,-71.61,-991.01,157.50,-630.0,-332.50,1,94.275,
01/01/2000,01:38:32.68,14.64,-71.49,-991.13,113.75,-647.50,-341.25,1,94.280,
01/01/2000,01:38:32.69,14.52,-71.25,-991.13,113.75,-682.50,-367.50,1,94.286,
01/01/2000,01:38:32.71,14.40,-71.49,-990.88,297.50,-726.25,-420.0,1,94.291,
01/01/2000,01:38:32.72,14.52,-71.49,-991.13,175.0,-673.75,-350.0,1,94.297,
01/01/2000,01:38:32.73,14.64,-71.49,-991.13,253.75,-805.0,-297.50,1,94.302,
01/01/2000,01:38:32.74,14.64,-71.37,-991.01,105.0,-691.25,-332.50,1,94.307,
01/01/2000,01:38:32.75,14.52,-71.49,-990.88,218.75,-717.50,-376.25,1,94.313,
01/01/2000,01:38:32.76,14.40,-71.49,-990.76,385.0,-700.0,-402.50,1,94.318,
01/01/2000,01:38:32.77,14.52,-71.49,-990.76,148.75,-708.75,-393.75,1,94.324,
01/01/2000,01:38:32.78,14.64,-71.37,-991.13,157.50,-621.25,-332.50,1,94.240,
01/01/2000,01:38:32.79,14.64,-71.37,-990.88,96.25,-656.25,-253.75,1,94.245,
01/01/2000,01:38:32.80,14.52,-71.49,-990.76,210.0,-743.75,-280.0,1,94.251,
01/01/2000,01:38:32.81,14.40,-71.49,-990.64,122.50,-665.0,-306.25,1,94.256,
01/01/2000,01:38:32.82,14.52,-71.49,-990.64,131.25,-621.25,-358.75,1,94.262,
01/01/2000,01:38:32.83,14.64,-71.37,-990.88,140.0,-761.25,-393.75,1,94.267,
01/01/2000,01:38:32.84,14.64,-71.37,-990.88,166.25,-717.50,-376.25,1,94.272,
01/01/2000,01:38:32.86,14.52,-71.37,-990.76,105.0,-761.25,-385.0,1,94.278,
01/01/2000,01:38:32.87,14.52,-71.49,-990.88,245.0,-726.25,-350.0,1,94.283,
01/01/2000,01:38:32.88,14.64,-71.37,-991.13,8.75,-708.75,-315.0,1,94.288,
01/01/2000,01:38:32.89,14.64,-71.49,-991.13,271.25,-542.50,-367.50,1,94.294,
01/01/2000,01:38:32.90,14.64,-71.49,-990.76,105.0,-726.25,-385.0,1,94.299,
01/01/2000,01:38:32.91,14.64,-71.49,-990.52,140.0,-708.75,-420.0,1,94.304,
01/01/2000,01:38:32.92,14.64,-71.49,-990.64,183.75,-656.25,-245.0,1,94.310,
01/01/2000,01:38:32.94,14.76,-71.49,-991.01,96.25,-805.0,-446.25,1,94.227,
01/01/2000,01:38:32.95,14.76,-71.49,-990.88,113.75,-778.75,-472.50,1,94.233,
01/01/2000,01:38:32.96,14.64,-71.37,-990.88,70.0,-647.50,-323.75,1,94.238,
01/01/2000,01:38:32.97,14.64,-71.37,-990.64,148.75,-682.50,-227.50,1,94.243,
01/01/2000,01:38:32.98,14.64,-71.49,-990.76,166.25,-708.75,-306.25,1,94.249,
01/01/2000,01:38:32.99,14.88,-71.49,-991.01,105.0,-665.0,-385.0,1,94.254,
01/01/2000,01:38:33.00,14.76,-71.49,-991.01,175.0,-752.50,-393.75,1,94.259,
01/01/2000,01:38:33.01,14.64,-71.37,-990.88,148.75,-717.50,-323.75,1,94.265,
01/01/2000,01:38:33.02,14.64,-71.37,-990.88,245.0,-708.75,-280.0,1,94.270,
01/01/2000,01:38:33.03,14.64,-71.37,-990.88,227.50,-770.0,-367.50,1,94.275,
01/01/2000,01:38:33.04,14.64,-71.49,-991.01,166.25,-717.50,-350.0,1,94.280,
01/01/2000,01:38:33.05,14.76,-71.61,-991.13,35.0,-761.25,-262.50,1,94.286,
01/01/2000,01:38:33.06,14.64,-71.61,-990.88,183.75,-787.50,-306.25,1,94.291,
01/01/2000,01:38:33.07,14.52,-71.49,-990.64,175.0,-761.25,-315.0,1,94.296,
01/01/2000,01:38:33.08,14.40,-71.49,-990.76,122.50,-805.0,-332.50,1,94.301,
01/01/2000,01:38:33.09,14.52,-71.37,-990.88,148.75,-691.25,-332.50,1,94.307,
01/01/2000,01:38:33.10,14.52,-71.61,-991.13,245.0,-691.25,-288.75,1,94.312,
01/01/2000,01:38:33.11,14.52,-71.74,-991.13,201.25,-577.50,-297.50,1,94.317,
01/01/2000,01:38:33.12,14.52,-71.61,-990.88,297.50,-761.25,-455.0,1,94.322,
01/01/2000,01:38:33.13,14.52,-71.49,-990.88,218.75,-700.0,-341.25,1,94.241,
01/01/2000,01:38:33.14,14.64,-71.37,-991.01,175.0,-743.75,-393.75,1,94.247,
01/01/2000,01:38:33.15,14.64,-71.25,-991.25,253.75,-726.25,-245.0,1,94.252,
01/01/2000,01:38:33.16,14.64,-71.25,-991.13,78.75,-577.50,-323.75,1,94.257,
01/01/2000,01:38:33.17,14.76,-71.37,-991.13,183.75,-761.25,-385.0,1,94.262,
01/01/2000,01:38:33.18,14.76,-71.25,-991.13,140.0,-665.0,-332.50,1,94.268,
01/01/2000,01:38:33.19,14.64,-71.49,-991.13,122.50,-726.25,-437.50,1,94.273,
01/01/2000,01:38:33.21,14.64,-71.37,-991.01,236.25,-700.0,-315.0,1,94.278,
01/01/2000,01:38:33.22,14.40,-71.49,-990.88,192.50,-691.25,-385.0,1,94.283,
01/01/2000,01:38:33.23,14.40,-71.49,-990.88,87.50,-770.0,-271.25,1,94.288,
01/01/2000,01:38:33.24,14.40,-71.49,-990.76,113.75,-586.25,-341.25,1,94.293,
01/01/2000,01:38:33.25,14.27,-71.49,-990.64,87.50,-568.75,-297.50,1,94.299,
01/01/2000,01:38:33.26,14.15,-71.49,-990.64,148.75,-752.50,-367.50,1,94.304,
01/01/2000,01:38:33.27,14.27,-71.49,-990.76,183.75,-691.25,-297.50,1,94.309,
01/01/2000,01:38:33.28,14.52,-71.49,-991.01,61.25,-700.0,-385.0,1,94.314,
01/01/2000,01:38:33.29,14.52,-71.49,-990.88,210.0,-682.50,-306.25,1,94.319,
01/01/2000,01:38:33.30,14.40,-71.49,-990.88,157.50,-691.25,-315.0,1,94.324,
01/01/2000,01:38:33.31,14.40,-71.49,-990.64,105.0,-735.0,-358.75,1,94.329,
01/01/2000,01:38:33.32,14.52,-71.37,-990.64,96.25,-612.50,-367.50,1,94.335,
01/01/2000,01:38:33.33,14.52,-71.49,-990.64,236.25,-700.0,-323.75,1,94.340,
01/01/2000,01:38:33.35,14.40,-71.49,-990.64,131.25,-656.25,-411.25,1,94.260,
01/01/2000,01:38:33.36,14.27,-71.37,-990.64,245.0,-805.0,-437.50,1,94.265,
01/01/2000,01:38:33.37,14.27,-71.13,-990.76,192.50,-840.0,-358.75,1,94.270,
01/01/2000,01:38:33.38,14.27,-71.25,-990.88,218.75,-735.0,-376.25,1,94.275,
01/01/2000,01:38:33.39,14.27,-71.25,-990.88,122.50,-638.75,-297.50,1,94.281,
01/01/2000,01:38:33.40,14.27,-71.37,-991.01,175.0,-726.25,-297.50,1,94.286,
01/01/2000,01:38:33.41,14.40,-71.49,-990.88,236.25,-673.75,-358.75,1,94.291,
01/01/2000,01:38:33.42,14.27,-71.49,-990.88,262.50,-708.75,-315.0,1,94.296,
01/01/2000,01:38:33.43,14.27,-71.37,-990.88,122.50,-752.50,-253.75,1,94.301,
01/01/2000,01:38:33.44,14.15,-71.13,-991.01,148.75,-612.50,-306.25,1,94.222,
01/01/2000,01:38:33.46,14.15,-71.25,-991.01,271.25,-691.25,-358.75,1,94.227,
01/01/2000,01:38:33.47,14.15,-71.25,-990.88,105.0,-691.25,-323.75,1,94.232,
01/01/2000,01:38:33.48,14.15,-71.49,-991.01,262.50,-708.75,-332.50,1,94.238,
01/01/2000,01:38:33.49,14.40,-71.49,-991.13,96.25,-752.50,-341.25,1,94.243,
01/01/2000,01:38:33.50,14.52,-71.49,-991.13,192.50,-726.25,-332.50,1,94.248,
01/01/2000,01:38:33.51,14.52,-71.25,-991.01,201.25,-743.75,-280.0,1,94.253,
01/01/2000,01:38:33.52,14.52,-71.25,-990.88,183.75,-656.25,-358.75,1,94.258,
01/01/2000,01:38:33.53,14.52,-71.37,-990.88,218.75,-560.0,-280.0,1,94.263,
01/01/2000,01:38:33.54,14.52,-71.49,-991.01,140.0,-691.25,-306.25,1,94.268,
01/01/2000,01:38:33.55,14.40,-71.37,-991.01,122.50,-647.50,-306.25,1,94.273,
01/01/2000,01:38:33.56,14.40,-71.25,-990.76,323.75,-708.75,-306.25,1,94.278,
01/01/2000,01:38:33.57,14.40,-71.13,-990.64,315.0,-568.75,-332.50,1,94.283,
01/01/2000,01:38:33.58,14.40,-71.25,-990.64,183.75,-743.75,-385.0,1,94.288,
01/01/2000,01:38:33.59,14.40,-71.25,-990.76,52.50,-708.75,-306.25,1,94.293,
01/01/2000,01:38:33.60,14.52,-71.61,-990.76,157.50,-717.50,-350.0,1,94.298,
01/01/2000,01:38:33.61,14.40,-71.49,-990.76,157.50,-787.50,-402.50,1,94.303,
01/01/2000,01:38:33.62,14.40,-71.49,-990.88,131.25,-682.50,-446.25,1,94.308,
01/01/2000,01:38:33.63,14.27,-71.49,-990.88,148.75,-700.0,-323.75,1,94.231,
01/01/2000,01:38:33.64,14.40,-71.49,-990.88,131.25,-647.50,-288.75,1,94.236,
01/01/2000,01:38:33.65,14.40,-71.49,-990.88,105.0,-700.0,-253.75,1,94.241,
01/01/2000,01:38:33.66,14.40,-71.49,-991.01,157.50,-673.75,-393.75,1,94.246,
01/01/2000,01:38:33.67,14.52,-71.37,-990.76,175.0,-708.75,-227.50,1,94.251,
01/01/2000,01:38:33.68,14.64,-71.49,-990.64,148.75,-735.0,-323.75,1,94.256,
01/01/2000,01:38:33.70,14.64,-71.49,-990.76,201.25,-726.25,-297.50,1,94.261,
01/01/2000,01:38:33.71,14.64,-71.37,-990.88,245.0,-726.25,-280.0,1,94.266,
01/01/2000,01:38:33.72,14.76,-71.25,-991.13,148.75,-656.25,-376.25,1,94.271,
01/01/2000,01:38:33.73,14.76,-71.13,-991.01,166.25,-673.75,-306.25,1,94.276,
01/01/2000,01:38:33.74,14.64,-71.49,-990.88,87.50,-700.0,-393.75,1,94.281,
01/01/2000,01:38:33.75,14.64,-71.61,-990.76,140.0,-638.75,-411.25,1,94.286,
01/01/2000,01:38:33.76,14.64,-71.74,-990.64,148.75,-743.75,-350.0,1,94.291,
01/01/2000,01:38:33.77,14.64,-71.49,-990.88,201.25,-726.25,-280.0,1,94.296,
01/01/2000,01:38:33.78,14.64,-71.49,-991.01,271.25,-717.50,-315.0,1,94.301,
01/01/2000,01:38:33.79,14.64,-71.49,-990.88,166.25,-665.0,-367.50,1,94.305,
01/01/2000,01:38:33.80,14.52,-71.49,-990.76,306.25,-568.75,-376.25,1,94.310,
01/01/2000,01:38:33.81,14.52,-71.49,-990.76,105.0,-542.50,-271.25,1,94.315,
01/01/2000,01:38:33.82,14.64,-71.61,-990.88,271.25,-743.75,-472.50,1,94.320,
01/01/2000,01:38:33.83,14.64,-71.37,-991.01,52.50,-735.0,-315.0,1,94.325,
01/01/2000,01:38:33.84,14.76,-71.37,-991.01,140.0,-586.25,-393.75,1,94.249,
01/01/2000,01:38:33.85,14.88,-71.37,-991.01,183.75,-735.0,-437.50,1,94.254,
01/01/2000,01:38:33.86,14.88,-71.25,-990.88,218.75,-761.25,-306.25,1,94.259,
01/01/2000,01:38:33.87,14.88,-71.37,-990.64,210.0,-682.50,-350.0,1,94.264,
01/01/2000,01:38:33.88,14.76,-71.49,-990.64,87.50,-735.0,-332.50,1,94.269,
01/01/2000,01:38:33.90,14.64,-71.49,-990.64,183.75,-630.0,-420.0,1,94.274,
01/01/2000,01:38:33.91,14.76,-71.37,-990.88,218.75,-533.75,-402.50,1,94.278,
01/01/2000,01:38:33.92,14.88,-71.25,-991.01,280.0,-761.25,-271.25,1,94.283,
01/01/2000,01:38:33.93,14.88,-71.25,-990.64,218.75,-665.0,-218.75,1,94.288,
01/01/2000,01:38:33.94,14.76,-71.49,-990.52,201.25,-735.0,-332.50,1,94.293,
01/01/2000,01:38:33.95,14.52,-71.49,-990.52,78.75,-752.50,-420.0,1,94.218,
01/01/2000,01:38:33.96,14.40,-71.25,-990.64,140.0,-708.75,-376.25,1,94.223,
01/01/2000,01:38:33.97,14.52,-71.00,-990.88,96.25,-647.50,-385.0,1,94.228,
01/01/2000,01:38:33.99,14.52,-71.00,-990.88,113.75,-761.25,-332.50,1,94.232,
01/01/2000,01:38:34.00,14.40,-71.13,-990.64,166.25,-708.75,-376.25,1,94.237,
01/01/2000,01:38:34.01,14.52,-71.13,-990.64,122.50,-656.25,-402.50,1,94.242,
01/01/2000,01:38:34.02,14.52,-71.37,-990.64,157.50,-656.25,-323.75,1,94.247,
01/01/2000,01:38:34.03,14.52,-71.25,-990.64,148.75,-630.0,-358.75,1,94.252,
01/01/2000,01:38:34.04,14.40,-71.13,-990.64,201.25,-612.50,-376.25,1,94.257,
01/01/2000,01:38:34.05,14.40,-71.00,-990.76,297.50,-577.50,-253.75,1,94.262,
01/01/2000,01:38:34.06,14.52,-71.00,-990.76,35.0,-708.75,-323.75,1,94.266,
01/01/2000,01:38:34.07,14.64,-71.25,-990.88,271.25,-630.0,-306.25,1,94.271,
01/01/2000,01:38:34.08,14.76,-71.25,-991.01,157.50,-778.75,-385.0,1,94.276,
01/01/2000,01:38:34.09,14.64,-71.25,-990.76,78.75,-656.25,-332.50,1,94.281,
01/01/2000,01:38:34.10,14.52,-71.25,-990.76,157.50,-770.0,-350.0,1,94.286,
01/01/2000,01:38:34.11,14.40,-71.25,-991.01,245.0,-726.25,-367.50,1,94.291,
01/01/2000,01:38:34.12,14.64,-71.13,-991.25,175.0,-761.25,-323.75,1,94.295,
01/01/2000,01:38:34.13,14.64,-71.00,-991.25,218.75,-665.0,-411.25,1,94.300,
01/01/2000,01:38:34.14,14.76,-71.13,-991.25,253.75,-700.0,-192.50,1,94.305,
01/01/2000,01:38:34.15,14.64,-71.25,-991.13,262.50,-761.25,-437.50,1,94.310,
01/01/2000,01:38:34.16,14.64,-71.49,-991.13,288.75,-761.25,-481.25,1,94.314,
01/01/2000,01:38:34.17,14.64,-71.37,-991.25,148.75,-647.50,-402.50,1,94.319,
01/01/2000,01:38:34.18,14.76,-71.25,-991.37,148.75,-638.75,-218.75,1,94.324,
01/01/2000,01:38:34.20,14.64,-71.13,-991.37,175.0,-717.50,-280.0,1,94.250,
01/01/2000,01:38:34.21,14.52,-71.25,-991.13,140.0,-691.25,-332.50,1,94.255,
01/01/2000,01:38:34.22,14.52,-71.49,-991.13,236.25,-612.50,-393.75,1,94.260,
01/01/2000,01:38:34.23,14.64,-71.49,-991.13,105.0,-726.25,-437.50,1,94.264,
01/01/2000,01:38:34.24,14.64,-71.49,-991.13,183.75,-752.50,-341.25,1,94.269,
01/01/2000,01:38:34.25,14.64,-71.49,-991.13,131.25,-665.0,-350.0,1,94.274,
01/01/2000,01:38:34.26,14.64,-71.37,-990.88,183.75,-700.0,-463.75,1,94.279,
01/01/2000,01:38:34.27,14.76,-71.25,-991.01,113.75,-770.0,-350.0,1,94.283,
01/01/2000,01:38:34.28,14.88,-71.49,-991.01,140.0,-700.0,-280.0,1,94.288,
01/01/2000,01:38:34.29,15.01,-71.61,-991.13,148.75,-673.75,-341.25,1,94.293,
01/01/2000,01:38:34.30,14.88,-71.74,-991.01,183.75,-700.0,-393.75,1,94.298,
01/01/2000,01:38:34.31,14.76,-71.49,-990.88,148.75,-726.25,-306.25,1,94.302,
01/01/2000,01:38:34.32,14.88,-71.37,-991.01,148.75,-735.0,-315.0,1,94.307,
01/01/2000,01:38:34.33,15.13,-71.49,-991.25,192.50,-665.0,-332.50,1,94.234,
01/01/2000,01:38:34.34,15.13,-71.61,-991.25,140.0,-735.0,-315.0,1,94.239,
01/01/2000,01:38:34.35,15.01,-71.86,-991.13,113.75,-638.75,-288.75,1,94.243,
01/01/2000,01:38:34.36,14.88,-71.98,-991.13,96.25,-770.0,-297.50,1,94.248,
01/01/2000,01:38:34.37,14.88,-71.61,-991.13,183.75,-761.25,-385.0,1,94.253,
01/01/2000,01:38:34.38,14.76,-71.49,-991.37,192.50,-656.25,-245.0,1,94.258,
01/01/2000,01:38:34.39,14.64,-71.37,-991.37,70.0,-717.50,-332.50,1,94.262,
01/01/2000,01:38:34.41,14.52,-71.61,-991.13,140.0,-761.25,-358.75,1,94.267,
01/01/2000,01:38:34.42,14.52,-71.74,-991.13,43.75,-717.50,-280.0,1,94.272,
01/01/2000,01:38:34.43,14.64,-71.74,-991.37,183.75,-708.75,-323.75,1,94.276,
01/01/2000,01:38:34.44,14.64,-71.61,-991.49,175.0,-770.0,-262.50,1,94.281,
01/01/2000,01:38:34.45,14.52,-71.49,-991.49,105.0,-691.25,-376.25,1,94.286,
01/01/2000,01:38:34.46,14.40,-71.49,-991.49,43.75,-533.75,-350.0,1,94.290,
01/01/2000,01:38:34.47,14.52,-71.49,-991.37,96.25,-673.75,-323.75,1,94.218,
01/01/2000,01:38:34.48,14.64,-71.49,-991.13,341.25,-656.25,-271.25,1,94.223,
01/01/2000,01:38:34.49,14.64,-71.49,-991.01,175.0,-630.0,-245.0,1,94.228,
01/01/2000,01:38:34.50,14.64,-71.49,-991.01,78.75,-603.75,-350.0,1,94.232,
01/01/2000,01:38:34.51,14.64,-71.74,-991.13,105.0,-743.75,-306.25,1,94.237,
01/01/2000,01:38:34.52,14.64,-71.49,-991.13,122.50,-638.75,-297.50,1,94.242,
01/01/2000,01:38:34.53,14.52,-71.49,-991.13,122.50,-717.50,-420.0,1,94.246,
01/01/2000,01:38:34.55,14.52,-71.49,-991.01,43.75,-708.75,-306.25,1,94.251,
01/01/2000,01:38:34.56,14.40,-71.49,-991.13,227.50,-656.25,-341.25,1,94.256,
01/01/2000,01:38:34.57,14.40,-71.61,-991.01,236.25,-630.0,-341.25,1,94.260,
01/01/2000,01:38:34.58,14.40,-71.61,-991.25,201.25,-717.50,-367.50,1,94.265,
01/01/2000,01:38:34.59,14.27,-71.61,-991.37,175.0,-796.25,-393.75,1,94.270,
01/01/2000,01:38:34.60,14.27,-71.37,-991.25,227.50,-840.0,-306.25,1,94.274,
01/01/2000,01:38:34.61,14.27,-71.37,-991.37,192.50,-735.0,-306.25,1,94.279,
01/01/2000,01:38:34.62,14.27,-71.49,-991.37,236.25,-735.0,-385.0,1,94.283,
01/01/2000,01:38:34.63,14.40,-71.61,-991.25,166.25,-796.25,-218.75,1,94.288,
01/01/2000,01:38:34.64,14.40,-71.74,-991.25,201.25,-673.75,-280.0,1,94.293,
01/01/2000,01:38:34.65,14.40,-71.61,-991.25,175.0,-700.0,-306.25,1,94.297,
01/01/2000,01:38:34.66,14.40,-71.37,-991.25,148.75,-752.50,-358.75,1,94.302,
01/01/2000,01:38:34.67,14.64,-71.25,-991.25,148.75,-778.75,-315.0,1,94.306,
01/01/2000,01:38:34.68,14.52,-71.49,-991.37,183.75,-630.0,-332.50,1,94.311,
01/01/2000,01:38:34.69,14.64,-71.49,-991.37,148.75,-743.75,-271.25,1,94.315,
01/01/2000,01:38:34.70,14.88,-71.49,-991.13,175.0,-647.50,-332.50,1,94.320,
01/01/2000,01:38:34.71,14.88,-71.61,-991.13,131.25,-682.50,-280.0,1,94.325,
01/01/2000,01:38:34.72,14.88,-71.49,-991.13,61.25,-743.75,-297.50,1,94.254,
01/01/2000,01:38:34.73,14.76,-71.49,-991.25,105.0,-752.50,-341.25,1,94.334,
01/01/2000,01:38:34.74,14.64,-71.49,-991.37,70.0,-700.0,-393.75,1,94.263,
01/01/2000,01:38:34.76,14.64,-71.37,-991.49,218.75,-778.75,-350.0,1,94.268,
01/01/2000,01:38:34.77,14.64,-71.49,-991.37,201.25,-656.25,-350.0,1,94.272,
01/01/2000,01:38:34.78,14.64,-71.61,-991.25,105.0,-717.50,-332.50,1,94.277,
01/01/2000,01:38:34.79,14.64,-71.61,-991.25,105.0,-813.75,-323.75,1,94.281,
01/01/2000,01:38:34.80,14.64,-71.49,-991.49,122.50,-638.75,-376.25,1,94.286,
01/01/2000,01:38:34.81,14.64,-71.49,-991.62,122.50,-647.50,-332.50,1,94.290,
01/01/2000,01:38:34.82,14.64,-71.25,-991.62,157.50,-647.50,-332.50,1,94.295,
01/01/2000,01:38:34.83,14.64,-71.25,-991.49,105.0,-647.50,-323.75,1,94.299,
01/01/2000,01:38:34.84,14.64,-71.37,-991.62,236.25,-813.75,-358.75,1,94.304,
01/01/2000,01:38:34.85,14.64,-71.49,-991.62,175.0,-735.0,-358.75,1,94.308,
01/01/2000,01:38:34.86,14.76,-71.61,-991.37,140.0,-656.25,-367.50,1,94.313,
01/01/2000,01:38:34.87,14.64,-71.49,-991.37,35.0,-656.25,-227.50,1,94.317,
01/01/2000,01:38:34.88,14.52,-71.49,-991.25,297.50,-630.0,-376.25,1,94.322,
01/01/2000,01:38:34.89,14.64,-71.49,-991.62,113.75,-656.25,-367.50,1,94.252,
01/01/2000,01:38:34.90,14.64,-71.61,-991.62,96.25,-787.50,-306.25,1,94.256,
01/01/2000,01:38:34.91,14.52,-71.61,-991.49,26.25,-700.0,-323.75,1,94.261,
01/01/2000,01:38:34.92,14.52,-71.74,-991.37,-17.50,-691.25,-306.25,1,94.266,
01/01/2000,01:38:34.93,14.52,-71.74,-991.25,157.50,-682.50,-280.0,1,94.270,
01/01/2000,01:38:34.94,14.64,-71.61,-991.25,262.50,-752.50,-323.75,1,94.275,
01/01/2000,01:38:34.95,14.64,-71.49,-991.37,61.25,-647.50,-306.25,1,94.279,
01/01/2000,01:38:34.97,14.40,-71.74,-991.25,183.75,-665.0,-420.0,1,94.210,
01/01/2000,01:38:34.98,14.52,-71.61,-991.13,210.0,-700.0,-280.0,1,94.214,
01/01/2000,01:38:34.99,14.64,-71.74,-991.25,148.75,-743.75,-332.50,1,94.219,
01/01/2000,01:38:35.00,14.64,-71.61,-991.37,140.0,-708.75,-402.50,1,94.223,
01/01/2000,01:38:35.01,14.52,-71.61,-991.37,148.75,-621.25,-245.0,1,94.228,
01/01/2000,01:38:35.02,14.40,-71.86,-991.37,166.25,-700.0,-411.25,1,94.232,
01/01/2000,01:38:35.03,14.40,-71.61,-991.37,201.25,-691.25,-402.50,1,94.237,
01/01/2000,01:38:35.04,14.52,-71.61,-991.37,105.0,-700.0,-323.75,1,94.241,
01/01/2000,01:38:35.06,14.64,-71.49,-991.37,201.25,-708.75,-262.50,1,94.246,
01/01/2000,01:38:35.06,14.64,-71.49,-991.37,87.50,-647.50,-253.75,1,94.250,
01/01/2000,01:38:35.08,14.64,-71.74,-991.37,78.75,-752.50,-376.25,1,94.255,
01/01/2000,01:38:35.09,14.52,-71.61,-991.37,122.50,-735.0,-376.25,1,94.259,
01/01/2000,01:38:35.10,14.40,-71.61,-991.37,210.0,-796.25,-455.0,1,94.264,
01/01/2000,01:38:35.11,14.52,-71.74,-991.49,35.0,-682.50,-393.75,1,94.268,
01/01/2000,01:38:35.12,14.64,-71.61,-991.49,131.25,-603.75,-341.25,1,94.272,
01/01/2000,01:38:35.13,14.40,-71.86,-991.25,183.75,-673.75,-306.25,1,94.277,
01/01/2000,01:38:35.14,14.15,-71.86,-991.13,131.25,-700.0,-472.50,1,94.281,
01/01/2000,01:38:35.15,14.15,-71.98,-991.37,192.50,-673.75,-376.25,1,94.286,
01/01/2000,01:38:35.16,14.27,-71.74,-991.37,280.0,-542.50,-428.75,1,94.290,
01/01/2000,01:38:35.17,14.40,-71.61,-991.37,166.25,-638.75,-350.0,1,94.295,
01/01/2000,01:38:35.18,14.40,-71.61,-991.37,297.50,-691.25,-358.75,1,94.299,
01/01/2000,01:38:35.19,14.40,-71.74,-991.13,210.0,-673.75,-367.50,1,94.303,
01/01/2000,01:38:35.20,14.40,-71.86,-991.37,122.50,-805.0,-472.50,1,94.308,
01/01/2000,01:38:35.21,14.52,-71.74,-991.49,210.0,-682.50,-490.0,1,94.312,
01/01/2000,01:38:35.22,14.52,-71.61,-991.37,148.75,-638.75,-297.50,1,94.316,
01/01/2000,01:38:35.23,14.52,-71.49,-991.25,78.75,-682.50,-341.25,1,94.321,
01/01/2000,01:38:35.24,14.40,-71.49,-991.13,113.75,-612.50,-271.25,1,94.325,
01/01/2000,01:38:35.26,14.27,-71.74,-991.25,218.75,-621.25,-350.0,1,94.257,
01/01/2000,01:38:35.27,14.40,-71.74,-991.25,201.25,-787.50,-280.0,1,94.262,
01/01/2000,01:38:35.28,14.52,-71.74,-991.25,210.0,-743.75,-323.75,1,94.266,
01/01/2000,01:38:35.29,14.40,-71.61,-991.13,122.50,-761.25,-332.50,1,94.270,
01/01/2000,01:38:35.30,14.40,-71.74,-991.13,218.75,-761.25,-350.0,1,94.275,
01/01/2000,01:38:35.31,14.40,-71.74,-991.37,157.50,-638.75,-323.75,1,94.279,
01/01/2000,01:38:35.32,14.64,-71.61,-991.62,253.75,-770.0,-297.50,1,94.284,
01/01/2000,01:38:35.33,14.52,-71.61,-991.49,157.50,-691.25,-428.75,1,94.288,
01/01/2000,01:38:35.34,14.64,-71.74,-991.25,175.0,-700.0,-306.25,1,94.292,
01/01/2000,01:38:35.35,14.64,-71.74,-991.25,262.50,-700.0,-393.75,1,94.297,
01/01/2000,01:38:35.36,14.64,-71.74,-991.49,210.0,-708.75,-358.75,1,94.301,
01/01/2000,01:38:35.37,14.64,-71.74,-991.62,122.50,-595.0,-323.75,1,94.305,
01/01/2000,01:38:35.38,14.64,-71.61,-991.62,113.75,-735.0,-306.25,1,94.310,
01/01/2000,01:38:35.39,14.40,-71.49,-991.25,192.50,-647.50,-306.25,1,94.242,
01/01/2000,01:38:35.40,14.40,-71.61,-991.25,227.50,-656.25,-280.0,1,94.247,
01/01/2000,01:38:35.41,14.52,-71.74,-991.37,210.0,-682.50,-350.0,1,94.251,
01/01/2000,01:38:35.42,14.64,-71.98,-991.62,166.25,-726.25,-376.25,1,94.255,
01/01/2000,01:38:35.43,14.40,-71.74,-991.62,236.25,-638.75,-376.25,1,94.260,
01/01/2000,01:38:35.44,14.15,-71.74,-991.49,148.75,-708.75,-367.50,1,94.264,
01/01/2000,01:38:35.46,14.27,-71.61,-991.49,192.50,-560.0,-358.75,1,94.268,
01/01/2000,01:38:35.47,14.52,-71.74,-991.62,113.75,-717.50,-236.25,1,94.273,
01/01/2000,01:38:35.48,14.52,-71.98,-991.62,43.75,-621.25,-341.25,1,94.277,
01/01/2000,01:38:35.49,14.15,-71.98,-991.49,175.0,-630.0,-481.25,1,94.211,
01/01/2000,01:38:35.50,14.15,-71.86,-991.49,122.50,-770.0,-367.50,1,94.215,
01/01/2000,01:38:35.51,14.40,-71.74,-991.62,122.50,-700.0,-341.25,1,94.219,
01/01/2000,01:38:35.52,14.64,-71.49,-991.74,61.25,-542.50,-288.75,1,94.224,
01/01/2000,01:38:35.53,14.52,-71.86,-991.62,280.0,-656.25,-341.25,1,94.228,
01/01/2000,01:38:35.54,14.40,-72.22,-991.37,0.0,-752.50,-367.50,1,94.232,
01/01/2000,01:38:35.55,14.40,-72.22,-991.25,113.75,-542.50,-498.75,1,94.237,
01/01/2000,01:38:35.56,14.52,-71.98,-991.37,35.0,-778.75,-411.25,1,94.241,
01/01/2000,01:38:35.58,14.64,-71.74,-991.62,43.75,-577.50,-280.0,1,94.245,
01/01/2000,01:38:35.58,14.40,-71.61,-991.37,218.75,-726.25,-341.25,1,94.249,
01/01/2000,01:38:35.60,14.40,-71.61,-991.37,140.0,-638.75,-306.25,1,94.254,
01/01/2000,01:38:35.61,14.52,-71.86,-991.25,148.75,-787.50,-358.75,1,94.258,
01/01/2000,01:38:35.62,14.64,-71.98,-991.37,227.50,-726.25,-385.0,1,94.262,
01/01/2000,01:38:35.63,14.76,-71.86,-991.49,245.0,-691.25,-367.50,1,94.267,
01/01/2000,01:38:35.64,14.76,-71.74,-991.49,131.25,-638.75,-358.75,1,94.271,
01/01/2000,01:38:35.65,14.64,-71.61,-991.49,148.75,-700.0,-341.25,1,94.275,
01/01/2000,01:38:35.66,14.64,-71.49,-991.62,78.75,-743.75,-367.50,1,94.279,
01/01/2000,01:38:35.67,14.64,-71.74,-991.86,87.50,-603.75,-341.25,1,94.284,
01/01/2000,01:38:35.68,14.64,-71.74,-991.74,140.0,-708.75,-323.75,1,94.288,
01/01/2000,01:38:35.69,14.52,-71.74,-991.49,262.50,-647.50,-341.25,1,94.292,
01/01/2000,01:38:35.70,14.40,-71.74,-991.25,245.0,-717.50,-376.25,1,94.296,
01/01/2000,01:38:35.71,14.40,-71.74,-991.25,227.50,-612.50,-385.0,1,94.301,
01/01/2000,01:38:35.72,14.52,-71.74,-991.74,122.50,-761.25,-253.75,1,94.305,
01/01/2000,01:38:35.73,14.52,-71.86,-991.86,210.0,-682.50,-358.75,1,94.309,
01/01/2000,01:38:35.74,14.40,-71.74,-991.86,157.50,-743.75,-385.0,1,94.244,
01/01/2000,01:38:35.75,14.40,-71.61,-991.62,192.50,-708.75,-393.75,1,94.248,
01/01/2000,01:38:35.76,14.52,-71.61,-991.37,262.50,-700.0,-350.0,1,94.252,
01/01/2000,01:38:35.77,14.52,-71.74,-991.62,218.75,-691.25,-297.50,1,94.256,
01/01/2000,01:38:35.78,14.52,-71.61,-991.62,105.0,-691.25,-358.75,1,94.260,
01/01/2000,01:38:35.79,14.40,-71.61,-991.49,201.25,-743.75,-341.25,1,94.265,
01/01/2000,01:38:35.80,14.52,-71.37,-991.37,52.50,-577.50,-245.0,1,94.269,
01/01/2000,01:38:35.82,14.40,-71.49,-991.25,175.0,-700.0,-332.50,1,94.273,
01/01/2000,01:38:35.83,14.52,-71.49,-991.37,131.25,-752.50,-341.25,1,94.277,
01/01/2000,01:38:35.84,14.64,-71.49,-991.49,166.25,-708.75,-455.0,1,94.282,
01/01/2000,01:38:35.85,14.64,-71.74,-991.49,236.25,-708.75,-332.50,1,94.286,
01/01/2000,01:38:35.86,14.64,-71.61,-991.37,175.0,-735.0,-393.75,1,94.290,
01/01/2000,01:38:35.87,14.64,-71.49,-991.37,17.50,-595.0,-393.75,1,94.294,
01/01/2000,01:38:35.88,14.64,-71.49,-991.62,122.50,-656.25,-262.50,1,94.229,
01/01/2000,01:38:35.89,14.64,-71.61,-991.49,175.0,-735.0,-402.50,1,94.234,
01/01/2000,01:38:35.90,14.76,-71.49,-991.37,105.0,-735.0,-358.75,1,94.238,
01/01/2000,01:38:35.91,14.64,-71.49,-991.25,122.50,-665.0,-323.75,1,94.242,
01/01/2000,01:38:35.92,14.64,-71.49,-991.25,43.75,-603.75,-332.50,1,94.246,
01/01/2000,01:38:35.93,14.64,-71.37,-991.49,140.0,-691.25,-323.75,1,94.250,
01/01/2000,01:38:35.94,14.64,-71.25,-991.49,183.75,-586.25,-288.75,1,94.255,
01/01/2000,01:38:35.96,14.40,-71.49,-991.13,157.50,-638.75,-350.0,1,94.259,
01/01/2000,01:38:35.97,14.40,-71.49,-991.25,52.50,-717.50,-385.0,1,94.263,
01/01/2000,01:38:35.98,14.40,-71.49,-991.37,297.50,-586.25,-358.75,1,94.267,
01/01/2000,01:38:35.99,14.64,-71.49,-991.37,113.75,-700.0,-385.0,1,94.203,
01/01/2000,01:38:36.00,14.64,-71.49,-991.13,113.75,-700.0,-306.25,1,94.207,
01/01/2000,01:38:36.02,14.52,-71.74,-991.25,192.50,-621.25,-446.25,1,94.211,
01/01/2000,01:38:36.02,14.52,-71.49,-991.37,210.0,-630.0,-341.25,1,94.215,
01/01/2000,01:38:36.04,14.52,-71.61,-991.37,376.25,-560.0,-385.0,1,94.220,
01/01/2000,01:38:36.05,14.40,-71.49,-991.49,122.50,-682.50,-227.50,1,94.224,
01/01/2000,01:38:36.06,14.40,-71.61,-991.37,105.0,-796.25,-376.25,1,94.228,
01/01/2000,01:38:36.07,14.40,-71.49,-991.37,201.25,-621.25,-297.50,1,94.232,
01/01/2000,01:38:36.08,14.40,-71.61,-991.25,227.50,-708.75,-297.50,1,94.236,
01/01/2000,01:38:36.09,14.64,-71.61,-991.37,183.75,-647.50,-323.75,1,94.240,
01/01/2000,01:38:36.10,14.64,-71.61,-991.49,131.25,-682.50,-376.25,1,94.245,
01/01/2000,01:38:36.11,14.40,-71.49,-991.37,87.50,-743.75,-376.25,1,94.249,
01/01/2000,01:38:36.12,14.40,-71.49,-991.13,201.25,-612.50,-358.75,1,94.253,
01/01/2000,01:38:36.13,14.52,-71.49,-991.25,122.50,-735.0,-341.25,1,94.257,
01/01/2000,01:38:36.14,14.64,-71.49,-991.25,253.75,-726.25,-288.75,1,94.261,
01/01/2000,01:38:36.15,14.64,-71.61,-991.25,166.25,-717.50,-332.50,1,94.265,
01/01/2000,01:38:36.16,14.40,-71.74,-991.25,210.0,-743.75,-323.75,1,94.269,
01/01/2000,01:38:36.17,14.52,-71.74,-991.13,131.25,-638.75,-385.0,1,94.273,
01/01/2000,01:38:36.18,14.64,-71.49,-991.25,183.75,-708.75,-297.50,1,94.278,
01/01/2000,01:38:36.19,14.64,-71.49,-991.37,122.50,-665.0,-385.0,1,94.282,
01/01/2000,01:38:36.20,14.64,-71.49,-991.25,175.0,-577.50,-402.50,1,94.286,
01/01/2000,01:38:36.21,14.52,-71.61,-991.13,105.0,-665.0,-323.75,1,94.290,
01/01/2000,01:38:36.22,14.64,-71.74,-991.13,131.25,-717.50,-472.50,1,94.294,
01/01/2000,01:38:36.23,14.64,-71.61,-991.01,122.50,-647.50,-358.75,1,94.298,
01/01/2000,01:38:36.24,14.52,-71.37,-991.01,166.25,-551.25,-297.50,1,94.235,
01/01/2000,01:38:36.25,14.64,-71.37,-991.13,157.50,-717.50,-367.50,1,94.239,
01/01/2000,01:38:36.26,14.52,-71.37,-991.13,148.75,-717.50,-306.25,1,94.243,
01/01/2000,01:38:36.27,14.64,-71.49,-991.13,166.25,-726.25,-350.0,1,94.247,
01/01/2000,01:38:36.28,14.64,-71.49,-991.13,35.0,-691.25,-367.50,1,94.251,
01/01/2000,01:38:36.29,14.64,-71.61,-991.25,253.75,-682.50,-385.0,1,94.255,
01/01/2000,01:38:36.31,14.64,-71.37,-991.25,0.0,-752.50,-393.75,1,94.259,
01/01/2000,01:38:36.32,14.64,-71.25,-991.37,17.50,-542.50,-332.50,1,94.263,
01/01/2000,01:38:36.33,14.76,-71.13,-991.25,-8.75,-770.0,-288.75,1,94.268,
01/01/2000,01:38:36.34,14.64,-71.49,-991.13,140.0,-682.50,-288.75,1,94.272,
01/01/2000,01:38:36.35,14.64,-71.37,-990.88,105.0,-717.50,-350.0,1,94.276,
01/01/2000,01:38:36.36,14.64,-71.74,-991.01,183.75,-691.25,-376.25,1,94.280,
01/01/2000,01:38:36.37,14.64,-71.49,-991.37,113.75,-682.50,-350.0,1,94.284,
01/01/2000,01:38:36.38,14.52,-71.49,-991.37,271.25,-700.0,-315.0,1,94.221,
01/01/2000,01:38:36.39,14.40,-71.37,-991.25,43.75,-673.75,-315.0,1,94.225,
01/01/2000,01:38:36.40,14.27,-71.49,-991.25,201.25,-726.25,-245.0,1,94.229,
01/01/2000,01:38:36.41,14.40,-71.49,-991.37,218.75,-621.25,-393.75,1,94.233,
01/01/2000,01:38:36.42,14.40,-71.74,-991.25,227.50,-761.25,-358.75,1,94.238,
01/01/2000,01:38:36.43,14.64,-71.61,-991.01,122.50,-603.75,-297.50,1,94.242,
01/01/2000,01:38:36.45,14.64,-71.49,-991.01,122.50,-682.50,-332.50,1,94.246,
01/01/2000,01:38:36.46,14.40,-71.61,-991.13,253.75,-735.0,-245.0,1,94.250,
01/01/2000,01:38:36.47,14.40,-71.61,-991.13,236.25,-682.50,-376.25,1,94.254,
01/01/2000,01:38:36.48,14.40,-71.49,-991.13,87.50,-621.25,-315.0,1,94.258,
01/01/2000,01:38:36.49,14.52,-71.61,-990.88,140.0,-770.0,-411.25,1,94.262,
01/01/2000,01:38:36.50,14.64,-71.61,-990.76,61.25,-726.25,-393.75,1,94.266,
01/01/2000,01:38:36.51,14.52,-71.61,-990.76,140.0,-752.50,-332.50,1,94.270,
01/01/2000,01:38:36.52,14.40,-71.61,-991.13,271.25,-700.0,-350.0,1,94.208,
01/01/2000,01:38:36.53,14.40,-71.49,-991.13,87.50,-691.25,-385.0,1,94.212,
01/01/2000,01:38:36.54,14.27,-71.49,-991.13,201.25,-621.25,-420.0,1,94.216,
01/01/2000,01:38:36.55,14.27,-71.49,-990.88,43.75,-735.0,-288.75,1,94.220,
01/01/2000,01:38:36.56,14.27,-71.49,-990.76,105.0,-743.75,-323.75,1,94.224,
01/01/2000,01:38:36.57,14.40,-71.49,-990.76,201.25,-682.50,-385.0,1,94.228,
01/01/2000,01:38:36.58,14.52,-71.61,-990.76,113.75,-717.50,-306.25,1,94.232,
01/01/2000,01:38:36.60,14.64,-71.61,-990.76,148.75,-708.75,-271.25,1,94.236,
01/01/2000,01:38:36.60,14.40,-71.37,-990.64,140.0,-647.50,-315.0,1,94.240,
01/01/2000,01:38:36.62,14.40,-71.25,-990.64,131.25,-708.75,-367.50,1,94.244,
01/01/2000,01:38:36.63,14.40,-71.49,-990.88,140.0,-717.50,-271.25,1,94.248,
01/01/2000,01:38:36.64,14.40,-71.37,-991.13,201.25,-700.0,-332.50,1,94.252,
01/01/2000,01:38:36.65,14.40,-71.61,-990.88,210.0,-743.75,-341.25,1,94.256,
01/01/2000,01:38:36.66,14.27,-71.49,-990.88,262.50,-612.50,-341.25,1,94.260,
01/01/2000,01:38:36.67,14.27,-71.37,-991.13,96.25,-735.0,-288.75,1,94.264,
01/01/2000,01:38:36.68,14.40,-71.25,-991.13,105.0,-708.75,-393.75,1,94.268,
01/01/2000,01:38:36.69,14.40,-71.25,-991.13,148.75,-595.0,-323.75,1,94.272,
01/01/2000,01:38:36.70,14.52,-71.37,-991.13,297.50,-673.75,-393.75,1,94.276,
01/01/2000,01:38:36.71,14.64,-71.49,-991.01,131.25,-708.75,-358.75,1,94.280,
01/01/2000,01:38:36.72,14.64,-71.37,-991.01,52.50,-735.0,-367.50,1,94.284,
01/01/2000,01:38:36.73,14.88,-71.37,-991.37,78.75,-621.25,-332.50,1,94.223,
01/01/2000,01:38:36.74,14.76,-71.25,-991.37,70.0,-700.0,-323.75,1,94.227,
01/01/2000,01:38:36.75,14.76,-71.25,-991.37,131.25,-735.0,-350.0,1,94.231,
01/01/2000,01:38:36.76,14.76,-71.25,-991.37,166.25,-743.75,-455.0,1,94.235,
01/01/2000,01:38:36.77,14.76,-71.37,-991.13,17.50,-691.25,-411.25,1,94.239,
01/01/2000,01:38:36.78,14.76,-71.49,-991.13,-26.25,-612.50,-350.0,1,94.243,
01/01/2000,01:38:36.79,14.76,-71.49,-991.13,113.75,-700.0,-376.25,1,94.247,
01/01/2000,01:38:36.81,14.52,-71.37,-991.13,262.50,-682.50,-420.0,1,94.251,
01/01/2000,01:38:36.82,14.52,-71.13,-991.25,78.75,-700.0,-297.50,1,94.254,
01/01/2000,01:38:36.83,14.64,-71.00,-991.01,70.0,-621.25,-323.75,1,94.258,
01/01/2000,01:38:36.84,14.64,-71.13,-990.88,253.75,-735.0,-306.25,1,94.262,
01/01/2000,01:38:36.85,14.64,-71.37,-990.88,183.75,-805.0,-341.25,1,94.266,
01/01/2000,01:38:36.86,14.52,-71.49,-990.88,218.75,-726.25,-288.75,1,94.270,
01/01/2000,01:38:36.87,14.64,-71.37,-990.88,70.0,-708.75,-315.0,1,94.274,
01/01/2000,01:38:36.88,14.76,-71.25,-991.01,218.75,-621.25,-358.75,1,94.278,
01/01/2000,01:38:36.89,14.64,-71.13,-991.01,61.25,-770.0,-306.25,1,94.282,
01/01/2000,01:38:36.90,14.52,-71.37,-991.01,183.75,-656.25,-315.0,1,94.286,
01/01/2000,01:38:36.91,14.52,-71.61,-991.01,192.50,-630.0,-323.75,1,94.290,
01/01/2000,01:38:36.92,14.64,-71.74,-991.01,166.25,-787.50,-297.50,1,94.293,
01/01/2000,01:38:36.93,14.52,-71.74,-991.01,131.25,-735.0,-385.0,1,94.297,
01/01/2000,01:38:36.95,14.52,-71.49,-990.88,218.75,-656.25,-306.25,1,94.237,
01/01/2000,01:38:36.96,14.64,-71.37,-990.76,166.25,-621.25,-262.50,1,94.241,
01/01/2000,01:38:36.97,14.64,-71.37,-990.76,210.0,-708.75,-393.75,1,94.245,
01/01/2000,01:38:36.98,14.64,-71.25,-990.76,262.50,-560.0,-411.25,1,94.249,
01/01/2000,01:38:36.99,14.64,-71.25,-990.64,78.75,-682.50,-367.50,1,94.253,
01/01/2000,01:38:37.00,14.52,-71.25,-990.76,131.25,-630.0,-315.0,1,94.257,
01/01/2000,01:38:37.01,14.40,-71.25,-990.76,87.50,-735.0,-341.25,1,94.197,
01/01/2000,01:38:37.02,14.40,-71.25,-990.88,183.75,-621.25,-341.25,1,94.201,
01/01/2000,01:38:37.03,14.40,-71.25,-990.88,166.25,-770.0,-411.25,1,94.205,
01/01/2000,01:38:37.04,14.40,-71.25,-990.88,262.50,-647.50,-332.50,1,94.209,
01/01/2000,01:38:37.05,14.40,-71.37,-990.64,113.75,-735.0,-297.50,1,94.213,
01/01/2000,01:38:37.06,14.40,-71.37,-990.64,140.0,-761.25,-315.0,1,94.217,
01/01/2000,01:38:37.08,14.40,-71.49,-990.52,271.25,-612.50,-358.75,1,94.220,
01/01/2000,01:38:37.09,14.40,-71.49,-990.64,218.75,-778.75,-245.0,1,94.224,
01/01/2000,01:38:37.10,14.40,-71.37,-990.64,96.25,-665.0,-306.25,1,94.228,
01/01/2000,01:38:37.11,14.40,-71.25,-990.64,262.50,-691.25,-376.25,1,94.232,
01/01/2000,01:38:37.12,14.52,-71.25,-990.64,183.75,-577.50,-358.75,1,94.236,
01/01/2000,01:38:37.13,14.64,-71.49,-990.64,52.50,-831.25,-323.75,1,94.240,
01/01/2000,01:38:37.14,14.52,-71.49,-990.52,218.75,-770.0,-385.0,1,94.244,
01/01/2000,01:38:37.15,14.64,-71.49,-990.64,43.75,-691.25,-262.50,1,94.247,
01/01/2000,01:38:37.16,14.64,-71.49,-990.88,157.50,-656.25,-315.0,1,94.251,
01/01/2000,01:38:37.17,14.64,-71.25,-991.01,61.25,-708.75,-350.0,1,94.255,
01/01/2000,01:38:37.18,14.52,-71.25,-991.01,201.25,-656.25,-288.75,1,94.259,
01/01/2000,01:38:37.19,14.52,-71.25,-990.88,131.25,-752.50,-350.0,1,94.263,
01/01/2000,01:38:37.20,14.64,-71.37,-990.76,183.75,-735.0,-358.75,1,94.267,
01/01/2000,01:38:37.21,14.76,-71.49,-990.76,96.25,-717.50,-297.50,1,94.270,
01/01/2000,01:38:37.22,14.76,-71.37,-990.76,140.0,-717.50,-376.25,1,94.274,
01/01/2000,01:38:37.23,14.64,-71.37,-990.76,183.75,-577.50,-341.25,1,94.215,
01/01/2000,01:38:37.24,14.52,-71.37,-990.88,140.0,-691.25,-376.25,1,94.219,
01/01/2000,01:38:37.25,14.64,-71.25,-990.88,183.75,-665.0,-393.75,1,94.223,
01/01/2000,01:38:37.26,14.76,-71.49,-991.01,166.25,-673.75,-385.0,1,94.227,
01/01/2000,01:38:37.27,14.76,-71.49,-990.88,175.0,-717.50,-332.50,1,94.231,
01/01/2000,01:38:37.28,14.64,-71.61,-990.88,245.0,-822.50,-315.0,1,94.235,
01/01/2000,01:38:37.30,14.64,-71.61,-990.88,183.75,-726.25,-420.0,1,94.238,
01/01/2000,01:38:37.31,14.52,-71.49,-990.88,245.0,-805.0,-341.25,1,94.242,
01/01/2000,01:38:37.32,14.52,-71.49,-991.01,227.50,-630.0,-245.0,1,94.246,
01/01/2000,01:38:37.33,14.52,-71.49,-990.88,245.0,-673.75,-323.75,1,94.250,
01/01/2000,01:38:37.34,14.40,-71.49,-990.88,262.50,-735.0,-271.25,1,94.254,
01/01/2000,01:38:37.35,14.52,-71.61,-990.88,297.50,-761.25,-341.25,1,94.257,
01/01/2000,01:38:37.36,14.64,-71.61,-991.01,52.50,-708.75,-350.0,1,94.261,
01/01/2000,01:38:37.37,14.76,-71.61,-991.01,17.50,-673.75,-306.25,1,94.265,
01/01/2000,01:38:37.38,14.64,-71.49,-990.88,122.50,-743.75,-323.75,1,94.269,
01/01/2000,01:38:37.39,14.64,-71.49,-991.01,140.0,-717.50,-315.0,1,94.273,
01/01/2000,01:38:37.40,14.64,-71.49,-990.88,245.0,-743.75,-402.50,1,94.276,
01/01/2000,01:38:37.41,14.76,-71.49,-990.88,236.25,-665.0,-332.50,1,94.280,
01/01/2000,01:38:37.42,14.76,-71.49,-991.01,157.50,-638.75,-245.0,1,94.284,
01/01/2000,01:38:37.43,14.88,-71.61,-991.13,122.50,-665.0,-341.25,1,94.288,
01/01/2000,01:38:37.44,14.76,-71.74,-991.01,218.75,-673.75,-437.50,1,94.230,
01/01/2000,01:38:37.45,14.88,-71.74,-990.88,131.25,-796.25,-332.50,1,94.233,
01/01/2000,01:38:37.46,14.88,-71.49,-990.88,148.75,-735.0,-350.0,1,94.237,
01/01/2000,01:38:37.47,14.88,-71.49,-990.88,61.25,-743.75,-315.0,1,94.241,
01/01/2000,01:38:37.48,14.88,-71.74,-990.64,96.25,-752.50,-350.0,1,94.245,
01/01/2000,01:38:37.49,14.76,-71.61,-990.52,148.75,-647.50,-350.0,1,94.248,
01/01/2000,01:38:37.51,14.76,-71.74,-990.52,113.75,-726.25,-323.75,1,94.252,
01/01/2000,01:38:37.52,14.64,-71.74,-990.76,280.0,-647.50,-280.0,1,94.194,
01/01/2000,01:38:37.53,14.64,-71.74,-990.88,105.0,-612.50,-402.50,1,94.198,
01/01/2000,01:38:37.54,14.52,-71.74,-990.88,87.50,-595.0,-210.0,1,94.202,
01/01/2000,01:38:37.55,14.64,-71.74,-990.88,175.0,-717.50,-280.0,1,94.206,
01/01/2000,01:38:37.56,14.64,-71.74,-990.88,148.75,-682.50,-411.25,1,94.209,
01/01/2000,01:38:37.57,14.76,-71.74,-990.88,280.0,-673.75,-455.0,1,94.213,
01/01/2000,01:38:37.58,14.52,-71.98,-990.88,140.0,-630.0,-402.50,1,94.217,
01/01/2000,01:38:37.59,14.40,-71.86,-990.88,192.50,-708.75,-507.50,1,94.221,
01/01/2000,01:38:37.60,14.40,-71.74,-990.88,157.50,-735.0,-376.25,1,94.225,
01/01/2000,01:38:37.62,14.52,-71.61,-991.01,148.75,-630.0,-332.50,1,94.228,
01/01/2000,01:38:37.62,14.64,-71.74,-990.88,113.75,-700.0,-306.25,1,94.232,
01/01/2000,01:38:37.64,14.52,-71.86,-990.88,70.0,-743.75,-341.25,1,94.236,
01/01/2000,01:38:37.65,14.27,-71.98,-990.76,201.25,-700.0,-472.50,1,94.239,
01/01/2000,01:38:37.66,14.40,-71.74,-990.76,105.0,-691.25,-350.0,1,94.243,
01/01/2000,01:38:37.67,14.64,-71.49,-990.76,245.0,-735.0,-323.75,1,94.247,
01/01/2000,01:38:37.68,14.64,-71.49,-990.76,210.0,-778.75,-297.50,1,94.251,
01/01/2000,01:38:37.69,14.64,-71.61,-990.64,183.75,-638.75,-385.0,1,94.254,
01/01/2000,01:38:37.70,14.40,-71.74,-990.64,183.75,-673.75,-350.0,1,94.258,
01/01/2000,01:38:37.71,14.40,-71.86,-990.76,140.0,-691.25,-350.0,1,94.262,
01/01/2000,01:38:37.72,14.52,-71.86,-990.88,43.75,-708.75,-385.0,1,94.265,
01/01/2000,01:38:37.73,14.40,-71.74,-990.76,218.75,-717.50,-323.75,1,94.269,
01/01/2000,01:38:37.74,14.40,-71.74,-990.64,140.0,-682.50,-367.50,1,94.273,
01/01/2000,01:38:37.75,14.40,-71.74,-990.64,122.50,-612.50,-306.25,1,94.277,
01/01/2000,01:38:37.76,14.40,-71.86,-990.64,227.50,-708.75,-271.25,1,94.280,
01/01/2000,01:38:37.77,14.64,-71.98,-990.64,192.50,-752.50,-376.25,1,94.284,
01/01/2000,01:38:37.78,14.64,-71.98,-990.76,105.0,-647.50,-315.0,1,94.288,
01/01/2000,01:38:37.79,14.76,-71.61,-990.64,166.25,-673.75,-315.0,1,94.231,
01/01/2000,01:38:37.80,14.64,-71.49,-990.64,210.0,-735.0,-245.0,1,94.234,
01/01/2000,01:38:37.81,14.64,-71.25,-990.76,201.25,-700.0,-437.50,1,94.238,
01/01/2000,01:38:37.82,14.64,-71.25,-990.76,192.50,-665.0,-262.50,1,94.242,
01/01/2000,01:38:37.83,14.64,-71.37,-990.76,122.50,-673.75,-288.75,1,94.246,
01/01/2000,01:38:37.84,14.64,-71.49,-990.88,262.50,-778.75,-367.50,1,94.249,
01/01/2000,01:38:37.85,14.64,-71.49,-990.88,166.25,-770.0,-376.25,1,94.253,
01/01/2000,01:38:37.87,14.64,-71.25,-990.88,175.0,-752.50,-306.25,1,94.257,
01/01/2000,01:38:37.88,14.52,-71.13,-990.88,166.25,-726.25,-315.0,1,94.260,
01/01/2000,01:38:37.89,14.40,-71.25,-990.88,122.50,-638.75,-288.75,1,94.264,
01/01/2000,01:38:37.90,14.40,-71.25,-990.88,175.0,-752.50,-341.25,1,94.268,
01/01/2000,01:38:37.91,14.52,-71.49,-990.88,35.0,-708.75,-288.75,1,94.271,
01/01/2000,01:38:37.92,14.64,-71.25,-990.88,166.25,-761.25,-297.50,1,94.275,
01/01/2000,01:38:37.93,14.64,-71.37,-990.88,148.75,-638.75,-236.25,1,94.219,
01/01/2000,01:38:37.94,14.40,-71.25,-991.13,236.25,-726.25,-271.25,1,94.222,
01/01/2000,01:38:37.95,14.52,-71.25,-991.25,218.75,-700.0,-332.50,1,94.226,
01/01/2000,01:38:37.96,14.64,-71.25,-991.25,87.50,-700.0,-411.25,1,94.230,
01/01/2000,01:38:37.97,14.64,-71.13,-991.01,166.25,-805.0,-280.0,1,94.233,
01/01/2000,01:38:37.98,14.88,-71.37,-990.88,113.75,-630.0,-332.50,1,94.237,
01/01/2000,01:38:37.99,14.64,-71.61,-990.88,210.0,-761.25,-411.25,1,94.241,
01/01/2000,01:38:38.01,14.64,-71.74,-991.01,166.25,-726.25,-376.25,1,94.244,
01/01/2000,01:38:38.02,14.64,-71.49,-990.88,140.0,-665.0,-367.50,1,94.248,
01/01/2000,01:38:38.03,14.40,-71.37,-990.76,105.0,-638.75,-297.50,1,94.251,
01/01/2000,01:38:38.04,14.40,-71.49,-990.76,113.75,-726.25,-341.25,1,94.255,
01/01/2000,01:38:38.05,14.40,-71.74,-990.76,140.0,-691.25,-393.75,1,94.199,
01/01/2000,01:38:38.06,14.40,-71.74,-990.88,96.25,-735.0,-262.50,1,94.262,
01/01/2000,01:38:38.07,14.40,-71.61,-990.88,70.0,-603.75,-341.25,1,94.207,
01/01/2000,01:38:38.08,14.52,-71.49,-990.64,105.0,-647.50,-428.75,1,94.210,
01/01/2000,01:38:38.09,14.40,-71.25,-990.64,148.75,-708.75,-367.50,1,94.214,
01/01/2000,01:38:38.10,14.40,-71.25,-990.64,52.50,-743.75,-341.25,1,94.217,
01/01/2000,01:38:38.11,14.40,-71.49,-990.76,157.50,-577.50,-201.25,1,94.221,
01/01/2000,01:38:38.12,14.52,-71.61,-990.64,210.0,-656.25,-376.25,1,94.225,
01/01/2000,01:38:38.13,14.64,-71.49,-990.64,201.25,-700.0,-385.0,1,94.228,
01/01/2000,01:38:38.15,14.52,-71.49,-990.52,201.25,-673.75,-306.25,1,94.232,
01/01/2000,01:38:38.15,14.52,-71.49,-990.64,52.50,-735.0,-446.25,1,94.236,
01/01/2000,01:38:38.17,14.64,-71.61,-990.88,140.0,-682.50,-323.75,1,94.239,
01/01/2000,01:38:38.17,14.64,-71.61,-991.13,122.50,-630.0,-393.75,1,94.243,
01/01/2000,01:38:38.19,14.40,-71.49,-991.01,8.75,-621.25,-358.75,1,94.246,
01/01/2000,01:38:38.20,14.40,-71.61,-990.88,157.50,-621.25,-332.50,1,94.250,
01/01/2000,01:38:38.21,14.52,-71.61,-990.76,61.25,-665.0,-280.0,1,94.254,
01/01/2000,01:38:38.22,14.64,-71.74,-990.88,113.75,-735.0,-393.75,1,94.257,
01/01/2000,01:38:38.23,14.76,-71.74,-990.88,70.0,-778.75,-367.50,1,94.261,
01/01/2000,01:38:38.24,14.52,-71.86,-991.01,183.75,-726.25,-332.50,1,94.264,
01/01/2000,01:38:38.25,14.27,-71.74,-991.01,210.0,-761.25,-393.75,1,94.268,
01/01/2000,01:38:38.26,14.40,-71.37,-991.13,26.25,-700.0,-253.75,1,94.271,
01/01/2000,01:38:38.27,14.64,-71.37,-991.01,61.25,-665.0,-201.25,1,94.275,
01/01/2000,01:38:38.28,14.76,-71.25,-991.01,148.75,-708.75,-253.75,1,94.279,
01/01/2000,01:38:38.29,14.76,-71.74,-990.88,122.50,-726.25,-393.75,1,94.282,
01/01/2000,01:38:38.30,14.64,-71.74,-991.13,78.75,-586.25,-376.25,1,94.286,
01/01/2000,01:38:38.31,14.64,-71.49,-991.01,192.50,-656.25,-446.25,1,94.289,
01/01/2000,01:38:38.32,14.76,-71.25,-991.13,-17.50,-752.50,-315.0,1,94.293,
01/01/2000,01:38:38.33,14.76,-71.13,-991.13,358.75,-621.25,-288.75,1,94.296,
01/01/2000,01:38:38.34,14.76,-71.13,-991.25,131.25,-700.0,-288.75,1,94.300,
01/01/2000,01:38:38.35,14.52,-71.49,-991.13,140.0,-735.0,-385.0,1,94.245,
01/01/2000,01:38:38.36,14.76,-71.61,-991.13,280.0,-726.25,-420.0,1,94.249,
01/01/2000,01:38:38.37,14.88,-71.49,-990.88,201.25,-595.0,-455.0,1,94.252,
01/01/2000,01:38:38.38,14.88,-71.37,-990.88,78.75,-717.50,-288.75,1,94.256,
01/01/2000,01:38:38.39,14.64,-71.49,-990.88,227.50,-743.75,-306.25,1,94.259,
01/01/2000,01:38:38.40,14.40,-71.61,-991.13,105.0,-717.50,-323.75,1,94.263,
01/01/2000,01:38:38.42,14.40,-71.61,-991.13,306.25,-673.75,-306.25,1,94.266,
01/01/2000,01:38:38.43,14.40,-71.49,-991.13,175.0,-822.50,-402.50,1,94.270,
01/01/2000,01:38:38.44,14.52,-71.25,-991.01,131.25,-726.25,-315.0,1,94.273,
01/01/2000,01:38:38.45,14.40,-71.49,-990.88,148.75,-673.75,-306.25,1,94.277,
01/01/2000,01:38:38.46,14.64,-71.49,-991.01,218.75,-560.0,-437.50,1,94.280,
01/01/2000,01:38:38.47,14.52,-71.74,-991.13,245.0,-656.25,-411.25,1,94.284,
01/01/2000,01:38:38.48,14.40,-71.49,-991.01,280.0,-717.50,-411.25,1,94.287,
01/01/2000,01:38:38.49,14.40,-71.25,-990.88,131.25,-665.0,-455.0,1,94.233,
01/01/2000,01:38:38.50,14.52,-71.13,-991.01,122.50,-551.25,-297.50,1,94.237,
01/01/2000,01:38:38.51,14.52,-71.25,-991.01,183.75,-717.50,-210.0,1,94.240,
01/01/2000,01:38:38.52,14.40,-71.74,-991.13,166.25,-691.25,-332.50,1,94.244,
01/01/2000,01:38:38.53,14.27,-71.74,-991.13,183.75,-770.0,-411.25,1,94.247,
01/01/2000,01:38:38.55,14.52,-71.61,-991.25,236.25,-743.75,-376.25,1,94.251,
01/01/2000,01:38:38.56,14.64,-71.37,-991.13,70.0,-656.25,-253.75,1,94.254,
01/01/2000,01:38:38.57,14.52,-71.61,-991.13,78.75,-726.25,-341.25,1,94.258,
01/01/2000,01:38:38.58,14.27,-71.61,-991.13,280.0,-752.50,-385.0,1,94.261,
01/01/2000,01:38:38.59,14.15,-71.74,-991.25,157.50,-647.50,-428.75,1,94.265,
01/01/2000,01:38:38.60,14.15,-71.74,-991.37,131.25,-691.25,-437.50,1,94.268,
01/01/2000,01:38:38.61,14.40,-71.74,-991.13,166.25,-656.25,-315.0,1,94.272,
01/01/2000,01:38:38.62,14.40,-71.49,-990.88,253.75,-743.75,-306.25,1,94.275,
01/01/2000,01:38:38.63,14.40,-71.61,-990.76,236.25,-717.50,-236.25,1,94.279,
01/01/2000,01:38:38.64,14.27,-71.74,-991.01,131.25,-647.50,-315.0,1,94.282,
01/01/2000,01:38:38.65,14.27,-71.74,-991.13,271.25,-638.75,-385.0,1,94.286,
01/01/2000,01:38:38.66,14.27,-71.74,-991.25,157.50,-560.0,-332.50,1,94.289,
01/01/2000,01:38:38.67,14.27,-71.49,-991.13,183.75,-586.25,-323.75,1,94.293,
01/01/2000,01:38:38.68,14.40,-71.49,-991.01,87.50,-770.0,-332.50,1,94.239,
01/01/2000,01:38:38.69,14.40,-71.74,-991.01,113.75,-665.0,-350.0,1,94.300,
01/01/2000,01:38:38.71,14.40,-71.86,-991.13,140.0,-717.50,-297.50,1,94.246,
01/01/2000,01:38:38.72,14.40,-71.98,-991.13,105.0,-656.25,-323.75,1,94.249,
01/01/2000,01:38:38.73,14.40,-71.74,-990.88,140.0,-673.75,-393.75,1,94.253,
01/01/2000,01:38:38.74,14.27,-71.74,-990.88,166.25,-726.25,-350.0,1,94.256,
01/01/2000,01:38:38.75,14.15,-71.37,-991.13,175.0,-665.0,-315.0,1,94.260,
01/01/2000,01:38:38.76,14.15,-71.37,-991.13,227.50,-682.50,-323.75,1,94.263,
01/01/2000,01:38:38.77,14.40,-71.49,-991.01,61.25,-682.50,-253.75,1,94.267,
01/01/2000,01:38:38.78,14.40,-71.74,-990.76,61.25,-673.75,-402.50,1,94.270,
01/01/2000,01:38:38.79,14.40,-71.74,-990.76,192.50,-770.0,-341.25,1,94.274,
01/01/2000,01:38:38.80,14.40,-71.61,-991.01,87.50,-682.50,-236.25,1,94.277,
01/01/2000,01:38:38.81,14.52,-71.74,-991.37,157.50,-621.25,-253.75,1,94.281,
01/01/2000,01:38:38.82,14.52,-71.61,-991.49,227.50,-682.50,-297.50,1,94.284,
01/01/2000,01:38:38.83,14.52,-71.49,-991.25,201.25,-726.25,-341.25,1,94.287,
01/01/2000,01:38:38.84,14.64,-71.49,-991.13,218.75,-665.0,-341.25,1,94.291,
01/01/2000,01:38:38.85,14.64,-71.61,-991.13,297.50,-586.25,-262.50,1,94.238,
01/01/2000,01:38:38.86,14.64,-71.74,-991.13,271.25,-665.0,-332.50,1,94.241,
01/01/2000,01:38:38.87,14.52,-71.61,-991.13,78.75,-761.25,-280.0,1,94.245,
01/01/2000,01:38:38.88,14.52,-71.49,-991.01,192.50,-621.25,-306.25,1,94.248,
01/01/2000,01:38:38.89,14.64,-71.37,-991.01,183.75,-717.50,-306.25,1,94.251,
01/01/2000,01:38:38.90,14.64,-71.49,-990.88,192.50,-630.0,-253.75,1,94.255,
01/01/2000,01:38:38.92,14.64,-71.74,-990.76,236.25,-708.75,-367.50,1,94.258,
01/01/2000,01:38:38.93,14.64,-71.74,-990.76,105.0,-743.75,-332.50,1,94.262,
