rtcDate,rtcTime,aX,aY,aZ,gX,gY,gZ,dataRdy,output_Hz,
01/01/2000,01:21:08.13,17.32,-51.97,-854.24,253.75,-665.0,-472.50,1,0.0,
01/01/2000,01:21:08.14,17.81,-53.80,-886.21,271.25,-647.50,-332.50,1,100.0,
01/01/2000,01:21:08.15,18.06,-55.02,-905.00,166.25,-743.75,-358.75,1,100.0,
01/01/2000,01:21:08.16,18.42,-55.75,-915.61,166.25,-752.50,-271.25,1,100.0,
01/01/2000,01:21:08.17,18.54,-56.24,-925.00,183.75,-673.75,-376.25,1,100.0,
01/01/2000,01:21:08.18,18.67,-56.85,-933.18,201.25,-682.50,-306.25,1,100.0,
01/01/2000,01:21:08.20,19.03,-57.34,-944.04,87.50,-656.25,-367.50,1,100.0,
01/01/2000,01:21:08.21,19.15,-57.58,-950.14,70.0,-603.75,-411.25,1,100.0,
01/01/2000,01:21:08.22,19.28,-57.83,-955.38,262.50,-647.50,-341.25,1,100.0,
01/01/2000,01:21:08.23,19.28,-57.95,-960.02,113.75,-735.0,-385.0,1,100.0,
01/01/2000,01:21:08.24,19.40,-58.44,-965.75,122.50,-682.50,-210.0,1,100.0,
01/01/2000,01:21:08.25,19.52,-58.68,-969.17,218.75,-761.25,-288.75,1,100.0,
01/01/2000,01:21:08.26,19.76,-58.80,-972.10,183.75,-743.75,-385.0,1,100.0,
01/01/2000,01:21:08.27,19.89,-59.05,-974.54,175.0,-691.25,-315.0,1,100.0,
01/01/2000,01:21:08.28,19.76,-59.29,-977.83,201.25,-726.25,-393.75,1,100.0,
01/01/2000,01:21:08.29,19.64,-59.54,-979.66,157.50,-813.75,-332.50,1,100.0,
01/01/2000,01:21:08.30,19.89,-59.54,-981.49,227.50,-682.50,-262.50,1,100.0,
01/01/2000,01:21:08.31,20.01,-59.66,-983.08,201.25,-717.50,-385.0,1,100.0,
01/01/2000,01:21:08.32,20.01,-60.02,-984.78,262.50,-630.0,-332.50,1,100.0,
01/01/2000,01:21:08.33,20.01,-60.02,-985.76,183.75,-691.25,-411.25,1,100.0,
01/01/2000,01:21:08.34,20.01,-59.90,-986.98,131.25,-691.25,-297.50,1,100.0,
01/01/2000,01:21:08.35,20.13,-59.78,-987.96,297.50,-752.50,-323.75,1,100.0,
01/01/2000,01:21:08.36,20.25,-60.02,-988.69,157.50,-542.50,-306.25,1,100.0,
01/01/2000,01:21:08.37,20.13,-60.15,-989.18,131.25,-726.25,-411.25,1,100.0,
01/01/2000,01:21:08.38,20.01,-60.27,-989.66,315.0,-726.25,-341.25,1,100.0,
01/01/2000,01:21:08.39,20.13,-60.39,-990.27,105.0,-778.75,-367.50,1,100.0,
01/01/2000,01:21:08.40,20.13,-60.39,-990.64,157.50,-638.75,-341.25,1,100.0,
01/01/2000,01:21:08.42,20.01,-60.27,-991.13,26.25,-673.75,-280.0,1,96.552,
01/01/2000,01:21:08.43,20.01,-60.27,-991.37,315.0,-752.50,-341.25,1,96.667,
01/01/2000,01:21:08.44,20.01,-60.39,-991.62,280.0,-743.75,-341.25,1,96.774,
01/01/2000,01:21:08.45,20.01,-60.39,-991.86,218.75,-700.0,-227.50,1,96.875,
01/01/2000,01:21:08.46,20.01,-60.39,-992.10,148.75,-848.75,-323.75,1,96.970,
01/01/2000,01:21:08.47,20.01,-60.27,-992.10,157.50,-673.75,-262.50,1,97.059,
01/01/2000,01:21:08.48,19.89,-60.27,-992.35,192.50,-656.25,-262.50,1,97.143,
01/01/2000,01:21:08.49,19.89,-60.39,-992.47,183.75,-840.0,-350.0,1,97.222,
01/01/2000,01:21:08.50,20.13,-60.27,-992.59,192.50,-770.0,-332.50,1,97.297,
01/01/2000,01:21:08.51,20.13,-60.39,-992.47,122.50,-700.0,-262.50,1,97.368,
01/01/2000,01:21:08.52,20.01,-60.27,-992.35,140.0,-638.75,-288.75,1,97.436,
01/01/2000,01:21:08.53,20.01,-60.51,-992.47,70.0,-866.25,-420.0,1,97.500,
01/01/2000,01:21:08.54,20.01,-60.39,-992.59,-35.0,-630.0,-332.50,1,97.561,
01/01/2000,01:21:08.55,20.13,-60.51,-992.59,192.50,-665.0,-332.50,1,95.349,
01/01/2000,01:21:08.56,20.01,-60.51,-992.59,78.75,-673.75,-280.0,1,95.455,
01/01/2000,01:21:08.57,20.01,-60.76,-992.71,236.25,-656.25,-411.25,1,95.556,
01/01/2000,01:21:08.58,20.01,-60.76,-992.84,201.25,-717.50,-367.50,1,95.652,
01/01/2000,01:21:08.59,20.13,-60.76,-992.96,245.0,-717.50,-367.50,1,95.745,
01/01/2000,01:21:08.60,20.25,-60.51,-993.08,140.0,-752.50,-420.0,1,95.833,
01/01/2000,01:21:08.61,20.25,-60.63,-992.96,192.50,-717.50,-341.25,1,95.918,
01/01/2000,01:21:08.63,20.25,-60.63,-992.84,148.75,-560.0,-367.50,1,96.0,
01/01/2000,01:21:08.64,20.25,-60.63,-992.84,113.75,-638.75,-393.75,1,96.078,
01/01/2000,01:21:08.65,20.13,-60.51,-993.08,96.25,-743.75,-376.25,1,96.154,
01/01/2000,01:21:08.66,20.13,-60.39,-993.20,210.0,-630.0,-367.50,1,94.444,
01/01/2000,01:21:08.67,20.01,-60.27,-993.32,210.0,-638.75,-341.25,1,94.545,
01/01/2000,01:21:08.68,20.01,-60.27,-993.20,113.75,-516.25,-332.50,1,94.643,
01/01/2000,01:21:08.69,20.01,-60.51,-993.20,201.25,-647.50,-393.75,1,94.737,
01/01/2000,01:21:08.70,20.01,-60.51,-993.08,210.0,-708.75,-350.0,1,94.828,
01/01/2000,01:21:08.71,20.01,-60.51,-993.08,157.50,-752.50,-306.25,1,94.915,
01/01/2000,01:21:08.72,20.01,-60.51,-992.96,253.75,-568.75,-437.50,1,95.0,
01/01/2000,01:21:08.73,20.13,-60.51,-993.08,122.50,-700.0,-402.50,1,95.082,
01/01/2000,01:21:08.74,20.13,-60.51,-993.08,166.25,-735.0,-350.0,1,95.161,
01/01/2000,01:21:08.75,20.25,-60.39,-993.20,122.50,-638.75,-463.75,1,95.238,
01/01/2000,01:21:08.77,20.25,-60.39,-993.08,96.25,-673.75,-297.50,1,95.313,
01/01/2000,01:21:08.78,20.25,-60.51,-993.08,122.50,-638.75,-367.50,1,95.385,
01/01/2000,01:21:08.79,20.25,-60.51,-993.32,201.25,-735.0,-367.50,1,95.455,
01/01/2000,01:21:08.80,20.25,-60.51,-993.32,245.0,-708.75,-376.25,1,95.522,
01/01/2000,01:21:08.81,20.13,-60.63,-993.32,52.50,-665.0,-306.25,1,95.588,
01/01/2000,01:21:08.82,20.25,-60.51,-993.08,105.0,-717.50,-358.75,1,95.652,
01/01/2000,01:21:08.83,20.13,-60.63,-993.20,236.25,-673.75,-306.25,1,95.714,
01/01/2000,01:21:08.84,20.01,-60.76,-992.96,122.50,-735.0,-385.0,1,95.775,
01/01/2000,01:21:08.85,20.01,-60.76,-992.84,175.0,-787.50,-358.75,1,95.833,
01/01/2000,01:21:08.86,20.01,-60.51,-992.84,166.25,-621.25,-385.0,1,95.890,
01/01/2000,01:21:08.87,20.01,-60.51,-992.84,166.25,-717.50,-306.25,1,95.946,
01/01/2000,01:21:08.88,20.01,-60.51,-992.84,192.50,-595.0,-341.25,1,96.0,
01/01/2000,01:21:08.89,20.01,-60.63,-992.84,218.75,-700.0,-367.50,1,96.053,
01/01/2000,01:21:08.90,20.13,-60.76,-992.84,157.50,-612.50,-227.50,1,94.872,
01/01/2000,01:21:08.91,20.25,-60.76,-992.84,253.75,-656.25,-306.25,1,94.937,
01/01/2000,01:21:08.92,20.25,-60.63,-992.71,105.0,-682.50,-236.25,1,95.0,
01/01/2000,01:21:08.93,20.13,-60.63,-992.59,271.25,-787.50,-227.50,1,95.062,
01/01/2000,01:21:08.94,20.25,-60.63,-992.71,192.50,-647.50,-271.25,1,95.122,
01/01/2000,01:21:08.95,20.13,-60.51,-992.71,26.25,-717.50,-376.25,1,95.181,
01/01/2000,01:21:08.96,20.37,-60.51,-992.71,210.0,-700.0,-323.75,1,95.238,
01/01/2000,01:21:08.98,20.37,-60.63,-992.71,140.0,-577.50,-385.0,1,95.294,
01/01/2000,01:21:08.99,20.25,-60.51,-992.71,131.25,-770.0,-315.0,1,95.349,
01/01/2000,01:21:09.00,20.25,-60.39,-992.84,157.50,-638.75,-385.0,1,95.402,
01/01/2000,01:21:09.01,20.13,-60.15,-992.84,96.25,-621.25,-323.75,1,95.455,
01/01/2000,01:21:09.02,20.25,-60.15,-992.96,166.25,-700.0,-341.25,1,95.506,
01/01/2000,01:21:09.03,20.25,-60.15,-992.84,113.75,-673.75,-402.50,1,95.556,
01/01/2000,01:21:09.04,20.13,-60.39,-992.71,218.75,-691.25,-323.75,1,95.604,
01/01/2000,01:21:09.05,20.13,-60.51,-992.84,183.75,-708.75,-367.50,1,95.652,
01/01/2000,01:21:09.06,20.25,-60.51,-993.08,140.0,-603.75,-358.75,1,95.699,
01/01/2000,01:21:09.07,20.37,-60.51,-993.20,175.0,-621.25,-323.75,1,95.745,
01/01/2000,01:21:09.08,20.25,-60.27,-993.20,192.50,-665.0,-297.50,1,95.789,
01/01/2000,01:21:09.09,20.25,-60.39,-993.08,105.0,-682.50,-306.25,1,95.833,
01/01/2000,01:21:09.10,20.25,-60.39,-992.84,175.0,-630.0,-236.25,1,95.876,
01/01/2000,01:21:09.12,20.37,-60.39,-993.08,175.0,-700.0,-420.0,1,94.949,
01/01/2000,01:21:09.13,20.37,-60.39,-993.08,201.25,-752.50,-358.75,1,95.0,
01/01/2000,01:21:09.14,20.25,-60.51,-992.96,35.0,-787.50,-332.50,1,95.050,
01/01/2000,01:21:09.15,20.25,-60.39,-992.96,61.25,-647.50,-218.75,1,95.098,
01/01/2000,01:21:09.16,20.25,-60.39,-993.08,175.0,-673.75,-341.25,1,95.146,
01/01/2000,01:21:09.17,20.25,-60.39,-993.08,157.50,-621.25,-288.75,1,95.192,
01/01/2000,01:21:09.18,20.25,-60.51,-993.08,122.50,-621.25,-402.50,1,95.238,
01/01/2000,01:21:09.19,20.13,-60.51,-993.08,87.50,-752.50,-376.25,1,94.393,
01/01/2000,01:21:09.20,20.01,-60.51,-992.96,166.25,-665.0,-393.75,1,94.444,
01/01/2000,01:21:09.21,20.01,-60.27,-993.08,105.0,-621.25,-271.25,1,94.495,
01/01/2000,01:21:09.22,20.13,-60.27,-993.08,140.0,-700.0,-367.50,1,94.545,
01/01/2000,01:21:09.23,20.01,-60.51,-992.96,227.50,-638.75,-393.75,1,94.595,
01/01/2000,01:21:09.24,20.01,-60.76,-993.08,122.50,-656.25,-350.0,1,94.643,
01/01/2000,01:21:09.25,20.13,-60.76,-992.96,122.50,-700.0,-271.25,1,94.690,
01/01/2000,01:21:09.26,20.25,-60.63,-992.96,0.0,-682.50,-376.25,1,94.737,
01/01/2000,01:21:09.27,20.13,-60.51,-992.84,-17.50,-673.75,-315.0,1,94.783,
01/01/2000,01:21:09.28,20.13,-60.63,-992.84,166.25,-726.25,-201.25,1,94.828,
01/01/2000,01:21:09.29,20.01,-60.51,-992.84,218.75,-770.0,-402.50,1,94.872,
01/01/2000,01:21:09.30,20.01,-60.51,-992.84,183.75,-761.25,-271.25,1,94.915,
01/01/2000,01:21:09.31,20.01,-60.63,-992.84,113.75,-647.50,-271.25,1,94.958,
01/01/2000,01:21:09.33,20.13,-60.51,-992.59,157.50,-673.75,-262.50,1,95.0,
01/01/2000,01:21:09.34,20.13,-60.27,-992.47,52.50,-735.0,-280.0,1,95.041,
01/01/2000,01:21:09.35,20.01,-60.51,-992.59,131.25,-638.75,-350.0,1,95.082,
01/01/2000,01:21:09.36,20.01,-60.51,-992.96,332.50,-752.50,-306.25,1,95.122,
01/01/2000,01:21:09.37,20.13,-60.51,-992.96,105.0,-595.0,-341.25,1,95.161,
01/01/2000,01:21:09.38,20.13,-60.51,-992.84,183.75,-717.50,-358.75,1,95.200,
01/01/2000,01:21:09.39,20.25,-60.63,-992.71,140.0,-787.50,-463.75,1,95.238,
01/01/2000,01:21:09.40,20.13,-60.51,-992.71,192.50,-647.50,-341.25,1,95.276,
01/01/2000,01:21:09.41,20.25,-60.51,-992.59,166.25,-735.0,-376.25,1,95.313,
01/01/2000,01:21:09.42,20.25,-60.51,-992.71,78.75,-735.0,-428.75,1,95.349,
01/01/2000,01:21:09.43,20.13,-60.51,-992.71,218.75,-735.0,-385.0,1,95.385,
01/01/2000,01:21:09.44,20.01,-60.39,-992.71,157.50,-743.75,-367.50,1,95.420,
01/01/2000,01:21:09.45,20.13,-60.39,-992.59,70.0,-708.75,-350.0,1,95.455,
01/01/2000,01:21:09.46,20.25,-60.39,-992.59,140.0,-700.0,-376.25,1,94.776,
01/01/2000,01:21:09.47,20.13,-60.39,-992.59,280.0,-743.75,-376.25,1,94.815,
01/01/2000,01:21:09.48,20.13,-60.27,-992.71,87.50,-717.50,-341.25,1,94.853,
01/01/2000,01:21:09.49,20.01,-60.15,-992.71,218.75,-770.0,-350.0,1,94.891,
01/01/2000,01:21:09.50,20.13,-60.15,-992.71,26.25,-700.0,-236.25,1,94.928,
01/01/2000,01:21:09.51,20.01,-60.27,-992.71,131.25,-752.50,-323.75,1,94.964,
01/01/2000,01:21:09.52,20.01,-60.27,-992.71,183.75,-586.25,-271.25,1,95.0,
01/01/2000,01:21:09.54,20.01,-60.27,-992.59,210.0,-656.25,-341.25,1,95.035,
01/01/2000,01:21:09.55,19.89,-60.02,-992.59,183.75,-805.0,-315.0,1,95.070,
01/01/2000,01:21:09.56,19.76,-60.27,-992.71,183.75,-778.75,-341.25,1,95.105,
01/01/2000,01:21:09.57,20.01,-60.15,-992.71,140.0,-770.0,-297.50,1,95.139,
01/01/2000,01:21:09.58,20.01,-60.15,-992.84,253.75,-691.25,-367.50,1,95.172,
01/01/2000,01:21:09.59,20.13,-60.15,-992.84,105.0,-656.25,-376.25,1,95.205,
01/01/2000,01:21:09.60,20.13,-60.27,-992.71,271.25,-638.75,-280.0,1,95.238,
01/01/2000,01:21:09.61,20.13,-60.27,-992.71,192.50,-682.50,-315.0,1,95.270,
01/01/2000,01:21:09.62,20.13,-60.15,-992.71,78.75,-805.0,-288.75,1,95.302,
01/01/2000,01:21:09.63,20.13,-60.27,-992.84,306.25,-638.75,-358.75,1,95.333,
01/01/2000,01:21:09.64,20.01,-60.15,-992.84,262.50,-691.25,-420.0,1,95.364,
01/01/2000,01:21:09.65,20.01,-60.27,-992.71,350.0,-700.0,-358.75,1,95.395,
01/01/2000,01:21:09.66,19.89,-60.27,-992.59,166.25,-761.25,-446.25,1,95.425,
01/01/2000,01:21:09.68,20.01,-60.27,-992.59,61.25,-735.0,-393.75,1,94.839,
01/01/2000,01:21:09.69,19.89,-60.27,-992.59,183.75,-805.0,-332.50,1,94.872,
01/01/2000,01:21:09.70,19.89,-60.27,-992.59,105.0,-612.50,-323.75,1,94.904,
01/01/2000,01:21:09.71,20.01,-60.51,-992.59,262.50,-665.0,-306.25,1,94.937,
01/01/2000,01:21:09.72,20.01,-60.51,-992.71,183.75,-770.0,-358.75,1,94.969,
01/01/2000,01:21:09.73,20.01,-60.51,-992.84,192.50,-647.50,-323.75,1,95.0,
01/01/2000,01:21:09.74,20.01,-60.51,-992.71,253.75,-665.0,-350.0,1,95.031,
01/01/2000,01:21:09.75,20.01,-60.51,-992.59,271.25,-752.50,-332.50,1,95.062,
01/01/2000,01:21:09.76,20.01,-60.51,-992.71,166.25,-787.50,-358.75,1,94.512,
01/01/2000,01:21:09.77,20.13,-60.39,-992.71,131.25,-595.0,-306.25,1,95.122,
01/01/2000,01:21:09.78,20.25,-60.51,-992.59,122.50,-752.50,-323.75,1,94.578,
01/01/2000,01:21:09.79,20.25,-60.63,-992.59,78.75,-621.25,-323.75,1,94.611,
01/01/2000,01:21:09.80,20.25,-60.63,-992.59,61.25,-638.75,-323.75,1,94.643,
01/01/2000,01:21:09.81,20.25,-60.63,-992.47,157.50,-691.25,-411.25,1,94.675,
01/01/2000,01:21:09.82,20.25,-60.27,-992.59,96.25,-656.25,-376.25,1,94.706,
01/01/2000,01:21:09.83,20.13,-60.27,-992.84,201.25,-708.75,-367.50,1,94.737,
01/01/2000,01:21:09.84,20.01,-60.15,-992.84,175.0,-735.0,-350.0,1,94.767,
01/01/2000,01:21:09.85,20.01,-60.39,-992.59,52.50,-726.25,-393.75,1,94.798,
01/01/2000,01:21:09.86,19.89,-60.51,-992.47,131.25,-638.75,-332.50,1,94.828,
01/01/2000,01:21:09.87,19.89,-60.63,-992.59,78.75,-586.25,-367.50,1,94.857,
01/01/2000,01:21:09.89,20.13,-60.15,-992.84,-17.50,-647.50,-271.25,1,94.886,
01/01/2000,01:21:09.90,20.25,-60.15,-992.84,78.75,-840.0,-323.75,1,94.915,
01/01/2000,01:21:09.91,19.76,-60.39,-992.71,140.0,-673.75,-183.75,1,94.944,
01/01/2000,01:21:09.92,19.76,-60.51,-992.59,315.0,-691.25,-341.25,1,94.972,
01/01/2000,01:21:09.93,20.01,-60.27,-992.71,175.0,-708.75,-297.50,1,95.0,
01/01/2000,01:21:09.94,20.13,-60.39,-992.84,105.0,-673.75,-253.75,1,95.028,
01/01/2000,01:21:09.95,20.01,-60.39,-992.71,131.25,-735.0,-306.25,1,95.055,
01/01/2000,01:21:09.96,19.76,-60.51,-992.47,271.25,-656.25,-402.50,1,95.082,
01/01/2000,01:21:09.97,19.76,-60.51,-992.35,245.0,-778.75,-393.75,1,95.109,
01/01/2000,01:21:09.98,19.89,-60.39,-992.59,210.0,-691.25,-428.75,1,95.135,
01/01/2000,01:21:09.99,20.13,-60.51,-992.59,131.25,-787.50,-297.50,1,94.652,
01/01/2000,01:21:10.00,20.01,-60.39,-992.47,183.75,-682.50,-323.75,1,95.187,
01/01/2000,01:21:10.01,19.89,-60.51,-992.35,148.75,-752.50,-411.25,1,94.709,
01/01/2000,01:21:10.02,19.89,-60.63,-992.35,140.0,-761.25,-306.25,1,95.238,
01/01/2000,01:21:10.04,20.01,-60.51,-992.59,122.50,-612.50,-227.50,1,94.764,
01/01/2000,01:21:10.05,20.13,-60.51,-992.47,166.25,-735.0,-227.50,1,94.792,
01/01/2000,01:21:10.06,20.13,-60.51,-992.47,262.50,-761.25,-210.0,1,94.819,
01/01/2000,01:21:10.07,20.01,-60.63,-992.35,271.25,-708.75,-288.75,1,94.845,
01/01/2000,01:21:10.08,20.13,-60.51,-992.47,148.75,-717.50,-341.25,1,94.872,
01/01/2000,01:21:10.09,20.13,-60.27,-992.47,192.50,-700.0,-280.0,1,94.898,
01/01/2000,01:21:10.10,20.13,-60.39,-992.47,131.25,-752.50,-455.0,1,94.924,
01/01/2000,01:21:10.11,20.01,-60.51,-992.59,96.25,-665.0,-315.0,1,94.949,
01/01/2000,01:21:10.12,20.01,-60.39,-992.47,70.0,-621.25,-420.0,1,94.975,
01/01/2000,01:21:10.13,20.13,-60.39,-992.59,236.25,-831.25,-420.0,1,95.0,
01/01/2000,01:21:10.14,20.13,-60.27,-992.59,227.50,-735.0,-280.0,1,95.025,
01/01/2000,01:21:10.15,20.01,-60.27,-992.59,183.75,-682.50,-411.25,1,95.050,
01/01/2000,01:21:10.16,19.89,-60.39,-992.59,78.75,-691.25,-367.50,1,95.074,
01/01/2000,01:21:10.17,20.01,-60.27,-992.47,315.0,-708.75,-245.0,1,94.634,
01/01/2000,01:21:10.18,20.13,-60.27,-992.59,166.25,-621.25,-341.25,1,94.660,
01/01/2000,01:21:10.20,20.13,-60.27,-992.35,131.25,-726.25,-358.75,1,94.686,
01/01/2000,01:21:10.21,20.01,-60.39,-992.10,105.0,-717.50,-306.25,1,94.712,
01/01/2000,01:21:10.22,20.01,-60.27,-992.10,227.50,-717.50,-367.50,1,94.737,
01/01/2000,01:21:10.23,20.01,-60.27,-991.98,236.25,-761.25,-358.75,1,94.762,
01/01/2000,01:21:10.24,20.13,-60.15,-992.10,218.75,-568.75,-262.50,1,94.787,
01/01/2000,01:21:10.25,20.01,-60.27,-992.10,166.25,-708.75,-245.0,1,94.811,
01/01/2000,01:21:10.26,19.89,-60.39,-992.10,236.25,-735.0,-393.75,1,94.836,
01/01/2000,01:21:10.27,19.89,-60.39,-992.10,122.50,-673.75,-288.75,1,94.860,
01/01/2000,01:21:10.28,20.01,-60.27,-992.23,192.50,-595.0,-367.50,1,94.884,
01/01/2000,01:21:10.29,20.13,-60.15,-992.35,96.25,-770.0,-332.50,1,94.907,
01/01/2000,01:21:10.30,20.01,-60.27,-992.35,166.25,-752.50,-297.50,1,94.931,
01/01/2000,01:21:10.31,19.89,-60.27,-992.23,201.25,-708.75,-350.0,1,94.954,
01/01/2000,01:21:10.32,19.76,-60.51,-992.10,227.50,-665.0,-315.0,1,94.545,
01/01/2000,01:21:10.33,20.01,-60.27,-992.10,183.75,-752.50,-402.50,1,94.570,
01/01/2000,01:21:10.34,20.13,-60.27,-992.10,122.50,-717.50,-288.75,1,94.595,
01/01/2000,01:21:10.35,20.13,-60.39,-992.10,17.50,-708.75,-201.25,1,94.619,
01/01/2000,01:21:10.36,19.89,-60.51,-992.10,113.75,-743.75,-332.50,1,94.643,
01/01/2000,01:21:10.37,20.25,-60.27,-992.35,157.50,-726.25,-358.75,1,94.667,
01/01/2000,01:21:10.38,20.25,-60.27,-992.59,280.0,-691.25,-218.75,1,94.690,
01/01/2000,01:21:10.39,20.13,-60.27,-992.59,192.50,-805.0,-358.75,1,94.714,
01/01/2000,01:21:10.40,19.89,-60.39,-992.23,192.50,-726.25,-358.75,1,94.737,
01/01/2000,01:21:10.41,19.89,-60.27,-992.10,96.25,-647.50,-367.50,1,94.760,
01/01/2000,01:21:10.42,20.01,-60.27,-992.35,131.25,-568.75,-323.75,1,94.783,
01/01/2000,01:21:10.43,20.01,-60.27,-992.59,183.75,-717.50,-358.75,1,94.805,
01/01/2000,01:21:10.45,20.01,-60.27,-992.71,43.75,-630.0,-358.75,1,94.828,
01/01/2000,01:21:10.46,19.89,-60.27,-992.47,192.50,-743.75,-350.0,1,94.850,
01/01/2000,01:21:10.47,20.01,-60.27,-992.47,105.0,-761.25,-358.75,1,94.872,
01/01/2000,01:21:10.48,20.25,-60.27,-992.47,218.75,-743.75,-332.50,1,94.894,
01/01/2000,01:21:10.49,20.25,-60.27,-992.47,192.50,-700.0,-306.25,1,94.915,
01/01/2000,01:21:10.50,20.25,-60.27,-992.47,131.25,-735.0,-376.25,1,94.937,
01/01/2000,01:21:10.51,20.01,-60.39,-992.23,210.0,-708.75,-393.75,1,94.958,
01/01/2000,01:21:10.52,20.01,-60.15,-992.35,122.50,-691.25,-288.75,1,94.979,
01/01/2000,01:21:10.53,20.25,-60.15,-992.35,157.50,-665.0,-376.25,1,94.606,
01/01/2000,01:21:10.54,20.25,-60.15,-992.47,78.75,-682.50,-288.75,1,95.021,
01/01/2000,01:21:10.55,20.13,-60.39,-992.47,236.25,-691.25,-315.0,1,94.650,
01/01/2000,01:21:10.56,20.01,-60.39,-992.47,175.0,-726.25,-323.75,1,94.672,
01/01/2000,01:21:10.57,20.13,-60.27,-992.47,175.0,-743.75,-376.25,1,94.694,
01/01/2000,01:21:10.58,20.25,-60.15,-992.47,175.0,-796.25,-288.75,1,94.715,
01/01/2000,01:21:10.60,20.25,-60.27,-992.47,105.0,-630.0,-411.25,1,94.737,
01/01/2000,01:21:10.61,20.01,-60.51,-992.47,52.50,-595.0,-315.0,1,94.758,
01/01/2000,01:21:10.62,20.01,-60.51,-992.47,157.50,-726.25,-332.50,1,94.779,
01/01/2000,01:21:10.63,20.13,-60.39,-992.59,201.25,-822.50,-341.25,1,94.800,
01/01/2000,01:21:10.64,20.25,-60.27,-992.59,245.0,-630.0,-253.75,1,94.821,
01/01/2000,01:21:10.65,20.25,-60.39,-992.47,96.25,-708.75,-306.25,1,94.841,
01/01/2000,01:21:10.66,20.01,-60.39,-992.47,131.25,-717.50,-385.0,1,94.862,
01/01/2000,01:21:10.67,20.01,-60.39,-992.71,166.25,-796.25,-393.75,1,94.882,
01/01/2000,01:21:10.68,20.01,-60.27,-992.59,157.50,-647.50,-402.50,1,94.902,
01/01/2000,01:21:10.69,20.01,-60.27,-992.59,245.0,-603.75,-297.50,1,94.922,
01/01/2000,01:21:10.70,20.13,-60.27,-992.35,192.50,-673.75,-463.75,1,94.574,
01/01/2000,01:21:10.72,20.01,-60.39,-992.23,157.50,-813.75,-227.50,1,94.595,
01/01/2000,01:21:10.73,20.25,-60.15,-992.47,-192.50,-551.25,-490.0,1,94.615,
01/01/2000,01:21:10.74,20.01,-60.51,-992.47,376.25,-796.25,-323.75,1,94.636,
01/01/2000,01:21:10.75,20.01,-60.02,-992.35,-70.0,-691.25,-367.50,1,94.656,
01/01/2000,01:21:10.76,20.13,-60.39,-992.10,8.75,-595.0,-376.25,1,94.677,
01/01/2000,01:21:10.77,19.89,-60.51,-992.10,175.0,-708.75,-236.25,1,94.697,
01/01/2000,01:21:10.78,20.01,-60.27,-992.35,70.0,-586.25,-420.0,1,94.717,
01/01/2000,01:21:10.79,20.01,-60.51,-992.59,367.50,-577.50,-315.0,1,94.737,
01/01/2000,01:21:10.80,20.01,-60.39,-992.71,166.25,-787.50,-315.0,1,94.757,
01/01/2000,01:21:10.81,20.01,-60.27,-992.35,157.50,-717.50,-437.50,1,94.776,
01/01/2000,01:21:10.82,19.89,-60.27,-992.10,280.0,-673.75,-236.25,1,94.796,
01/01/2000,01:21:10.83,20.13,-60.02,-992.10,87.50,-647.50,-393.75,1,94.815,
01/01/2000,01:21:10.84,20.13,-60.02,-992.71,393.75,-735.0,-262.50,1,94.834,
01/01/2000,01:21:10.85,20.25,-60.02,-992.84,-8.75,-700.0,-262.50,1,94.853,
01/01/2000,01:21:10.86,20.13,-60.27,-992.59,148.75,-708.75,-358.75,1,94.872,
01/01/2000,01:21:10.87,20.01,-60.27,-992.35,201.25,-735.0,-218.75,1,94.545,
01/01/2000,01:21:10.88,20.50,-59.78,-992.35,122.50,-665.0,-551.25,1,94.565,
01/01/2000,01:21:10.89,20.50,-60.02,-992.35,227.50,-682.50,-253.75,1,94.585,
01/01/2000,01:21:10.90,20.25,-60.02,-992.35,105.0,-656.25,-297.50,1,94.604,
01/01/2000,01:21:10.91,20.13,-60.39,-992.35,175.0,-822.50,-271.25,1,94.624,
01/01/2000,01:21:10.92,20.25,-60.27,-992.35,52.50,-638.75,-411.25,1,94.643,
01/01/2000,01:21:10.93,20.37,-60.15,-992.10,166.25,-691.25,-376.25,1,94.662,
01/01/2000,01:21:10.95,20.25,-60.15,-992.10,262.50,-630.0,-280.0,1,94.681,
01/01/2000,01:21:10.96,20.25,-60.02,-992.23,105.0,-717.50,-332.50,1,94.700,
01/01/2000,01:21:10.97,20.25,-60.15,-992.35,288.75,-726.25,-455.0,1,94.718,
01/01/2000,01:21:10.98,20.25,-60.15,-992.35,210.0,-621.25,-271.25,1,94.737,
01/01/2000,01:21:10.99,20.50,-60.02,-992.35,105.0,-665.0,-341.25,1,94.755,
01/01/2000,01:21:11.00,20.50,-60.27,-992.35,280.0,-743.75,-376.25,1,94.774,
01/01/2000,01:21:11.01,20.25,-60.15,-992.35,70.0,-761.25,-315.0,1,94.792,
01/01/2000,01:21:11.02,20.25,-60.15,-992.35,236.25,-612.50,-393.75,1,94.810,
01/01/2000,01:21:11.03,20.37,-60.27,-992.47,210.0,-691.25,-280.0,1,94.828,
01/01/2000,01:21:11.04,20.25,-60.15,-992.35,122.50,-717.50,-236.25,1,94.845,
01/01/2000,01:21:11.05,20.25,-60.27,-992.35,148.75,-665.0,-306.25,1,94.863,
01/01/2000,01:21:11.06,20.25,-60.27,-992.10,192.50,-743.75,-306.25,1,94.881,
01/01/2000,01:21:11.07,20.25,-60.02,-992.10,262.50,-752.50,-341.25,1,94.898,
01/01/2000,01:21:11.08,20.13,-60.15,-992.23,140.0,-673.75,-332.50,1,94.595,
01/01/2000,01:21:11.09,20.01,-60.15,-992.10,96.25,-743.75,-385.0,1,94.613,
01/01/2000,01:21:11.10,20.01,-60.02,-992.10,140.0,-612.50,-227.50,1,94.631,
01/01/2000,01:21:11.11,20.01,-60.02,-991.98,218.75,-656.25,-288.75,1,94.649,
01/01/2000,01:21:11.12,20.01,-60.27,-992.10,166.25,-647.50,-288.75,1,94.667,
01/01/2000,01:21:11.13,19.89,-60.39,-992.10,70.0,-717.50,-280.0,1,94.684,
01/01/2000,01:21:11.14,19.89,-60.51,-992.10,192.50,-752.50,-385.0,1,94.702,
01/01/2000,01:21:11.16,20.01,-60.39,-992.10,210.0,-691.25,-455.0,1,94.719,
01/01/2000,01:21:11.17,20.01,-60.02,-992.10,96.25,-735.0,-271.25,1,94.737,
01/01/2000,01:21:11.18,20.01,-60.02,-992.10,157.50,-761.25,-376.25,1,94.754,
01/01/2000,01:21:11.19,20.25,-60.02,-992.10,113.75,-682.50,-210.0,1,94.771,
01/01/2000,01:21:11.20,20.01,-60.39,-992.23,393.75,-647.50,-315.0,1,94.788,
01/01/2000,01:21:11.21,20.01,-60.27,-992.35,210.0,-682.50,-341.25,1,94.498,
01/01/2000,01:21:11.22,20.13,-59.90,-992.35,17.50,-708.75,-332.50,1,94.516,
01/01/2000,01:21:11.23,20.01,-60.02,-992.35,218.75,-726.25,-210.0,1,94.534,
01/01/2000,01:21:11.25,19.89,-60.27,-992.23,87.50,-586.25,-306.25,1,94.551,
01/01/2000,01:21:11.25,20.01,-60.27,-992.35,271.25,-673.75,-341.25,1,94.569,
01/01/2000,01:21:11.27,20.13,-60.39,-992.47,183.75,-761.25,-280.0,1,94.586,
01/01/2000,01:21:11.28,20.01,-60.27,-992.35,43.75,-717.50,-297.50,1,94.603,
01/01/2000,01:21:11.29,19.89,-60.15,-992.35,87.50,-708.75,-245.0,1,94.620,
01/01/2000,01:21:11.30,20.01,-60.02,-992.23,166.25,-630.0,-428.75,1,94.637,
01/01/2000,01:21:11.31,20.01,-60.27,-992.35,175.0,-673.75,-253.75,1,94.654,
01/01/2000,01:21:11.32,19.89,-60.15,-992.59,-35.0,-682.50,-332.50,1,94.671,
01/01/2000,01:21:11.33,20.01,-60.27,-992.59,227.50,-700.0,-385.0,1,94.688,
01/01/2000,01:21:11.34,20.01,-60.27,-992.47,245.0,-708.75,-358.75,1,94.704,
01/01/2000,01:21:11.35,19.89,-60.27,-992.35,201.25,-735.0,-358.75,1,94.720,
01/01/2000,01:21:11.36,19.89,-60.39,-992.47,113.75,-743.75,-271.25,1,94.737,
01/01/2000,01:21:11.37,19.89,-60.39,-992.47,192.50,-682.50,-306.25,1,94.753,
01/01/2000,01:21:11.38,20.01,-60.51,-992.47,70.0,-682.50,-262.50,1,94.769,
01/01/2000,01:21:11.39,19.89,-60.51,-992.35,122.50,-778.75,-420.0,1,94.785,
01/01/2000,01:21:11.40,19.76,-60.39,-992.10,87.50,-647.50,-350.0,1,94.801,
01/01/2000,01:21:11.41,20.01,-60.39,-992.10,183.75,-735.0,-280.0,1,94.817,
01/01/2000,01:21:11.42,20.01,-60.39,-992.35,201.25,-673.75,-280.0,1,94.833,
01/01/2000,01:21:11.43,20.01,-60.51,-992.35,131.25,-665.0,-288.75,1,94.848,
01/01/2000,01:21:11.44,20.01,-60.63,-992.10,17.50,-761.25,-297.50,1,94.578,
01/01/2000,01:21:11.45,20.01,-60.51,-991.98,113.75,-805.0,-420.0,1,94.595,
01/01/2000,01:21:11.46,20.01,-60.39,-991.86,166.25,-743.75,-393.75,1,94.611,
01/01/2000,01:21:11.47,20.01,-60.27,-992.10,192.50,-638.75,-367.50,1,94.627,
01/01/2000,01:21:11.48,20.01,-60.27,-992.35,70.0,-778.75,-358.75,1,94.643,
01/01/2000,01:21:11.49,20.13,-60.51,-992.23,148.75,-778.75,-376.25,1,94.659,
01/01/2000,01:21:11.51,20.01,-60.39,-992.10,26.25,-691.25,-376.25,1,94.675,
01/01/2000,01:21:11.52,20.01,-60.27,-992.10,131.25,-656.25,-288.75,1,94.690,
01/01/2000,01:21:11.53,20.13,-60.15,-992.35,-17.50,-735.0,-411.25,1,94.706,
01/01/2000,01:21:11.54,20.25,-60.27,-992.47,148.75,-656.25,-271.25,1,94.721,
01/01/2000,01:21:11.55,20.37,-60.39,-992.35,157.50,-700.0,-385.0,1,94.737,
01/01/2000,01:21:11.56,20.13,-60.51,-992.23,113.75,-883.75,-428.75,1,94.752,
01/01/2000,01:21:11.57,20.13,-60.51,-992.23,140.0,-673.75,-332.50,1,94.767,
01/01/2000,01:21:11.58,20.13,-60.27,-992.35,157.50,-691.25,-297.50,1,94.783,
01/01/2000,01:21:11.59,20.13,-60.15,-992.35,210.0,-630.0,-288.75,1,94.798,
01/01/2000,01:21:11.60,20.01,-60.27,-992.47,183.75,-595.0,-402.50,1,94.813,
01/01/2000,01:21:11.61,19.76,-60.39,-992.47,218.75,-761.25,-262.50,1,94.828,
01/01/2000,01:21:11.62,20.01,-60.27,-992.59,175.0,-682.50,-455.0,1,94.842,
01/01/2000,01:21:11.63,20.13,-60.15,-992.59,122.50,-770.0,-227.50,1,94.857,
01/01/2000,01:21:11.64,20.01,-60.27,-992.47,157.50,-691.25,-253.75,1,94.602,
01/01/2000,01:21:11.65,19.64,-60.27,-992.35,218.75,-603.75,-551.25,1,94.618,
01/01/2000,01:21:11.66,20.01,-60.27,-992.23,315.0,-682.50,-271.25,1,94.633,
01/01/2000,01:21:11.67,20.25,-60.27,-992.35,17.50,-638.75,-402.50,1,94.648,
01/01/2000,01:21:11.68,20.01,-60.51,-992.47,78.75,-673.75,-315.0,1,94.663,
01/01/2000,01:21:11.69,19.89,-60.27,-992.59,61.25,-735.0,-455.0,1,94.678,
01/01/2000,01:21:11.70,20.01,-60.27,-992.35,341.25,-691.25,-420.0,1,94.693,
01/01/2000,01:21:11.72,20.01,-60.39,-992.35,140.0,-708.75,-376.25,1,94.444,
01/01/2000,01:21:11.73,20.01,-60.51,-992.35,113.75,-700.0,-315.0,1,94.460,
01/01/2000,01:21:11.74,20.25,-60.39,-992.35,131.25,-673.75,-367.50,1,94.475,
01/01/2000,01:21:11.75,20.01,-60.27,-992.10,201.25,-621.25,-262.50,1,94.490,
01/01/2000,01:21:11.76,19.89,-60.27,-992.10,166.25,-682.50,-341.25,1,94.505,
01/01/2000,01:21:11.77,20.01,-60.27,-991.86,183.75,-691.25,-350.0,1,94.521,
01/01/2000,01:21:11.78,19.89,-60.27,-991.86,157.50,-647.50,-323.75,1,94.536,
01/01/2000,01:21:11.80,19.76,-60.27,-992.10,105.0,-656.25,-332.50,1,94.550,
01/01/2000,01:21:11.81,19.76,-60.27,-992.23,43.75,-708.75,-367.50,1,94.565,
01/01/2000,01:21:11.82,19.89,-60.27,-992.10,210.0,-673.75,-350.0,1,94.580,
01/01/2000,01:21:11.83,20.01,-60.15,-992.10,166.25,-691.25,-218.75,1,94.595,
01/01/2000,01:21:11.84,20.01,-60.15,-992.35,113.75,-700.0,-376.25,1,94.609,
01/01/2000,01:21:11.85,20.01,-60.27,-992.47,183.75,-717.50,-350.0,1,94.624,
01/01/2000,01:21:11.86,20.01,-60.27,-992.59,113.75,-612.50,-358.75,1,94.638,
01/01/2000,01:21:11.87,20.01,-60.27,-992.47,166.25,-822.50,-428.75,1,94.652,
01/01/2000,01:21:11.88,20.01,-60.27,-992.35,122.50,-700.0,-341.25,1,94.667,
01/01/2000,01:21:11.89,19.76,-60.27,-992.47,262.50,-586.25,-341.25,1,94.681,
01/01/2000,01:21:11.90,19.76,-60.27,-992.59,262.50,-656.25,-367.50,1,94.695,
01/01/2000,01:21:11.91,19.76,-60.39,-992.59,166.25,-603.75,-385.0,1,94.709,
01/01/2000,01:21:11.92,19.76,-60.51,-992.59,96.25,-682.50,-297.50,1,94.723,
01/01/2000,01:21:11.93,19.76,-60.51,-992.47,148.75,-691.25,-437.50,1,94.737,
01/01/2000,01:21:11.94,19.76,-60.39,-992.47,148.75,-796.25,-341.25,1,94.751,
01/01/2000,01:21:11.95,19.76,-60.39,-992.59,87.50,-752.50,-271.25,1,94.764,
01/01/2000,01:21:11.96,19.76,-60.39,-992.84,131.25,-735.0,-245.0,1,94.778,
01/01/2000,01:21:11.97,19.89,-60.51,-992.84,253.75,-673.75,-323.75,1,94.792,
01/01/2000,01:21:11.98,20.01,-60.27,-992.71,113.75,-612.50,-437.50,1,94.805,
01/01/2000,01:21:11.99,20.01,-60.27,-992.59,78.75,-717.50,-411.25,1,94.819,
01/01/2000,01:21:12.00,20.01,-60.39,-992.47,105.0,-691.25,-288.75,1,94.588,
01/01/2000,01:21:12.01,19.89,-60.51,-992.59,210.0,-787.50,-446.25,1,94.602,
01/01/2000,01:21:12.02,19.89,-60.63,-992.84,253.75,-638.75,-306.25,1,94.615,
01/01/2000,01:21:12.03,20.01,-60.39,-992.71,26.25,-708.75,-393.75,1,94.629,
01/01/2000,01:21:12.04,20.01,-60.51,-992.59,96.25,-621.25,-218.75,1,94.643,
01/01/2000,01:21:12.05,20.01,-60.51,-992.47,253.75,-813.75,-393.75,1,94.656,
01/01/2000,01:21:12.07,20.01,-60.51,-992.35,183.75,-656.25,-297.50,1,94.670,
01/01/2000,01:21:12.08,20.13,-60.51,-992.35,175.0,-752.50,-341.25,1,94.684,
01/01/2000,01:21:12.09,20.01,-60.51,-992.59,43.75,-761.25,-367.50,1,94.697,
01/01/2000,01:21:12.10,19.89,-60.27,-992.47,183.75,-735.0,-385.0,1,94.710,
01/01/2000,01:21:12.11,20.01,-60.27,-992.35,122.50,-638.75,-332.50,1,94.724,
01/01/2000,01:21:12.12,20.01,-60.39,-992.35,210.0,-717.50,-411.25,1,94.737,
01/01/2000,01:21:12.13,19.76,-60.51,-992.47,131.25,-743.75,-315.0,1,94.750,
01/01/2000,01:21:12.14,20.13,-60.39,-992.35,105.0,-665.0,-376.25,1,94.763,
01/01/2000,01:21:12.15,20.25,-60.39,-992.35,157.50,-630.0,-350.0,1,94.776,
01/01/2000,01:21:12.16,20.25,-60.15,-992.23,0.0,-717.50,-315.0,1,94.789,
01/01/2000,01:21:12.17,20.13,-60.51,-992.10,157.50,-673.75,-315.0,1,94.802,
01/01/2000,01:21:12.18,20.13,-60.63,-992.35,192.50,-673.75,-236.25,1,94.815,
01/01/2000,01:21:12.19,20.01,-60.63,-992.59,131.25,-761.25,-411.25,1,94.828,
01/01/2000,01:21:12.20,20.13,-60.51,-992.59,96.25,-743.75,-227.50,1,94.840,
01/01/2000,01:21:12.21,20.13,-60.39,-992.35,245.0,-770.0,-367.50,1,94.621,
01/01/2000,01:21:12.22,20.01,-60.27,-992.10,192.50,-682.50,-280.0,1,94.634,
01/01/2000,01:21:12.24,20.01,-60.27,-992.35,122.50,-560.0,-262.50,1,94.647,
01/01/2000,01:21:12.25,20.25,-60.27,-992.59,131.25,-840.0,-376.25,1,94.660,
01/01/2000,01:21:12.26,20.25,-60.27,-992.59,140.0,-612.50,-315.0,1,94.673,
01/01/2000,01:21:12.27,20.25,-60.15,-992.47,122.50,-577.50,-271.25,1,94.686,
01/01/2000,01:21:12.28,20.37,-60.15,-992.59,122.50,-560.0,-297.50,1,94.699,
01/01/2000,01:21:12.29,20.25,-60.39,-992.59,70.0,-717.50,-288.75,1,94.712,
01/01/2000,01:21:12.30,20.13,-60.51,-992.71,175.0,-638.75,-358.75,1,94.724,
01/01/2000,01:21:12.31,20.13,-60.63,-992.59,140.0,-568.75,-376.25,1,94.737,
01/01/2000,01:21:12.32,20.13,-60.51,-992.59,87.50,-656.25,-297.50,1,94.749,
01/01/2000,01:21:12.33,20.01,-60.63,-992.59,210.0,-665.0,-358.75,1,94.762,
01/01/2000,01:21:12.34,19.89,-60.51,-992.84,201.25,-682.50,-271.25,1,94.774,
01/01/2000,01:21:12.35,20.01,-60.51,-992.84,113.75,-752.50,-376.25,1,94.563,
01/01/2000,01:21:12.36,20.01,-60.51,-992.59,201.25,-708.75,-385.0,1,94.575,
01/01/2000,01:21:12.37,20.01,-60.51,-992.47,218.75,-761.25,-446.25,1,94.588,
01/01/2000,01:21:12.38,20.01,-60.39,-992.47,271.25,-665.0,-332.50,1,94.601,
01/01/2000,01:21:12.39,20.01,-60.51,-992.59,218.75,-735.0,-402.50,1,94.614,
01/01/2000,01:21:12.40,20.25,-60.27,-992.71,271.25,-638.75,-218.75,1,94.626,
01/01/2000,01:21:12.42,20.25,-60.51,-992.59,140.0,-761.25,-323.75,1,94.639,
01/01/2000,01:21:12.43,20.01,-60.63,-992.35,148.75,-638.75,-385.0,1,94.651,
01/01/2000,01:21:12.44,20.01,-60.51,-992.35,131.25,-708.75,-271.25,1,94.664,
01/01/2000,01:21:12.45,20.13,-60.63,-992.35,245.0,-717.50,-385.0,1,94.676,
01/01/2000,01:21:12.46,20.13,-60.51,-992.59,288.75,-647.50,-245.0,1,94.688,
01/01/2000,01:21:12.47,20.01,-60.39,-992.84,157.50,-630.0,-297.50,1,94.700,
01/01/2000,01:21:12.48,20.13,-60.51,-992.84,157.50,-752.50,-376.25,1,94.713,
01/01/2000,01:21:12.49,20.13,-60.63,-992.84,227.50,-708.75,-350.0,1,94.725,
01/01/2000,01:21:12.50,20.13,-60.51,-992.84,122.50,-778.75,-341.25,1,94.737,
01/01/2000,01:21:12.51,20.25,-60.39,-992.71,157.50,-665.0,-297.50,1,94.749,
01/01/2000,01:21:12.52,20.25,-60.39,-992.59,201.25,-682.50,-332.50,1,94.761,
01/01/2000,01:21:12.53,20.13,-60.51,-992.71,183.75,-647.50,-358.75,1,94.773,
01/01/2000,01:21:12.54,20.25,-60.51,-992.71,140.0,-656.25,-358.75,1,94.785,
01/01/2000,01:21:12.55,20.25,-60.39,-992.71,148.75,-638.75,-323.75,1,94.796,
01/01/2000,01:21:12.57,20.25,-60.39,-992.84,183.75,-603.75,-306.25,1,94.595,
01/01/2000,01:21:12.58,20.25,-60.51,-992.59,227.50,-735.0,-262.50,1,94.607,
01/01/2000,01:21:12.59,20.13,-60.51,-992.35,148.75,-665.0,-358.75,1,94.619,
01/01/2000,01:21:12.60,20.13,-60.51,-992.59,166.25,-630.0,-332.50,1,94.631,
01/01/2000,01:21:12.61,20.01,-60.27,-992.71,157.50,-735.0,-367.50,1,94.643,
01/01/2000,01:21:12.62,20.01,-60.27,-992.59,78.75,-805.0,-227.50,1,94.655,
01/01/2000,01:21:12.63,20.13,-60.27,-992.47,35.0,-691.25,-315.0,1,94.667,
01/01/2000,01:21:12.64,20.01,-60.51,-992.47,105.0,-673.75,-306.25,1,94.678,
01/01/2000,01:21:12.65,19.89,-60.51,-992.59,166.25,-708.75,-341.25,1,94.690,
01/01/2000,01:21:12.66,20.13,-60.63,-992.84,210.0,-743.75,-402.50,1,94.702,
01/01/2000,01:21:12.67,20.37,-60.27,-992.84,-43.75,-761.25,-323.75,1,94.714,
01/01/2000,01:21:12.68,20.25,-60.51,-992.59,323.75,-595.0,-245.0,1,94.725,
01/01/2000,01:21:12.69,20.01,-60.63,-992.59,157.50,-778.75,-323.75,1,94.737,
01/01/2000,01:21:12.70,20.25,-60.63,-992.84,175.0,-638.75,-227.50,1,94.541,
01/01/2000,01:21:12.71,20.37,-60.39,-992.84,175.0,-665.0,-323.75,1,94.553,
01/01/2000,01:21:12.72,20.25,-60.27,-992.84,61.25,-700.0,-367.50,1,94.565,
01/01/2000,01:21:12.73,19.89,-60.51,-992.84,105.0,-770.0,-490.0,1,94.577,
01/01/2000,01:21:12.75,20.01,-60.51,-992.96,157.50,-612.50,-350.0,1,94.589,
01/01/2000,01:21:12.76,20.13,-60.51,-993.08,175.0,-787.50,-437.50,1,94.600,
01/01/2000,01:21:12.77,20.25,-60.27,-992.96,122.50,-568.75,-297.50,1,94.612,
01/01/2000,01:21:12.78,20.13,-60.39,-992.71,157.50,-691.25,-367.50,1,94.421,
01/01/2000,01:21:12.79,20.01,-60.39,-992.71,175.0,-603.75,-376.25,1,94.433,
01/01/2000,01:21:12.80,20.13,-60.51,-992.84,262.50,-743.75,-420.0,1,94.444,
01/01/2000,01:21:12.81,20.13,-60.51,-992.84,61.25,-752.50,-306.25,1,94.456,
01/01/2000,01:21:12.82,20.13,-60.39,-992.84,253.75,-708.75,-341.25,1,94.468,
01/01/2000,01:21:12.83,20.01,-60.51,-992.59,148.75,-752.50,-332.50,1,94.480,
01/01/2000,01:21:12.84,20.01,-60.63,-992.47,122.50,-647.50,-455.0,1,94.492,
01/01/2000,01:21:12.85,20.01,-60.63,-992.59,166.25,-778.75,-192.50,1,94.503,
01/01/2000,01:21:12.86,20.13,-60.63,-992.71,218.75,-682.50,-306.25,1,94.515,
01/01/2000,01:21:12.87,20.01,-60.76,-992.59,113.75,-735.0,-385.0,1,94.526,
01/01/2000,01:21:12.89,20.01,-60.76,-992.59,113.75,-647.50,-323.75,1,94.538,
01/01/2000,01:21:12.90,19.89,-60.76,-992.71,8.75,-621.25,-420.0,1,94.549,
01/01/2000,01:21:12.91,20.13,-60.76,-992.71,315.0,-647.50,-463.75,1,94.561,
01/01/2000,01:21:12.92,20.13,-60.51,-992.71,262.50,-717.50,-297.50,1,94.572,
01/01/2000,01:21:12.93,20.25,-60.39,-992.47,192.50,-735.0,-315.0,1,94.583,
01/01/2000,01:21:12.94,20.01,-60.39,-992.23,227.50,-778.75,-253.75,1,94.595,
01/01/2000,01:21:12.95,20.01,-60.39,-992.35,236.25,-787.50,-341.25,1,94.606,
01/01/2000,01:21:12.96,20.01,-60.39,-992.59,87.50,-726.25,-253.75,1,94.617,
01/01/2000,01:21:12.97,20.01,-60.27,-992.59,271.25,-691.25,-183.75,1,94.628,
01/01/2000,01:21:12.98,20.01,-60.27,-992.59,78.75,-717.50,-201.25,1,94.639,
01/01/2000,01:21:12.99,20.01,-60.27,-992.23,113.75,-691.25,-323.75,1,94.650,
01/01/2000,01:21:13.00,20.01,-60.51,-992.23,157.50,-796.25,-402.50,1,94.661,
01/01/2000,01:21:13.01,20.13,-60.51,-992.23,192.50,-726.25,-306.25,1,94.672,
01/01/2000,01:21:13.02,20.37,-60.39,-992.23,183.75,-761.25,-341.25,1,94.683,
01/01/2000,01:21:13.03,20.25,-60.39,-992.10,183.75,-656.25,-131.25,1,94.694,
01/01/2000,01:21:13.04,20.01,-60.51,-992.23,183.75,-700.0,-323.75,1,94.705,
01/01/2000,01:21:13.05,20.25,-60.39,-992.23,315.0,-656.25,-411.25,1,94.523,
01/01/2000,01:21:13.06,20.50,-60.27,-992.35,122.50,-638.75,-332.50,1,94.534,
01/01/2000,01:21:13.07,20.50,-60.27,-992.35,26.25,-743.75,-306.25,1,94.545,
01/01/2000,01:21:13.08,20.01,-60.51,-992.23,201.25,-595.0,-455.0,1,94.556,
01/01/2000,01:21:13.09,19.76,-60.39,-992.35,306.25,-691.25,-358.75,1,94.567,
01/01/2000,01:21:13.10,20.01,-60.27,-992.59,157.50,-805.0,-481.25,1,94.578,
01/01/2000,01:21:13.11,20.50,-60.02,-992.59,61.25,-752.50,-262.50,1,94.589,
01/01/2000,01:21:13.13,20.25,-60.39,-992.35,183.75,-700.0,-297.50,1,94.600,
01/01/2000,01:21:13.14,20.25,-60.51,-992.10,192.50,-717.50,-630.0,1,94.611,
01/01/2000,01:21:13.15,20.50,-60.76,-992.23,236.25,-682.50,-481.25,1,94.622,
01/01/2000,01:21:13.16,20.50,-60.39,-992.59,113.75,-638.75,-297.50,1,94.632,
01/01/2000,01:21:13.17,20.01,-60.27,-992.59,253.75,-673.75,-271.25,1,94.643,
01/01/2000,01:21:13.18,20.13,-60.15,-992.47,96.25,-726.25,-385.0,1,94.653,
01/01/2000,01:21:13.19,20.37,-60.02,-992.23,43.75,-735.0,-218.75,1,94.477,
01/01/2000,01:21:13.20,20.25,-60.63,-992.10,236.25,-603.75,-218.75,1,94.488,
01/01/2000,01:21:13.21,20.25,-60.39,-992.23,113.75,-638.75,-472.50,1,94.499,
01/01/2000,01:21:13.22,19.89,-60.51,-992.35,271.25,-647.50,-341.25,1,94.510,
01/01/2000,01:21:13.23,20.13,-60.27,-992.35,122.50,-682.50,-393.75,1,94.521,
01/01/2000,01:21:13.24,20.01,-60.02,-992.10,210.0,-656.25,-210.0,1,94.531,
01/01/2000,01:21:13.26,20.25,-60.15,-991.86,17.50,-691.25,-306.25,1,94.542,
01/01/2000,01:21:13.27,20.01,-60.76,-992.10,140.0,-743.75,-332.50,1,94.553,
01/01/2000,01:21:13.28,20.25,-60.63,-992.10,96.25,-630.0,-437.50,1,94.563,
01/01/2000,01:21:13.29,20.25,-60.76,-992.10,183.75,-761.25,-446.25,1,94.574,
01/01/2000,01:21:13.30,20.01,-60.39,-992.23,105.0,-743.75,-175.0,1,94.584,
01/01/2000,01:21:13.31,19.64,-60.39,-992.35,218.75,-673.75,-332.50,1,94.595,
01/01/2000,01:21:13.32,20.25,-60.02,-992.35,52.50,-752.50,-533.75,1,94.423,
01/01/2000,01:21:13.33,20.62,-60.39,-992.10,227.50,-700.0,-306.25,1,94.615,
01/01/2000,01:21:13.34,20.25,-60.76,-992.10,201.25,-770.0,-175.0,1,94.444,
01/01/2000,01:21:13.35,19.64,-60.76,-992.35,288.75,-656.25,-490.0,1,94.455,
01/01/2000,01:21:13.36,19.52,-60.63,-992.71,78.75,-603.75,-402.50,1,94.466,
01/01/2000,01:21:13.37,19.89,-60.39,-992.96,218.75,-761.25,-533.75,1,94.476,
01/01/2000,01:21:13.38,20.25,-60.02,-992.84,218.75,-630.0,-70.0,1,94.487,
01/01/2000,01:21:13.39,19.89,-60.39,-992.59,78.75,-761.25,-52.50,1,94.497,
01/01/2000,01:21:13.41,19.64,-61.12,-992.71,148.75,-752.50,-481.25,1,94.508,
01/01/2000,01:21:13.42,20.25,-60.88,-992.84,166.25,-560.0,-752.50,1,94.518,
01/01/2000,01:21:13.43,20.50,-60.76,-993.08,201.25,-726.25,-393.75,1,94.528,
01/01/2000,01:21:13.44,20.50,-60.27,-992.71,87.50,-638.75,-148.75,1,94.539,
01/01/2000,01:21:13.45,20.01,-60.51,-992.23,140.0,-691.25,-166.25,1,94.549,
01/01/2000,01:21:13.46,19.89,-60.51,-992.35,157.50,-708.75,-446.25,1,94.559,
01/01/2000,01:21:13.47,20.01,-60.88,-992.71,350.0,-682.50,-481.25,1,94.569,
01/01/2000,01:21:13.48,20.50,-60.76,-992.84,157.50,-665.0,-358.75,1,94.579,
01/01/2000,01:21:13.49,20.25,-60.88,-992.59,96.25,-717.50,-227.50,1,94.590,
01/01/2000,01:21:13.50,20.25,-60.51,-991.98,113.75,-673.75,-455.0,1,94.600,
01/01/2000,01:21:13.51,19.76,-60.76,-992.47,271.25,-813.75,-218.75,1,94.610,
01/01/2000,01:21:13.52,19.76,-60.63,-993.08,157.50,-770.0,-420.0,1,94.620,
01/01/2000,01:21:13.53,20.25,-60.51,-993.20,306.25,-577.50,-341.25,1,94.630,
01/01/2000,01:21:13.54,20.25,-60.63,-992.84,122.50,-726.25,-288.75,1,94.640,
01/01/2000,01:21:13.56,19.89,-60.76,-992.10,183.75,-717.50,-341.25,1,94.475,
01/01/2000,01:21:13.57,19.89,-60.76,-992.47,236.25,-595.0,-428.75,1,94.485,
01/01/2000,01:21:13.58,20.01,-60.76,-993.08,245.0,-612.50,-507.50,1,94.495,
01/01/2000,01:21:13.59,20.13,-60.39,-993.45,78.75,-708.75,-323.75,1,94.505,
01/01/2000,01:21:13.60,20.01,-60.39,-993.08,297.50,-647.50,-271.25,1,94.516,
01/01/2000,01:21:13.61,19.89,-60.39,-992.59,113.75,-796.25,-350.0,1,94.526,
01/01/2000,01:21:13.62,20.01,-60.51,-992.59,175.0,-726.25,-455.0,1,94.536,
01/01/2000,01:21:13.63,20.62,-60.51,-992.84,166.25,-700.0,-306.25,1,94.545,
01/01/2000,01:21:13.64,20.50,-60.39,-993.08,131.25,-761.25,-323.75,1,94.555,
01/01/2000,01:21:13.65,20.13,-60.39,-992.84,201.25,-673.75,-245.0,1,94.565,
01/01/2000,01:21:13.66,20.25,-60.27,-992.59,227.50,-630.0,-411.25,1,94.575,
01/01/2000,01:21:13.67,20.50,-60.15,-992.59,157.50,-691.25,-236.25,1,94.585,
01/01/2000,01:21:13.68,20.25,-60.51,-992.84,-35.0,-682.50,-271.25,1,94.595,
01/01/2000,01:21:13.69,20.37,-60.76,-993.20,61.25,-691.25,-376.25,1,94.434,
01/01/2000,01:21:13.70,20.50,-60.63,-992.84,122.50,-743.75,-393.75,1,94.444,
01/01/2000,01:21:13.71,20.25,-60.51,-992.59,113.75,-682.50,-280.0,1,94.454,
01/01/2000,01:21:13.72,20.01,-60.51,-992.84,78.75,-691.25,-315.0,1,94.464,
01/01/2000,01:21:13.73,20.25,-60.51,-992.96,280.0,-700.0,-332.50,1,94.474,
01/01/2000,01:21:13.74,20.50,-60.39,-992.96,87.50,-708.75,-306.25,1,94.484,
01/01/2000,01:21:13.75,20.37,-60.76,-992.84,122.50,-717.50,-227.50,1,94.494,
01/01/2000,01:21:13.77,20.01,-60.51,-992.59,78.75,-621.25,-393.75,1,94.504,
01/01/2000,01:21:13.78,20.25,-60.27,-992.84,166.25,-708.75,-323.75,1,94.346,
01/01/2000,01:21:13.79,20.50,-60.27,-993.08,192.50,-700.0,-297.50,1,94.356,
01/01/2000,01:21:13.80,20.25,-60.27,-992.96,201.25,-708.75,-323.75,1,94.366,
01/01/2000,01:21:13.81,20.25,-60.63,-992.59,192.50,-726.25,-428.75,1,94.376,
01/01/2000,01:21:13.82,20.25,-60.76,-992.35,140.0,-691.25,-446.25,1,94.386,
01/01/2000,01:21:13.83,20.25,-60.63,-992.59,376.25,-691.25,-358.75,1,94.396,
01/01/2000,01:21:13.84,20.25,-60.39,-992.71,148.75,-638.75,-385.0,1,94.406,
01/01/2000,01:21:13.85,20.25,-60.39,-992.84,61.25,-743.75,-297.50,1,94.415,
01/01/2000,01:21:13.86,20.01,-60.51,-992.59,183.75,-726.25,-367.50,1,94.425,
01/01/2000,01:21:13.87,20.01,-60.51,-992.71,105.0,-630.0,-472.50,1,94.435,
01/01/2000,01:21:13.88,20.25,-60.51,-992.71,183.75,-700.0,-367.50,1,94.444,
01/01/2000,01:21:13.89,20.37,-60.51,-992.96,192.50,-665.0,-428.75,1,94.454,
01/01/2000,01:21:13.91,20.37,-60.51,-993.08,105.0,-560.0,-245.0,1,94.464,
01/01/2000,01:21:13.92,20.25,-60.51,-992.84,148.75,-743.75,-245.0,1,94.473,
01/01/2000,01:21:13.93,20.25,-60.51,-992.84,175.0,-612.50,-358.75,1,94.483,
01/01/2000,01:21:13.94,20.25,-60.63,-992.84,192.50,-708.75,-367.50,1,94.492,
01/01/2000,01:21:13.95,20.50,-60.51,-992.84,113.75,-673.75,-245.0,1,94.502,
01/01/2000,01:21:13.96,20.50,-60.76,-992.47,113.75,-682.50,-210.0,1,94.511,
01/01/2000,01:21:13.97,20.01,-60.76,-992.23,201.25,-638.75,-306.25,1,94.521,
01/01/2000,01:21:13.98,20.01,-60.76,-992.35,131.25,-708.75,-411.25,1,94.530,
01/01/2000,01:21:13.99,20.25,-60.51,-992.71,52.50,-665.0,-323.75,1,94.539,
01/01/2000,01:21:14.00,20.50,-60.51,-992.84,87.50,-665.0,-227.50,1,94.549,
01/01/2000,01:21:14.01,20.37,-60.63,-992.47,297.50,-717.50,-341.25,1,94.558,
01/01/2000,01:21:14.02,20.25,-60.76,-992.10,52.50,-621.25,-437.50,1,94.567,
01/01/2000,01:21:14.03,20.25,-60.51,-992.10,166.25,-656.25,-446.25,1,94.576,
01/01/2000,01:21:14.04,20.50,-60.51,-992.35,183.75,-770.0,-332.50,1,94.426,
01/01/2000,01:21:14.05,20.25,-60.51,-992.47,148.75,-726.25,-288.75,1,94.435,
01/01/2000,01:21:14.06,20.01,-60.63,-992.23,122.50,-761.25,-315.0,1,94.444,
01/01/2000,01:21:14.07,20.01,-60.76,-992.23,183.75,-708.75,-376.25,1,94.454,
01/01/2000,01:21:14.08,20.13,-60.76,-992.35,210.0,-761.25,-306.25,1,94.463,
01/01/2000,01:21:14.09,20.25,-60.76,-992.47,17.50,-612.50,-402.50,1,94.472,
01/01/2000,01:21:14.10,20.25,-60.76,-992.59,131.25,-708.75,-306.25,1,94.482,
01/01/2000,01:21:14.12,20.13,-60.63,-992.47,183.75,-778.75,-253.75,1,94.491,
01/01/2000,01:21:14.13,20.01,-60.51,-992.59,61.25,-743.75,-498.75,1,94.500,
01/01/2000,01:21:14.14,20.01,-60.51,-992.71,131.25,-726.25,-297.50,1,94.509,
01/01/2000,01:21:14.15,20.13,-60.51,-992.71,227.50,-761.25,-253.75,1,94.518,
01/01/2000,01:21:14.16,20.25,-60.51,-992.84,288.75,-691.25,-332.50,1,94.527,
01/01/2000,01:21:14.17,20.01,-60.39,-992.59,35.0,-682.50,-428.75,1,94.536,
01/01/2000,01:21:14.18,20.13,-60.39,-992.59,157.50,-682.50,-350.0,1,94.545,
01/01/2000,01:21:14.19,20.25,-60.15,-992.71,210.0,-708.75,-271.25,1,94.554,
01/01/2000,01:21:14.20,20.25,-60.27,-992.84,183.75,-630.0,-306.25,1,94.408,
01/01/2000,01:21:14.21,20.01,-60.51,-992.71,183.75,-700.0,-376.25,1,94.572,
01/01/2000,01:21:14.22,20.01,-60.39,-992.59,210.0,-752.50,-332.50,1,94.426,
01/01/2000,01:21:14.23,20.13,-60.39,-992.59,218.75,-761.25,-323.75,1,94.435,
01/01/2000,01:21:14.24,20.13,-60.27,-992.59,280.0,-796.25,-411.25,1,94.444,
01/01/2000,01:21:14.26,20.01,-60.39,-992.59,227.50,-665.0,-315.0,1,94.454,
01/01/2000,01:21:14.27,20.01,-60.39,-992.71,192.50,-691.25,-428.75,1,94.463,
01/01/2000,01:21:14.28,20.01,-60.27,-992.71,306.25,-665.0,-411.25,1,94.472,
01/01/2000,01:21:14.29,20.13,-60.27,-992.71,113.75,-647.50,-253.75,1,94.481,
01/01/2000,01:21:14.30,20.13,-60.15,-992.59,43.75,-743.75,-350.0,1,94.489,
01/01/2000,01:21:14.31,20.01,-60.39,-992.71,113.75,-787.50,-367.50,1,94.498,
01/01/2000,01:21:14.32,20.01,-60.39,-992.96,192.50,-708.75,-315.0,1,94.507,
01/01/2000,01:21:14.33,20.13,-60.27,-992.96,297.50,-743.75,-210.0,1,94.364,
01/01/2000,01:21:14.34,20.25,-60.27,-992.84,52.50,-700.0,-385.0,1,94.373,
01/01/2000,01:21:14.35,20.25,-60.27,-992.71,96.25,-778.75,-271.25,1,94.382,
01/01/2000,01:21:14.36,20.25,-60.39,-992.59,227.50,-586.25,-446.25,1,94.391,
01/01/2000,01:21:14.37,20.25,-60.51,-992.59,70.0,-630.0,-393.75,1,94.400,
01/01/2000,01:21:14.38,20.25,-60.39,-992.71,166.25,-700.0,-481.25,1,94.409,
01/01/2000,01:21:14.39,20.13,-60.39,-992.59,236.25,-673.75,-350.0,1,94.418,
01/01/2000,01:21:14.40,20.25,-60.27,-992.47,166.25,-691.25,-341.25,1,94.427,
01/01/2000,01:21:14.41,20.01,-60.39,-992.59,183.75,-726.25,-358.75,1,94.436,
01/01/2000,01:21:14.42,20.01,-60.51,-992.71,140.0,-708.75,-376.25,1,94.444,
01/01/2000,01:21:14.43,20.25,-60.51,-992.84,245.0,-708.75,-367.50,1,94.453,
01/01/2000,01:21:14.44,20.25,-60.27,-992.84,87.50,-577.50,-323.75,1,94.462,
01/01/2000,01:21:14.45,20.37,-60.27,-992.59,192.50,-726.25,-297.50,1,94.471,
01/01/2000,01:21:14.47,20.25,-60.27,-992.47,148.75,-708.75,-385.0,1,94.479,
01/01/2000,01:21:14.48,20.25,-60.39,-992.59,166.25,-638.75,-297.50,1,94.488,
01/01/2000,01:21:14.49,20.25,-60.39,-992.59,113.75,-796.25,-350.0,1,94.497,
01/01/2000,01:21:14.50,20.13,-60.27,-992.59,210.0,-735.0,-428.75,1,94.505,
01/01/2000,01:21:14.51,20.37,-60.27,-992.35,192.50,-638.75,-297.50,1,94.514,
01/01/2000,01:21:14.52,20.25,-60.39,-992.10,218.75,-717.50,-376.25,1,94.523,
01/01/2000,01:21:14.53,20.01,-60.39,-992.35,140.0,-665.0,-411.25,1,94.531,
01/01/2000,01:21:14.54,20.13,-60.39,-992.59,227.50,-682.50,-350.0,1,94.540,
01/01/2000,01:21:14.55,20.25,-60.51,-992.59,271.25,-735.0,-315.0,1,94.548,
01/01/2000,01:21:14.56,20.25,-60.51,-992.59,140.0,-708.75,-280.0,1,94.557,
01/01/2000,01:21:14.57,20.13,-60.51,-992.47,262.50,-708.75,-341.25,1,94.565,
01/01/2000,01:21:14.58,20.01,-60.51,-992.47,87.50,-612.50,-288.75,1,94.574,
01/01/2000,01:21:14.59,20.13,-60.39,-992.71,201.25,-691.25,-367.50,1,94.582,
01/01/2000,01:21:14.60,20.25,-60.15,-992.84,166.25,-700.0,-350.0,1,94.444,
01/01/2000,01:21:14.61,20.25,-60.27,-992.59,236.25,-700.0,-306.25,1,94.453,
01/01/2000,01:21:14.62,20.13,-60.15,-992.35,288.75,-673.75,-393.75,1,94.462,
01/01/2000,01:21:14.63,20.01,-60.27,-992.47,271.25,-691.25,-385.0,1,94.470,
01/01/2000,01:21:14.64,20.13,-60.15,-992.59,131.25,-691.25,-323.75,1,94.479,
01/01/2000,01:21:14.65,20.13,-60.15,-992.84,148.75,-586.25,-306.25,1,94.487,
01/01/2000,01:21:14.66,20.01,-60.15,-992.84,105.0,-647.50,-341.25,1,94.495,
01/01/2000,01:21:14.68,19.76,-60.27,-992.59,122.50,-673.75,-323.75,1,94.504,
01/01/2000,01:21:14.69,19.76,-60.27,-992.59,122.50,-630.0,-402.50,1,94.512,
01/01/2000,01:21:14.70,20.01,-60.27,-992.71,183.75,-752.50,-341.25,1,94.521,
01/01/2000,01:21:14.71,20.01,-60.27,-992.84,140.0,-647.50,-306.25,1,94.529,
01/01/2000,01:21:14.72,20.01,-60.27,-992.84,192.50,-673.75,-315.0,1,94.537,
01/01/2000,01:21:14.73,19.89,-60.39,-992.59,183.75,-778.75,-288.75,1,94.545,
01/01/2000,01:21:14.74,20.01,-60.27,-992.59,157.50,-621.25,-385.0,1,94.411,
01/01/2000,01:21:14.75,20.01,-60.39,-992.59,157.50,-717.50,-271.25,1,94.562,
01/01/2000,01:21:14.76,20.01,-60.51,-992.84,175.0,-752.50,-341.25,1,94.428,
01/01/2000,01:21:14.77,20.13,-60.51,-992.71,288.75,-577.50,-367.50,1,94.436,
01/01/2000,01:21:14.78,20.01,-60.27,-992.35,175.0,-682.50,-306.25,1,94.444,
01/01/2000,01:21:14.80,20.25,-60.27,-992.35,218.75,-647.50,-262.50,1,94.453,
01/01/2000,01:21:14.81,20.13,-60.39,-992.59,210.0,-638.75,-350.0,1,94.461,
01/01/2000,01:21:14.82,20.13,-60.51,-992.59,218.75,-831.25,-411.25,1,94.469,
01/01/2000,01:21:14.83,20.13,-60.39,-992.59,131.25,-682.50,-358.75,1,94.478,
01/01/2000,01:21:14.84,20.13,-60.27,-992.47,262.50,-735.0,-420.0,1,94.486,
01/01/2000,01:21:14.85,20.25,-60.27,-992.47,148.75,-647.50,-358.75,1,94.494,
01/01/2000,01:21:14.86,20.13,-60.39,-992.35,192.50,-787.50,-332.50,1,94.502,
01/01/2000,01:21:14.87,20.01,-60.27,-992.35,157.50,-700.0,-455.0,1,94.510,
01/01/2000,01:21:14.88,20.01,-60.39,-992.35,175.0,-647.50,-376.25,1,94.519,
01/01/2000,01:21:14.89,20.13,-60.27,-992.47,26.25,-726.25,-288.75,1,94.527,
01/01/2000,01:21:14.90,20.01,-60.27,-992.35,192.50,-621.25,-332.50,1,94.535,
01/01/2000,01:21:14.91,20.01,-60.27,-992.35,105.0,-656.25,-341.25,1,94.543,
01/01/2000,01:21:14.92,20.01,-60.39,-992.35,236.25,-665.0,-323.75,1,94.551,
01/01/2000,01:21:14.93,20.13,-60.27,-992.47,192.50,-770.0,-332.50,1,94.559,
01/01/2000,01:21:14.94,20.13,-60.27,-992.35,227.50,-665.0,-271.25,1,94.567,
01/01/2000,01:21:14.95,19.76,-60.15,-992.35,105.0,-735.0,-393.75,1,94.436,
01/01/2000,01:21:14.96,19.89,-60.27,-992.10,175.0,-700.0,-323.75,1,94.444,
01/01/2000,01:21:14.97,20.01,-60.15,-992.10,157.50,-743.75,-367.50,1,94.453,
01/01/2000,01:21:14.98,20.01,-60.15,-992.10,148.75,-700.0,-358.75,1,94.461,
01/01/2000,01:21:14.99,20.01,-60.15,-991.98,140.0,-743.75,-297.50,1,94.469,
01/01/2000,01:21:15.00,19.89,-60.15,-992.10,175.0,-708.75,-420.0,1,94.477,
01/01/2000,01:21:15.02,19.76,-60.27,-992.10,245.0,-647.50,-437.50,1,94.485,
01/01/2000,01:21:15.03,19.89,-60.15,-992.23,140.0,-735.0,-437.50,1,94.493,
01/01/2000,01:21:15.04,20.01,-60.15,-992.35,140.0,-691.25,-315.0,1,94.501,
01/01/2000,01:21:15.05,20.13,-60.27,-992.35,210.0,-743.75,-367.50,1,94.509,
01/01/2000,01:21:15.06,20.01,-60.27,-992.23,227.50,-708.75,-245.0,1,94.517,
01/01/2000,01:21:15.07,20.01,-60.27,-992.23,175.0,-630.0,-367.50,1,94.524,
01/01/2000,01:21:15.08,20.01,-60.02,-992.10,175.0,-743.75,-341.25,1,94.532,
01/01/2000,01:21:15.09,20.01,-60.15,-992.10,175.0,-700.0,-323.75,1,94.540,
01/01/2000,01:21:15.10,19.76,-60.15,-992.23,227.50,-700.0,-367.50,1,94.413,
01/01/2000,01:21:15.11,19.89,-60.27,-992.10,148.75,-638.75,-367.50,1,94.421,
01/01/2000,01:21:15.12,20.01,-60.15,-992.10,175.0,-726.25,-280.0,1,94.429,
01/01/2000,01:21:15.13,20.01,-60.15,-992.23,183.75,-726.25,-271.25,1,94.437,
01/01/2000,01:21:15.14,20.01,-60.02,-992.23,245.0,-708.75,-297.50,1,94.444,
01/01/2000,01:21:15.15,20.01,-60.15,-992.23,227.50,-682.50,-315.0,1,94.452,
01/01/2000,01:21:15.17,20.25,-60.27,-992.10,105.0,-630.0,-455.0,1,94.460,
01/01/2000,01:21:15.18,20.25,-60.27,-992.10,166.25,-778.75,-297.50,1,94.468,
01/01/2000,01:21:15.19,20.37,-60.27,-992.10,78.75,-682.50,-315.0,1,94.476,
01/01/2000,01:21:15.20,20.37,-60.39,-992.10,87.50,-700.0,-402.50,1,94.484,
01/01/2000,01:21:15.21,20.25,-60.27,-991.98,218.75,-691.25,-393.75,1,94.492,
01/01/2000,01:21:15.22,20.25,-60.27,-991.98,122.50,-656.25,-341.25,1,94.499,
01/01/2000,01:21:15.23,20.25,-60.02,-991.98,-70.0,-752.50,-376.25,1,94.507,
01/01/2000,01:21:15.24,20.25,-60.27,-991.86,236.25,-840.0,-393.75,1,94.515,
01/01/2000,01:21:15.25,20.25,-60.27,-991.86,332.50,-770.0,-323.75,1,94.522,
01/01/2000,01:21:15.26,20.25,-60.27,-991.86,218.75,-743.75,-306.25,1,94.530,
01/01/2000,01:21:15.27,20.37,-60.27,-991.86,210.0,-691.25,-411.25,1,94.538,
01/01/2000,01:21:15.28,20.13,-60.27,-991.98,297.50,-673.75,-280.0,1,94.545,
01/01/2000,01:21:15.29,20.13,-60.27,-992.10,26.25,-647.50,-402.50,1,94.553,
01/01/2000,01:21:15.31,20.25,-60.39,-991.86,122.50,-726.25,-306.25,1,94.429,
01/01/2000,01:21:15.32,20.01,-60.39,-991.86,218.75,-743.75,-411.25,1,94.437,
01/01/2000,01:21:15.33,20.13,-60.27,-991.98,78.75,-647.50,-323.75,1,94.444,
01/01/2000,01:21:15.34,20.13,-60.39,-991.98,157.50,-673.75,-341.25,1,94.452,
01/01/2000,01:21:15.35,20.13,-60.27,-991.86,192.50,-673.75,-288.75,1,94.460,
01/01/2000,01:21:15.36,20.01,-60.51,-991.74,122.50,-717.50,-280.0,1,94.467,
01/01/2000,01:21:15.37,20.01,-60.51,-991.86,87.50,-743.75,-367.50,1,94.475,
01/01/2000,01:21:15.38,20.01,-60.51,-991.86,17.50,-638.75,-402.50,1,94.483,
01/01/2000,01:21:15.39,20.01,-60.51,-991.98,201.25,-778.75,-315.0,1,94.490,
01/01/2000,01:21:15.40,20.01,-60.39,-991.98,175.0,-717.50,-367.50,1,94.498,
01/01/2000,01:21:15.41,20.01,-60.39,-991.98,245.0,-708.75,-393.75,1,94.505,
01/01/2000,01:21:15.42,20.13,-60.27,-991.98,297.50,-761.25,-297.50,1,94.513,
01/01/2000,01:21:15.43,20.13,-60.27,-991.86,201.25,-761.25,-420.0,1,94.521,
01/01/2000,01:21:15.44,20.25,-60.39,-991.98,201.25,-647.50,-288.75,1,94.528,
01/01/2000,01:21:15.45,20.37,-60.51,-991.98,148.75,-568.75,-385.0,1,94.407,
01/01/2000,01:21:15.46,20.37,-60.51,-992.10,157.50,-726.25,-402.50,1,94.414,
01/01/2000,01:21:15.47,20.37,-60.51,-992.23,140.0,-665.0,-271.25,1,94.422,
01/01/2000,01:21:15.48,20.50,-60.63,-992.10,43.75,-700.0,-367.50,1,94.429,
01/01/2000,01:21:15.49,20.50,-60.63,-992.10,201.25,-708.75,-402.50,1,94.437,
01/01/2000,01:21:15.50,20.37,-60.63,-992.23,113.75,-805.0,-341.25,1,94.444,
01/01/2000,01:21:15.52,20.37,-60.63,-992.23,105.0,-673.75,-428.75,1,94.452,
01/01/2000,01:21:15.53,20.50,-60.51,-992.35,131.25,-875.0,-245.0,1,94.459,
01/01/2000,01:21:15.54,20.37,-60.39,-992.23,140.0,-708.75,-280.0,1,94.467,
01/01/2000,01:21:15.55,20.25,-60.27,-992.10,210.0,-656.25,-297.50,1,94.474,
01/01/2000,01:21:15.56,20.25,-60.39,-992.23,166.25,-796.25,-385.0,1,94.482,
01/01/2000,01:21:15.57,20.25,-60.27,-992.35,175.0,-743.75,-341.25,1,94.489,
01/01/2000,01:21:15.58,20.25,-60.27,-992.47,236.25,-682.50,-350.0,1,94.497,
01/01/2000,01:21:15.59,20.25,-60.15,-992.23,166.25,-770.0,-280.0,1,94.504,
01/01/2000,01:21:15.60,20.25,-60.27,-992.10,218.75,-647.50,-402.50,1,94.511,
01/01/2000,01:21:15.61,20.01,-60.39,-992.10,166.25,-612.50,-402.50,1,94.519,
01/01/2000,01:21:15.62,20.01,-60.51,-992.23,253.75,-665.0,-463.75,1,94.526,
01/01/2000,01:21:15.63,20.13,-60.51,-992.10,306.25,-717.50,-358.75,1,94.533,
01/01/2000,01:21:15.64,20.25,-60.27,-992.10,175.0,-682.50,-113.75,1,94.541,
01/01/2000,01:21:15.65,20.01,-60.39,-991.98,61.25,-787.50,-358.75,1,94.548,
01/01/2000,01:21:15.67,20.25,-60.51,-992.10,227.50,-665.0,-551.25,1,94.430,
01/01/2000,01:21:15.67,20.25,-60.39,-992.10,43.75,-665.0,-122.50,1,94.437,
01/01/2000,01:21:15.69,20.25,-60.27,-992.23,253.75,-586.25,-271.25,1,94.444,
01/01/2000,01:21:15.70,20.13,-60.39,-992.23,113.75,-752.50,-306.25,1,94.452,
01/01/2000,01:21:15.71,20.25,-60.27,-992.35,122.50,-770.0,-350.0,1,94.459,
01/01/2000,01:21:15.72,20.37,-60.51,-992.47,262.50,-726.25,-245.0,1,94.466,
01/01/2000,01:21:15.73,20.13,-60.51,-992.71,175.0,-761.25,-472.50,1,94.474,
01/01/2000,01:21:15.74,20.13,-60.39,-992.71,131.25,-656.25,-358.75,1,94.481,
01/01/2000,01:21:15.75,20.01,-60.51,-992.71,227.50,-770.0,-341.25,1,94.488,
01/01/2000,01:21:15.76,20.01,-60.27,-992.59,52.50,-682.50,-350.0,1,94.495,
01/01/2000,01:21:15.77,19.76,-60.51,-992.59,105.0,-691.25,-341.25,1,94.503,
01/01/2000,01:21:15.78,20.01,-60.51,-992.47,245.0,-752.50,-437.50,1,94.510,
01/01/2000,01:21:15.79,20.13,-60.51,-992.59,148.75,-735.0,-341.25,1,94.517,
01/01/2000,01:21:15.80,19.76,-60.76,-992.59,201.25,-691.25,-376.25,1,94.401,
01/01/2000,01:21:15.82,20.01,-60.51,-992.47,192.50,-743.75,-437.50,1,94.408,
01/01/2000,01:21:15.83,20.01,-60.39,-992.59,227.50,-638.75,-367.50,1,94.416,
01/01/2000,01:21:15.84,20.01,-60.39,-992.59,105.0,-761.25,-245.0,1,94.423,
01/01/2000,01:21:15.85,20.01,-60.51,-992.59,271.25,-700.0,-393.75,1,94.430,
01/01/2000,01:21:15.86,20.13,-60.63,-992.35,113.75,-735.0,-218.75,1,94.437,
01/01/2000,01:21:15.87,20.13,-60.76,-992.35,70.0,-796.25,-393.75,1,94.444,
01/01/2000,01:21:15.88,20.13,-60.76,-992.35,140.0,-708.75,-306.25,1,94.452,
01/01/2000,01:21:15.89,20.25,-60.51,-992.23,192.50,-770.0,-297.50,1,94.459,
01/01/2000,01:21:15.90,20.25,-60.51,-992.23,236.25,-708.75,-306.25,1,94.466,
01/01/2000,01:21:15.91,20.25,-60.51,-992.10,105.0,-665.0,-323.75,1,94.473,
01/01/2000,01:21:15.92,20.37,-60.51,-991.98,227.50,-673.75,-358.75,1,94.480,
01/01/2000,01:21:15.93,20.50,-60.39,-992.10,148.75,-752.50,-350.0,1,94.487,
01/01/2000,01:21:15.94,20.50,-60.39,-992.35,157.50,-735.0,-367.50,1,94.494,
01/01/2000,01:21:15.95,20.37,-60.27,-992.35,218.75,-761.25,-288.75,1,94.501,
01/01/2000,01:21:15.96,20.37,-60.02,-992.35,43.75,-612.50,-253.75,1,94.508,
01/01/2000,01:21:15.97,20.37,-60.02,-992.47,96.25,-603.75,-341.25,1,94.515,
01/01/2000,01:21:15.98,20.37,-60.02,-992.35,175.0,-682.50,-236.25,1,94.522,
01/01/2000,01:21:15.99,20.37,-60.27,-992.35,236.25,-735.0,-402.50,1,94.529,
01/01/2000,01:21:16.00,20.50,-60.39,-992.35,148.75,-682.50,-350.0,1,94.536,
01/01/2000,01:21:16.01,20.37,-60.39,-992.47,140.0,-647.50,-350.0,1,94.423,
01/01/2000,01:21:16.02,20.25,-60.27,-992.47,262.50,-743.75,-402.50,1,94.430,
01/01/2000,01:21:16.03,20.25,-60.27,-992.59,105.0,-638.75,-367.50,1,94.437,
01/01/2000,01:21:16.04,20.25,-60.27,-992.47,218.75,-735.0,-315.0,1,94.444,
01/01/2000,01:21:16.05,20.25,-60.39,-992.47,262.50,-735.0,-271.25,1,94.451,
01/01/2000,01:21:16.06,20.25,-60.51,-992.23,148.75,-700.0,-420.0,1,94.458,
01/01/2000,01:21:16.07,20.37,-60.39,-992.35,175.0,-673.75,-481.25,1,94.465,
01/01/2000,01:21:16.09,20.50,-60.27,-992.35,166.25,-700.0,-218.75,1,94.472,
01/01/2000,01:21:16.10,20.25,-60.27,-992.35,96.25,-717.50,-288.75,1,94.479,
01/01/2000,01:21:16.11,20.13,-60.39,-992.35,210.0,-638.75,-358.75,1,94.486,
01/01/2000,01:21:16.12,20.25,-60.39,-992.23,210.0,-726.25,-315.0,1,94.493,
01/01/2000,01:21:16.13,20.13,-60.51,-992.35,245.0,-743.75,-446.25,1,94.500,
01/01/2000,01:21:16.14,20.13,-60.39,-992.35,87.50,-726.25,-245.0,1,94.507,
01/01/2000,01:21:16.15,20.01,-60.27,-992.23,297.50,-700.0,-393.75,1,94.514,
01/01/2000,01:21:16.16,20.01,-60.27,-992.23,306.25,-700.0,-315.0,1,94.521,
01/01/2000,01:21:16.17,20.01,-60.27,-992.10,148.75,-708.75,-341.25,1,94.527,
01/01/2000,01:21:16.18,20.01,-60.27,-992.23,131.25,-761.25,-350.0,1,94.534,
01/01/2000,01:21:16.19,20.13,-60.39,-992.23,236.25,-778.75,-376.25,1,94.541,
01/01/2000,01:21:16.20,20.01,-60.39,-992.10,52.50,-673.75,-367.50,1,94.548,
01/01/2000,01:21:16.21,19.76,-60.39,-991.98,131.25,-665.0,-341.25,1,94.554,
01/01/2000,01:21:16.22,20.01,-60.27,-992.10,218.75,-673.75,-262.50,1,94.444,
01/01/2000,01:21:16.23,20.13,-60.27,-992.23,245.0,-665.0,-297.50,1,94.451,
01/01/2000,01:21:16.25,20.13,-60.39,-992.35,236.25,-822.50,-315.0,1,94.458,
01/01/2000,01:21:16.25,20.13,-60.27,-992.10,140.0,-813.75,-428.75,1,94.465,
01/01/2000,01:21:16.27,20.25,-60.51,-991.86,61.25,-691.25,-262.50,1,94.472,
01/01/2000,01:21:16.28,20.25,-60.51,-991.86,253.75,-735.0,-367.50,1,94.479,
01/01/2000,01:21:16.29,20.25,-60.27,-992.10,218.75,-691.25,-350.0,1,94.485,
01/01/2000,01:21:16.30,20.25,-60.27,-992.10,148.75,-700.0,-411.25,1,94.492,
01/01/2000,01:21:16.31,20.01,-60.27,-991.86,157.50,-656.25,-323.75,1,94.499,
01/01/2000,01:21:16.32,20.01,-60.15,-992.10,-26.25,-761.25,-315.0,1,94.390,
01/01/2000,01:21:16.33,20.25,-60.27,-992.10,227.50,-726.25,-297.50,1,94.397,
01/01/2000,01:21:16.34,20.13,-60.27,-992.10,-61.25,-708.75,-420.0,1,94.404,
01/01/2000,01:21:16.35,20.01,-60.27,-991.98,271.25,-630.0,-280.0,1,94.411,
01/01/2000,01:21:16.37,20.01,-60.15,-991.98,192.50,-700.0,-420.0,1,94.417,
01/01/2000,01:21:16.38,20.01,-60.27,-992.10,105.0,-498.75,-420.0,1,94.424,
01/01/2000,01:21:16.39,20.01,-60.27,-992.10,271.25,-682.50,-367.50,1,94.431,
01/01/2000,01:21:16.40,20.25,-60.27,-992.10,157.50,-656.25,-323.75,1,94.438,
01/01/2000,01:21:16.41,20.37,-60.27,-992.10,96.25,-735.0,-297.50,1,94.444,
01/01/2000,01:21:16.42,20.25,-60.51,-992.10,122.50,-603.75,-297.50,1,94.451,
01/01/2000,01:21:16.43,20.25,-60.51,-992.23,140.0,-717.50,-218.75,1,94.458,
01/01/2000,01:21:16.44,20.13,-60.51,-992.35,262.50,-805.0,-376.25,1,94.465,
01/01/2000,01:21:16.45,20.13,-60.39,-992.23,148.75,-726.25,-288.75,1,94.471,
01/01/2000,01:21:16.46,20.13,-60.27,-992.23,8.75,-735.0,-367.50,1,94.478,
01/01/2000,01:21:16.47,20.01,-60.51,-992.10,227.50,-813.75,-385.0,1,94.484,
01/01/2000,01:21:16.48,20.25,-60.39,-992.23,227.50,-691.25,-420.0,1,94.491,
01/01/2000,01:21:16.49,20.37,-60.27,-992.35,192.50,-717.50,-455.0,1,94.498,
01/01/2000,01:21:16.50,20.25,-60.27,-992.23,280.0,-586.25,-411.25,1,94.504,
01/01/2000,01:21:16.51,20.25,-60.02,-992.23,113.75,-761.25,-297.50,1,94.511,
01/01/2000,01:21:16.52,20.13,-60.27,-992.23,210.0,-682.50,-376.25,1,94.517,
01/01/2000,01:21:16.53,20.25,-60.39,-992.23,218.75,-656.25,-288.75,1,94.524,
01/01/2000,01:21:16.54,20.37,-60.39,-992.10,201.25,-691.25,-411.25,1,94.530,
01/01/2000,01:21:16.55,20.37,-60.39,-992.10,183.75,-621.25,-358.75,1,94.537,
01/01/2000,01:21:16.56,20.37,-60.15,-992.10,122.50,-647.50,-271.25,1,94.543,
01/01/2000,01:21:16.58,20.25,-60.15,-992.10,96.25,-735.0,-358.75,1,94.438,
01/01/2000,01:21:16.59,20.37,-60.27,-992.10,175.0,-743.75,-280.0,1,94.444,
01/01/2000,01:21:16.60,20.37,-60.27,-992.10,236.25,-796.25,-315.0,1,94.451,
01/01/2000,01:21:16.61,20.37,-60.27,-992.10,122.50,-770.0,-245.0,1,94.458,
01/01/2000,01:21:16.62,20.37,-60.27,-991.98,210.0,-778.75,-315.0,1,94.464,
01/01/2000,01:21:16.63,20.25,-60.27,-991.98,166.25,-770.0,-323.75,1,94.471,
01/01/2000,01:21:16.64,20.50,-60.02,-992.10,140.0,-700.0,-323.75,1,94.477,
01/01/2000,01:21:16.65,20.37,-60.27,-992.10,131.25,-682.50,-341.25,1,94.484,
01/01/2000,01:21:16.66,20.25,-60.27,-991.98,8.75,-630.0,-315.0,1,94.490,
01/01/2000,01:21:16.67,20.25,-60.15,-991.86,70.0,-796.25,-437.50,1,94.496,
01/01/2000,01:21:16.68,20.25,-60.02,-991.86,201.25,-743.75,-367.50,1,94.503,
01/01/2000,01:21:16.69,20.25,-60.02,-991.98,140.0,-752.50,-358.75,1,94.509,
01/01/2000,01:21:16.70,20.25,-60.15,-992.10,35.0,-735.0,-306.25,1,94.516,
01/01/2000,01:21:16.71,20.13,-60.27,-992.10,210.0,-796.25,-411.25,1,94.412,
01/01/2000,01:21:16.72,20.01,-60.27,-992.10,61.25,-735.0,-341.25,1,94.419,
01/01/2000,01:21:16.73,20.13,-60.27,-992.10,52.50,-743.75,-393.75,1,94.425,
01/01/2000,01:21:16.74,20.13,-60.15,-992.10,70.0,-700.0,-315.0,1,94.432,
01/01/2000,01:21:16.75,20.25,-60.27,-992.10,280.0,-691.25,-367.50,1,94.438,
01/01/2000,01:21:16.76,19.89,-60.15,-992.23,122.50,-726.25,-297.50,1,94.444,
01/01/2000,01:21:16.77,19.89,-60.27,-992.35,96.25,-542.50,-332.50,1,94.451,
01/01/2000,01:21:16.79,20.01,-60.02,-992.35,140.0,-647.50,-385.0,1,94.457,
01/01/2000,01:21:16.80,20.13,-60.27,-992.23,157.50,-682.50,-236.25,1,94.464,
01/01/2000,01:21:16.81,20.13,-60.27,-992.10,201.25,-638.75,-306.25,1,94.470,
01/01/2000,01:21:16.82,20.01,-60.27,-992.10,306.25,-726.25,-385.0,1,94.476,
01/01/2000,01:21:16.83,20.01,-60.27,-992.35,52.50,-700.0,-376.25,1,94.483,
01/01/2000,01:21:16.84,20.13,-60.27,-992.35,131.25,-603.75,-332.50,1,94.381,
01/01/2000,01:21:16.85,20.25,-60.27,-992.10,43.75,-630.0,-376.25,1,94.495,
01/01/2000,01:21:16.86,20.25,-60.27,-991.86,157.50,-621.25,-306.25,1,94.394,
01/01/2000,01:21:16.87,20.25,-60.27,-991.98,96.25,-735.0,-341.25,1,94.400,
01/01/2000,01:21:16.88,20.13,-60.39,-991.98,157.50,-586.25,-358.75,1,94.406,
01/01/2000,01:21:16.89,20.25,-60.27,-992.23,87.50,-638.75,-323.75,1,94.413,
01/01/2000,01:21:16.90,20.25,-60.15,-992.10,236.25,-665.0,-323.75,1,94.419,
01/01/2000,01:21:16.91,20.13,-60.02,-991.98,166.25,-665.0,-332.50,1,94.425,
01/01/2000,01:21:16.92,20.01,-60.27,-991.86,175.0,-630.0,-271.25,1,94.432,
01/01/2000,01:21:16.94,20.25,-60.27,-991.86,183.75,-691.25,-306.25,1,94.438,
01/01/2000,01:21:16.94,20.25,-60.39,-991.98,280.0,-787.50,-280.0,1,94.444,
01/01/2000,01:21:16.96,20.13,-60.27,-991.98,210.0,-691.25,-411.25,1,94.451,
01/01/2000,01:21:16.97,20.01,-60.27,-991.98,323.75,-630.0,-437.50,1,94.457,
01/01/2000,01:21:16.98,20.01,-60.15,-991.86,52.50,-682.50,-271.25,1,94.463,
01/01/2000,01:21:16.99,20.01,-60.27,-991.98,367.50,-717.50,-533.75,1,94.470,
01/01/2000,01:21:17.00,20.01,-60.15,-991.86,105.0,-787.50,-350.0,1,94.476,
01/01/2000,01:21:17.01,20.13,-60.27,-991.86,61.25,-621.25,-341.25,1,94.482,
01/01/2000,01:21:17.02,19.89,-60.39,-991.98,166.25,-700.0,-358.75,1,94.488,
01/01/2000,01:21:17.03,20.01,-60.27,-992.10,140.0,-787.50,-367.50,1,94.494,
01/01/2000,01:21:17.04,20.37,-60.15,-991.98,245.0,-665.0,-411.25,1,94.501,
01/01/2000,01:21:17.05,20.25,-60.27,-991.98,157.50,-656.25,-262.50,1,94.507,
01/01/2000,01:21:17.06,20.37,-60.27,-991.86,78.75,-761.25,-315.0,1,94.513,
01/01/2000,01:21:17.07,20.25,-60.39,-991.98,157.50,-778.75,-420.0,1,94.519,
01/01/2000,01:21:17.08,20.37,-60.15,-992.10,192.50,-717.50,-271.25,1,94.525,
01/01/2000,01:21:17.09,20.37,-60.15,-992.10,245.0,-700.0,-227.50,1,94.531,
01/01/2000,01:21:17.10,20.37,-60.02,-992.10,157.50,-682.50,-411.25,1,94.537,
01/01/2000,01:21:17.11,20.25,-60.02,-991.98,201.25,-813.75,-280.0,1,94.543,
01/01/2000,01:21:17.12,20.25,-60.02,-991.86,236.25,-708.75,-385.0,1,94.549,
01/01/2000,01:21:17.13,20.13,-60.27,-991.86,131.25,-647.50,-288.75,1,94.451,
01/01/2000,01:21:17.14,20.13,-60.27,-991.86,201.25,-735.0,-315.0,1,94.457,
01/01/2000,01:21:17.15,20.13,-60.27,-992.10,210.0,-743.75,-262.50,1,94.463,
01/01/2000,01:21:17.16,20.25,-60.02,-992.10,122.50,-630.0,-323.75,1,94.469,
01/01/2000,01:21:17.17,20.25,-60.15,-992.10,70.0,-638.75,-288.75,1,94.475,
01/01/2000,01:21:17.19,20.13,-60.27,-991.98,96.25,-778.75,-525.0,1,94.481,
01/01/2000,01:21:17.19,20.25,-60.27,-991.98,113.75,-542.50,-393.75,1,94.487,
01/01/2000,01:21:17.21,20.25,-60.27,-992.10,148.75,-560.0,-393.75,1,94.493,
01/01/2000,01:21:17.22,20.25,-60.15,-991.98,113.75,-647.50,-280.0,1,94.499,
01/01/2000,01:21:17.23,20.25,-60.27,-991.98,122.50,-656.25,-367.50,1,94.505,
01/01/2000,01:21:17.24,20.25,-60.27,-992.10,113.75,-656.25,-297.50,1,94.512,
01/01/2000,01:21:17.25,20.25,-60.51,-992.10,148.75,-621.25,-376.25,1,94.518,
01/01/2000,01:21:17.26,20.13,-60.63,-992.10,157.50,-542.50,-437.50,1,94.420,
01/01/2000,01:21:17.27,20.37,-60.51,-992.23,43.75,-455.0,-385.0,1,94.530,
01/01/2000,01:21:17.29,20.50,-60.51,-992.10,218.75,-708.75,-376.25,1,94.432,
01/01/2000,01:21:17.30,20.50,-60.51,-992.10,8.75,-726.25,-297.50,1,94.438,
01/01/2000,01:21:17.31,20.25,-60.51,-992.10,288.75,-638.75,-332.50,1,94.444,
01/01/2000,01:21:17.32,20.01,-60.39,-991.98,271.25,-726.25,-376.25,1,94.450,
01/01/2000,01:21:17.33,20.13,-60.27,-991.98,78.75,-735.0,-323.75,1,94.457,
01/01/2000,01:21:17.34,20.13,-60.15,-991.86,218.75,-761.25,-350.0,1,94.360,
01/01/2000,01:21:17.36,20.13,-60.27,-991.86,140.0,-612.50,-367.50,1,94.366,
01/01/2000,01:21:17.37,20.13,-60.51,-992.10,113.75,-656.25,-315.0,1,94.372,
01/01/2000,01:21:17.38,20.13,-60.39,-992.10,148.75,-656.25,-210.0,1,94.378,
01/01/2000,01:21:17.39,20.13,-60.39,-991.86,236.25,-665.0,-271.25,1,94.384,
01/01/2000,01:21:17.40,20.25,-60.27,-991.62,96.25,-638.75,-297.50,1,94.391,
01/01/2000,01:21:17.41,20.13,-60.39,-991.62,175.0,-682.50,-420.0,1,94.397,
01/01/2000,01:21:17.42,20.13,-60.51,-991.98,78.75,-665.0,-385.0,1,94.403,
01/01/2000,01:21:17.43,20.13,-60.63,-992.23,43.75,-560.0,-306.25,1,94.409,
01/01/2000,01:21:17.44,20.01,-60.51,-992.10,140.0,-778.75,-367.50,1,94.415,
01/01/2000,01:21:17.45,20.01,-60.51,-991.86,96.25,-621.25,-245.0,1,94.421,
01/01/2000,01:21:17.46,19.89,-60.51,-991.74,227.50,-752.50,-358.75,1,94.427,
01/01/2000,01:21:17.47,19.89,-60.51,-991.74,157.50,-673.75,-341.25,1,94.433,
01/01/2000,01:21:17.48,20.01,-60.51,-991.98,183.75,-700.0,-288.75,1,94.438,
01/01/2000,01:21:17.49,20.01,-60.51,-992.10,166.25,-673.75,-288.75,1,94.444,
01/01/2000,01:21:17.50,20.01,-60.27,-991.98,0.0,-708.75,-367.50,1,94.450,
01/01/2000,01:21:17.51,20.01,-60.27,-991.86,271.25,-673.75,-350.0,1,94.456,
01/01/2000,01:21:17.52,20.01,-60.27,-991.98,192.50,-638.75,-341.25,1,94.462,
01/01/2000,01:21:17.53,20.01,-60.27,-992.10,175.0,-717.50,-315.0,1,94.468,
01/01/2000,01:21:17.54,20.01,-60.27,-991.98,148.75,-700.0,-367.50,1,94.474,
01/01/2000,01:21:17.55,19.89,-60.15,-991.98,96.25,-577.50,-393.75,1,94.480,
01/01/2000,01:21:17.56,20.01,-60.15,-991.98,70.0,-787.50,-376.25,1,94.386,
01/01/2000,01:21:17.57,20.01,-60.15,-991.98,140.0,-682.50,-341.25,1,94.392,
01/01/2000,01:21:17.58,20.13,-60.15,-992.10,26.25,-586.25,-315.0,1,94.397,
01/01/2000,01:21:17.60,20.13,-60.27,-992.10,245.0,-595.0,-393.75,1,94.403,
01/01/2000,01:21:17.60,20.13,-60.02,-992.10,26.25,-595.0,-297.50,1,94.409,
01/01/2000,01:21:17.62,20.25,-60.15,-992.10,175.0,-708.75,-385.0,1,94.415,
01/01/2000,01:21:17.62,20.01,-60.02,-991.98,201.25,-682.50,-385.0,1,94.421,
01/01/2000,01:21:17.64,20.13,-60.15,-991.86,315.0,-603.75,-306.25,1,94.427,
01/01/2000,01:21:17.65,20.13,-60.27,-991.86,148.75,-708.75,-288.75,1,94.433,
01/01/2000,01:21:17.66,20.13,-60.39,-991.86,122.50,-691.25,-315.0,1,94.439,
01/01/2000,01:21:17.67,20.25,-60.39,-991.86,122.50,-735.0,-315.0,1,94.444,
01/01/2000,01:21:17.68,20.25,-60.39,-991.86,201.25,-682.50,-332.50,1,94.450,
01/01/2000,01:21:17.69,20.13,-60.39,-991.86,253.75,-673.75,-271.25,1,94.456,
01/01/2000,01:21:17.70,20.13,-60.39,-991.86,271.25,-656.25,-297.50,1,94.462,
01/01/2000,01:21:17.71,20.01,-60.39,-992.10,218.75,-743.75,-350.0,1,94.369,
01/01/2000,01:21:17.72,20.01,-60.27,-991.98,122.50,-595.0,-262.50,1,94.375,
01/01/2000,01:21:17.73,20.01,-60.27,-991.98,262.50,-700.0,-376.25,1,94.381,
01/01/2000,01:21:17.74,20.01,-60.27,-992.10,201.25,-708.75,-323.75,1,94.387,
01/01/2000,01:21:17.75,20.25,-60.27,-991.98,227.50,-700.0,-288.75,1,94.393,
01/01/2000,01:21:17.76,20.37,-60.15,-991.86,96.25,-638.75,-262.50,1,94.398,
01/01/2000,01:21:17.78,19.89,-60.27,-991.98,175.0,-735.0,-350.0,1,94.404,
01/01/2000,01:21:17.79,19.64,-60.27,-991.98,166.25,-796.25,-332.50,1,94.410,
01/01/2000,01:21:17.80,20.37,-60.02,-991.86,35.0,-647.50,-420.0,1,94.416,
01/01/2000,01:21:17.81,20.37,-60.39,-991.86,253.75,-621.25,-218.75,1,94.421,
01/01/2000,01:21:17.82,20.25,-60.51,-991.74,105.0,-691.25,-323.75,1,94.427,
01/01/2000,01:21:17.83,19.89,-60.76,-991.86,148.75,-638.75,-516.25,1,94.433,
01/01/2000,01:21:17.84,20.13,-60.27,-992.23,61.25,-665.0,-315.0,1,94.439,
01/01/2000,01:21:17.85,20.37,-59.90,-992.23,236.25,-752.50,-245.0,1,94.347,
01/01/2000,01:21:17.87,20.13,-60.02,-991.98,43.75,-603.75,-367.50,1,94.353,
01/01/2000,01:21:17.88,20.01,-60.27,-992.10,183.75,-726.25,-280.0,1,94.359,
01/01/2000,01:21:17.89,20.25,-60.27,-992.35,192.50,-691.25,-332.50,1,94.365,
01/01/2000,01:21:17.90,20.37,-60.15,-992.59,192.50,-691.25,-481.25,1,94.371,
01/01/2000,01:21:17.91,20.25,-60.02,-992.47,166.25,-770.0,-402.50,1,94.376,
01/01/2000,01:21:17.92,20.01,-60.02,-992.23,87.50,-603.75,-376.25,1,94.382,
01/01/2000,01:21:17.93,19.89,-60.15,-992.10,227.50,-752.50,-315.0,1,94.388,
01/01/2000,01:21:17.94,20.01,-60.27,-992.35,218.75,-752.50,-376.25,1,94.393,
01/01/2000,01:21:17.95,20.25,-60.39,-992.47,175.0,-770.0,-393.75,1,94.399,
01/01/2000,01:21:17.96,20.37,-60.27,-992.35,113.75,-612.50,-297.50,1,94.405,
01/01/2000,01:21:17.97,20.25,-60.27,-992.23,192.50,-761.25,-402.50,1,94.411,
01/01/2000,01:21:17.98,20.13,-60.27,-992.23,166.25,-787.50,-297.50,1,94.416,
01/01/2000,01:21:17.99,20.13,-60.15,-992.47,306.25,-621.25,-323.75,1,94.422,
01/01/2000,01:21:18.00,20.25,-60.27,-992.47,70.0,-717.50,-385.0,1,94.428,
01/01/2000,01:21:18.01,20.25,-60.39,-992.35,78.75,-691.25,-341.25,1,94.433,
01/01/2000,01:21:18.02,20.25,-60.27,-992.10,131.25,-638.75,-420.0,1,94.439,
01/01/2000,01:21:18.03,20.13,-60.39,-992.10,43.75,-735.0,-288.75,1,94.444,
01/01/2000,01:21:18.04,20.01,-60.27,-992.10,245.0,-770.0,-358.75,1,94.450,
01/01/2000,01:21:18.05,20.13,-60.15,-992.23,96.25,-708.75,-297.50,1,94.456,
01/01/2000,01:21:18.06,20.25,-60.27,-992.23,183.75,-691.25,-288.75,1,94.461,
01/01/2000,01:21:18.07,20.13,-60.27,-992.10,280.0,-673.75,-393.75,1,94.467,
01/01/2000,01:21:18.08,20.25,-60.27,-991.98,122.50,-647.50,-367.50,1,94.472,
01/01/2000,01:21:18.09,20.37,-60.15,-991.98,35.0,-743.75,-341.25,1,94.478,
01/01/2000,01:21:18.10,20.25,-60.15,-992.10,87.50,-691.25,-297.50,1,94.483,
01/01/2000,01:21:18.11,20.13,-60.15,-992.23,183.75,-708.75,-385.0,1,94.489,
01/01/2000,01:21:18.12,20.01,-60.15,-992.23,105.0,-630.0,-437.50,1,94.494,
01/01/2000,01:21:18.13,20.13,-60.15,-992.10,87.50,-717.50,-446.25,1,94.406,
01/01/2000,01:21:18.15,20.13,-60.27,-992.10,113.75,-656.25,-428.75,1,94.411,
01/01/2000,01:21:18.15,20.01,-60.27,-992.23,35.0,-787.50,-306.25,1,94.417,
01/01/2000,01:21:18.17,20.01,-60.39,-992.23,367.50,-682.50,-358.75,1,94.422,
01/01/2000,01:21:18.18,20.13,-60.27,-992.35,227.50,-673.75,-376.25,1,94.428,
01/01/2000,01:21:18.19,20.13,-60.27,-992.23,201.25,-612.50,-402.50,1,94.433,
01/01/2000,01:21:18.20,20.25,-60.27,-992.10,253.75,-726.25,-227.50,1,94.439,
01/01/2000,01:21:18.21,20.37,-60.51,-992.10,140.0,-656.25,-358.75,1,94.444,
01/01/2000,01:21:18.22,20.37,-60.63,-992.23,192.50,-647.50,-358.75,1,94.450,
01/01/2000,01:21:18.23,20.37,-60.63,-992.10,157.50,-700.0,-358.75,1,94.455,
01/01/2000,01:21:18.24,20.25,-60.51,-992.10,70.0,-840.0,-341.25,1,94.461,
01/01/2000,01:21:18.25,20.13,-60.39,-992.10,70.0,-778.75,-323.75,1,94.466,
01/01/2000,01:21:18.26,20.13,-60.39,-991.98,17.50,-621.25,-341.25,1,94.472,
01/01/2000,01:21:18.27,20.13,-60.39,-992.10,175.0,-770.0,-402.50,1,94.384,
01/01/2000,01:21:18.28,20.01,-60.51,-992.10,96.25,-603.75,-323.75,1,94.390,
01/01/2000,01:21:18.29,20.01,-60.51,-992.23,166.25,-603.75,-411.25,1,94.395,
01/01/2000,01:21:18.30,20.01,-60.27,-992.35,113.75,-708.75,-315.0,1,94.401,
01/01/2000,01:21:18.31,20.01,-60.15,-992.35,253.75,-805.0,-288.75,1,94.406,
01/01/2000,01:21:18.32,20.01,-60.02,-992.35,201.25,-691.25,-245.0,1,94.412,
01/01/2000,01:21:18.34,20.01,-60.27,-992.35,52.50,-630.0,-350.0,1,94.417,
01/01/2000,01:21:18.35,20.01,-60.27,-992.35,131.25,-691.25,-455.0,1,94.423,
01/01/2000,01:21:18.36,20.25,-60.27,-992.10,-8.75,-717.50,-315.0,1,94.428,
01/01/2000,01:21:18.37,20.25,-60.51,-992.10,227.50,-708.75,-393.75,1,94.434,
01/01/2000,01:21:18.38,20.01,-60.27,-992.10,96.25,-673.75,-323.75,1,94.439,
01/01/2000,01:21:18.39,20.25,-60.27,-992.10,192.50,-717.50,-393.75,1,94.352,
01/01/2000,01:21:18.40,20.25,-60.27,-992.10,192.50,-630.0,-280.0,1,94.358,
01/01/2000,01:21:18.41,20.25,-60.39,-991.74,210.0,-691.25,-341.25,1,94.363,
01/01/2000,01:21:18.42,20.25,-60.51,-991.74,192.50,-603.75,-402.50,1,94.369,
01/01/2000,01:21:18.43,20.37,-60.27,-991.86,105.0,-665.0,-393.75,1,94.374,
01/01/2000,01:21:18.44,20.25,-60.27,-992.10,70.0,-700.0,-420.0,1,94.380,
01/01/2000,01:21:18.45,20.25,-60.02,-992.35,26.25,-708.75,-253.75,1,94.385,
01/01/2000,01:21:18.46,20.13,-60.27,-992.35,315.0,-647.50,-288.75,1,94.391,
01/01/2000,01:21:18.47,20.37,-60.15,-991.98,183.75,-691.25,-507.50,1,94.396,
01/01/2000,01:21:18.48,20.25,-60.27,-991.98,201.25,-665.0,-385.0,1,94.402,
01/01/2000,01:21:18.50,20.37,-60.39,-992.10,140.0,-621.25,-393.75,1,94.407,
01/01/2000,01:21:18.51,20.25,-60.39,-992.10,166.25,-822.50,-323.75,1,94.412,
01/01/2000,01:21:18.52,20.37,-60.51,-992.23,236.25,-735.0,-332.50,1,94.418,
01/01/2000,01:21:18.53,20.25,-60.27,-992.10,166.25,-761.25,-201.25,1,94.423,
01/01/2000,01:21:18.54,20.50,-60.27,-991.86,43.75,-638.75,-315.0,1,94.428,
01/01/2000,01:21:18.55,20.50,-60.39,-991.86,131.25,-726.25,-236.25,1,94.434,
01/01/2000,01:21:18.56,20.37,-60.63,-991.86,166.25,-656.25,-306.25,1,94.439,
01/01/2000,01:21:18.57,20.37,-60.63,-991.86,148.75,-717.50,-385.0,1,94.444,
01/01/2000,01:21:18.58,20.37,-60.51,-991.86,140.0,-691.25,-288.75,1,94.450,
01/01/2000,01:21:18.59,20.25,-60.27,-991.98,157.50,-752.50,-306.25,1,94.455,
01/01/2000,01:21:18.60,20.37,-60.15,-991.86,52.50,-665.0,-288.75,1,94.460,
01/01/2000,01:21:18.61,20.37,-60.27,-991.86,148.75,-717.50,-297.50,1,94.466,
01/01/2000,01:21:18.62,20.25,-60.39,-991.86,26.25,-673.75,-323.75,1,94.381,
01/01/2000,01:21:18.63,20.13,-60.51,-991.98,183.75,-630.0,-393.75,1,94.386,
01/01/2000,01:21:18.64,20.25,-60.15,-991.98,96.25,-595.0,-306.25,1,94.392,
01/01/2000,01:21:18.65,20.25,-60.02,-992.10,17.50,-752.50,-332.50,1,94.397,
01/01/2000,01:21:18.66,20.25,-60.15,-992.23,183.75,-621.25,-323.75,1,94.402,
01/01/2000,01:21:18.67,20.25,-60.27,-992.23,183.75,-787.50,-376.25,1,94.408,
01/01/2000,01:21:18.68,20.13,-60.39,-992.35,210.0,-682.50,-350.0,1,94.413,
01/01/2000,01:21:18.70,20.37,-60.51,-992.35,131.25,-761.25,-376.25,1,94.418,
01/01/2000,01:21:18.71,20.25,-60.51,-992.23,227.50,-717.50,-367.50,1,94.423,
01/01/2000,01:21:18.72,20.01,-60.27,-992.23,192.50,-700.0,-341.25,1,94.429,
01/01/2000,01:21:18.73,20.13,-60.27,-992.35,280.0,-656.25,-297.50,1,94.434,
01/01/2000,01:21:18.74,20.25,-60.39,-992.35,175.0,-735.0,-446.25,1,94.439,
01/01/2000,01:21:18.75,20.37,-60.39,-992.47,140.0,-778.75,-411.25,1,94.444,
01/01/2000,01:21:18.76,20.50,-60.27,-992.35,245.0,-726.25,-350.0,1,94.450,
01/01/2000,01:21:18.77,20.37,-60.39,-992.47,183.75,-665.0,-428.75,1,94.455,
01/01/2000,01:21:18.78,20.25,-60.27,-992.35,122.50,-752.50,-358.75,1,94.460,
01/01/2000,01:21:18.79,20.13,-60.27,-992.59,210.0,-708.75,-341.25,1,94.465,
01/01/2000,01:21:18.80,20.13,-60.15,-992.59,140.0,-770.0,-297.50,1,94.470,
01/01/2000,01:21:18.81,20.13,-60.27,-992.47,218.75,-665.0,-332.50,1,94.476,
01/01/2000,01:21:18.82,20.01,-60.27,-992.35,140.0,-848.75,-253.75,1,94.481,
01/01/2000,01:21:18.83,20.01,-60.27,-992.35,306.25,-647.50,-323.75,1,94.398,
01/01/2000,01:21:18.84,20.01,-60.27,-992.47,166.25,-726.25,-341.25,1,94.403,
01/01/2000,01:21:18.85,20.01,-60.27,-992.59,236.25,-691.25,-288.75,1,94.408,
01/01/2000,01:21:18.87,19.89,-60.27,-992.59,113.75,-761.25,-297.50,1,94.413,
01/01/2000,01:21:18.88,20.01,-60.15,-992.47,166.25,-726.25,-280.0,1,94.419,
01/01/2000,01:21:18.89,20.01,-60.27,-992.47,201.25,-691.25,-376.25,1,94.424,
01/01/2000,01:21:18.90,19.89,-60.39,-992.59,131.25,-717.50,-376.25,1,94.429,
01/01/2000,01:21:18.91,19.89,-60.39,-992.47,183.75,-691.25,-428.75,1,94.347,
01/01/2000,01:21:18.92,19.89,-60.27,-992.47,253.75,-761.25,-402.50,1,94.439,
01/01/2000,01:21:18.93,20.01,-60.15,-992.35,78.75,-621.25,-350.0,1,94.357,
01/01/2000,01:21:18.94,20.01,-60.27,-992.47,96.25,-621.25,-341.25,1,94.362,
01/01/2000,01:21:18.95,20.01,-60.39,-992.47,183.75,-665.0,-350.0,1,94.368,
01/01/2000,01:21:18.96,20.01,-60.27,-992.59,210.0,-568.75,-288.75,1,94.373,
01/01/2000,01:21:18.97,20.01,-60.39,-992.47,175.0,-726.25,-402.50,1,94.378,
01/01/2000,01:21:18.98,20.01,-60.02,-992.47,113.75,-761.25,-227.50,1,94.383,
01/01/2000,01:21:18.99,20.01,-60.27,-992.23,105.0,-708.75,-297.50,1,94.388,
01/01/2000,01:21:19.00,20.01,-60.27,-992.23,288.75,-717.50,-253.75,1,94.393,
01/01/2000,01:21:19.01,20.01,-60.51,-992.10,175.0,-673.75,-323.75,1,94.399,
01/01/2000,01:21:19.02,20.13,-60.63,-992.10,183.75,-682.50,-323.75,1,94.404,
01/01/2000,01:21:19.03,20.13,-60.51,-992.10,96.25,-603.75,-306.25,1,94.409,
01/01/2000,01:21:19.04,20.13,-60.51,-992.10,245.0,-638.75,-253.75,1,94.414,
01/01/2000,01:21:19.06,20.13,-60.39,-992.23,227.50,-787.50,-332.50,1,94.419,
01/01/2000,01:21:19.07,20.13,-60.51,-992.35,43.75,-840.0,-350.0,1,94.424,
01/01/2000,01:21:19.08,20.01,-60.76,-992.47,192.50,-665.0,-402.50,1,94.429,
01/01/2000,01:21:19.09,20.01,-60.63,-992.59,96.25,-770.0,-306.25,1,94.434,
01/01/2000,01:21:19.10,19.89,-60.63,-992.35,140.0,-586.25,-315.0,1,94.439,
01/01/2000,01:21:19.11,19.89,-60.63,-992.35,78.75,-682.50,-323.75,1,94.444,
01/01/2000,01:21:19.12,19.76,-60.51,-992.59,96.25,-735.0,-367.50,1,94.450,
01/01/2000,01:21:19.13,19.89,-60.51,-992.59,218.75,-603.75,-306.25,1,94.455,
01/01/2000,01:21:19.14,20.01,-60.39,-992.47,140.0,-752.50,-420.0,1,94.460,
01/01/2000,01:21:19.15,20.01,-60.51,-992.35,183.75,-638.75,-393.75,1,94.465,
01/01/2000,01:21:19.16,20.01,-60.63,-992.35,148.75,-796.25,-332.50,1,94.470,
01/01/2000,01:21:19.17,20.01,-60.51,-992.35,157.50,-656.25,-315.0,1,94.475,
01/01/2000,01:21:19.18,20.01,-60.51,-992.71,148.75,-726.25,-271.25,1,94.394,
01/01/2000,01:21:19.19,20.01,-60.51,-992.59,96.25,-813.75,-288.75,1,94.399,
01/01/2000,01:21:19.20,20.13,-60.51,-992.59,218.75,-691.25,-332.50,1,94.404,
01/01/2000,01:21:19.21,20.01,-60.51,-992.47,245.0,-770.0,-288.75,1,94.409,
01/01/2000,01:21:19.22,20.01,-60.51,-992.35,105.0,-717.50,-306.25,1,94.414,
01/01/2000,01:21:19.23,19.89,-60.51,-992.47,175.0,-700.0,-420.0,1,94.419,
01/01/2000,01:21:19.24,20.01,-60.27,-992.59,122.50,-586.25,-376.25,1,94.424,
01/01/2000,01:21:19.26,20.01,-60.39,-992.59,131.25,-647.50,-332.50,1,94.429,
01/01/2000,01:21:19.27,20.01,-60.39,-992.47,148.75,-656.25,-271.25,1,94.434,
01/01/2000,01:21:19.28,20.01,-60.39,-992.35,253.75,-577.50,-323.75,1,94.439,
01/01/2000,01:21:19.29,20.01,-60.51,-992.23,253.75,-708.75,-341.25,1,94.444,
01/01/2000,01:21:19.30,20.13,-60.51,-992.23,113.75,-647.50,-297.50,1,94.449,
01/01/2000,01:21:19.31,20.13,-60.51,-992.35,148.75,-682.50,-385.0,1,94.454,
01/01/2000,01:21:19.32,20.01,-60.51,-992.35,245.0,-726.25,-411.25,1,94.459,
01/01/2000,01:21:19.33,20.01,-60.51,-992.35,140.0,-743.75,-192.50,1,94.464,
01/01/2000,01:21:19.34,20.13,-60.63,-992.35,157.50,-761.25,-341.25,1,94.469,
01/01/2000,01:21:19.35,20.25,-60.63,-992.35,113.75,-691.25,-332.50,1,94.474,
01/01/2000,01:21:19.36,20.01,-60.76,-992.23,131.25,-726.25,-332.50,1,94.479,
01/01/2000,01:21:19.37,20.01,-60.88,-992.35,262.50,-726.25,-385.0,1,94.484,
01/01/2000,01:21:19.39,20.01,-60.51,-992.47,122.50,-691.25,-350.0,1,94.405,
01/01/2000,01:21:19.40,20.01,-60.51,-992.47,201.25,-682.50,-315.0,1,94.410,
01/01/2000,01:21:19.41,20.01,-60.39,-992.47,166.25,-647.50,-332.50,1,94.415,
01/01/2000,01:21:19.42,19.89,-60.51,-992.47,332.50,-752.50,-350.0,1,94.420,
01/01/2000,01:21:19.43,20.01,-60.39,-992.47,105.0,-691.25,-323.75,1,94.425,
01/01/2000,01:21:19.44,19.89,-60.39,-992.35,271.25,-665.0,-332.50,1,94.430,
01/01/2000,01:21:19.45,20.01,-60.27,-992.35,-17.50,-673.75,-332.50,1,94.435,
01/01/2000,01:21:19.46,20.01,-60.39,-992.10,323.75,-726.25,-323.75,1,94.440,
01/01/2000,01:21:19.47,20.13,-60.51,-992.10,201.25,-735.0,-350.0,1,94.361,
01/01/2000,01:21:19.48,20.13,-60.51,-992.23,271.25,-735.0,-385.0,1,94.366,
01/01/2000,01:21:19.49,20.13,-60.51,-992.23,157.50,-647.50,-358.75,1,94.371,
01/01/2000,01:21:19.50,20.01,-60.27,-992.23,17.50,-656.25,-306.25,1,94.376,
01/01/2000,01:21:19.51,20.01,-60.39,-992.23,148.75,-726.25,-288.75,1,94.381,
01/01/2000,01:21:19.52,20.01,-60.27,-992.23,87.50,-717.50,-367.50,1,94.386,
01/01/2000,01:21:19.54,20.25,-60.27,-992.23,218.75,-682.50,-280.0,1,94.391,
01/01/2000,01:21:19.55,20.13,-60.27,-992.23,201.25,-621.25,-402.50,1,94.396,
01/01/2000,01:21:19.56,20.01,-60.27,-991.98,175.0,-726.25,-280.0,1,94.401,
01/01/2000,01:21:19.57,20.01,-60.27,-992.10,131.25,-656.25,-350.0,1,94.406,
01/01/2000,01:21:19.58,20.01,-60.27,-992.23,96.25,-743.75,-288.75,1,94.410,
01/01/2000,01:21:19.59,20.01,-60.39,-992.35,201.25,-717.50,-288.75,1,94.415,
01/01/2000,01:21:19.60,20.01,-60.39,-992.23,280.0,-691.25,-288.75,1,94.420,
01/01/2000,01:21:19.61,20.13,-60.39,-992.10,236.25,-717.50,-288.75,1,94.425,
01/01/2000,01:21:19.62,20.01,-60.39,-992.10,96.25,-708.75,-446.25,1,94.430,
01/01/2000,01:21:19.63,20.01,-60.27,-992.23,192.50,-726.25,-350.0,1,94.435,
01/01/2000,01:21:19.64,20.01,-60.15,-992.35,271.25,-595.0,-437.50,1,94.440,
01/01/2000,01:21:19.65,20.01,-60.27,-992.35,-17.50,-665.0,-358.75,1,94.444,
01/01/2000,01:21:19.66,19.89,-60.51,-992.23,17.50,-743.75,-227.50,1,94.449,
01/01/2000,01:21:19.67,20.01,-60.51,-992.10,227.50,-717.50,-463.75,1,94.454,
01/01/2000,01:21:19.68,20.25,-60.63,-992.10,271.25,-665.0,-323.75,1,94.377,
01/01/2000,01:21:19.69,20.25,-60.39,-992.10,192.50,-813.75,-367.50,1,94.382,
01/01/2000,01:21:19.70,20.13,-60.51,-992.23,61.25,-673.75,-402.50,1,94.387,
01/01/2000,01:21:19.71,19.89,-60.63,-992.10,166.25,-735.0,-393.75,1,94.392,
01/01/2000,01:21:19.72,20.01,-60.51,-992.10,210.0,-691.25,-323.75,1,94.397,
01/01/2000,01:21:19.73,20.01,-60.51,-992.35,315.0,-638.75,-288.75,1,94.401,
01/01/2000,01:21:19.75,20.01,-60.51,-992.23,113.75,-700.0,-367.50,1,94.406,
01/01/2000,01:21:19.76,19.89,-60.39,-992.23,52.50,-691.25,-350.0,1,94.411,
01/01/2000,01:21:19.77,19.89,-60.51,-992.10,288.75,-673.75,-420.0,1,94.416,
01/01/2000,01:21:19.78,20.01,-60.27,-992.35,105.0,-586.25,-350.0,1,94.421,
01/01/2000,01:21:19.79,20.01,-60.27,-992.23,210.0,-752.50,-341.25,1,94.425,
01/01/2000,01:21:19.80,19.89,-60.39,-992.10,157.50,-708.75,-218.75,1,94.430,
01/01/2000,01:21:19.81,19.89,-60.39,-991.98,236.25,-638.75,-341.25,1,94.435,
01/01/2000,01:21:19.82,19.89,-60.51,-992.10,227.50,-735.0,-428.75,1,94.359,
01/01/2000,01:21:19.83,19.89,-60.51,-992.23,43.75,-726.25,-315.0,1,94.364,
01/01/2000,01:21:19.84,20.01,-60.27,-992.10,70.0,-787.50,-288.75,1,94.369,
01/01/2000,01:21:19.85,20.01,-60.27,-991.98,96.25,-726.25,-350.0,1,94.373,
01/01/2000,01:21:19.86,20.01,-60.27,-991.98,175.0,-770.0,-350.0,1,94.378,
01/01/2000,01:21:19.87,19.76,-60.39,-991.98,192.50,-673.75,-376.25,1,94.383,
01/01/2000,01:21:19.88,20.13,-60.51,-992.10,61.25,-638.75,-376.25,1,94.388,
01/01/2000,01:21:19.90,20.01,-60.51,-991.98,140.0,-630.0,-288.75,1,94.393,
01/01/2000,01:21:19.91,20.01,-60.51,-991.98,192.50,-691.25,-280.0,1,94.397,
01/01/2000,01:21:19.92,20.01,-60.51,-991.98,52.50,-656.25,-253.75,1,94.402,
01/01/2000,01:21:19.93,20.01,-60.51,-992.10,70.0,-630.0,-297.50,1,94.327,
01/01/2000,01:21:19.94,19.89,-60.39,-991.98,245.0,-752.50,-306.25,1,94.412,
01/01/2000,01:21:19.95,20.01,-60.51,-991.86,96.25,-638.75,-288.75,1,94.336,
01/01/2000,01:21:19.96,19.76,-60.39,-991.86,78.75,-726.25,-341.25,1,94.341,
01/01/2000,01:21:19.97,20.01,-60.27,-991.86,192.50,-665.0,-332.50,1,94.346,
01/01/2000,01:21:19.98,20.13,-60.27,-992.10,227.50,-665.0,-315.0,1,94.351,
01/01/2000,01:21:19.99,20.01,-60.27,-992.10,78.75,-743.75,-218.75,1,94.356,
01/01/2000,01:21:20.00,19.89,-60.39,-992.10,201.25,-787.50,-402.50,1,94.360,
01/01/2000,01:21:20.01,19.89,-60.51,-992.10,253.75,-735.0,-490.0,1,94.365,
01/01/2000,01:21:20.02,20.25,-60.39,-992.23,166.25,-603.75,-341.25,1,94.370,
01/01/2000,01:21:20.04,20.13,-60.39,-992.35,113.75,-726.25,-358.75,1,94.374,
01/01/2000,01:21:20.05,20.01,-60.39,-992.35,140.0,-656.25,-262.50,1,94.379,
01/01/2000,01:21:20.06,19.89,-60.51,-992.23,105.0,-612.50,-367.50,1,94.384,
01/01/2000,01:21:20.07,20.01,-60.51,-992.35,122.50,-595.0,-358.75,1,94.389,
01/01/2000,01:21:20.08,20.01,-60.51,-992.35,70.0,-586.25,-332.50,1,94.393,
01/01/2000,01:21:20.09,20.01,-60.39,-992.35,236.25,-700.0,-393.75,1,94.398,
01/01/2000,01:21:20.10,20.01,-60.51,-992.23,96.25,-708.75,-323.75,1,94.403,
01/01/2000,01:21:20.11,19.89,-60.63,-992.35,201.25,-761.25,-411.25,1,94.407,
01/01/2000,01:21:20.12,20.01,-60.51,-992.35,122.50,-612.50,-245.0,1,94.412,
01/01/2000,01:21:20.13,20.25,-60.39,-992.35,148.75,-577.50,-411.25,1,94.417,
01/01/2000,01:21:20.14,20.01,-60.27,-992.23,131.25,-647.50,-201.25,1,94.421,
01/01/2000,01:21:20.15,20.01,-60.39,-991.98,210.0,-770.0,-358.75,1,94.426,
01/01/2000,01:21:20.16,20.01,-60.51,-992.10,306.25,-638.75,-341.25,1,94.431,
01/01/2000,01:21:20.17,20.01,-60.63,-992.47,157.50,-665.0,-315.0,1,94.357,
01/01/2000,01:21:20.18,20.01,-60.51,-992.47,201.25,-708.75,-323.75,1,94.362,
01/01/2000,01:21:20.19,19.89,-60.51,-992.35,201.25,-743.75,-332.50,1,94.366,
01/01/2000,01:21:20.20,19.89,-60.51,-992.23,96.25,-822.50,-280.0,1,94.371,
01/01/2000,01:21:20.21,20.01,-60.27,-992.35,210.0,-708.75,-402.50,1,94.376,
01/01/2000,01:21:20.22,20.01,-60.51,-992.47,148.75,-708.75,-358.75,1,94.380,
01/01/2000,01:21:20.23,20.01,-60.51,-992.35,192.50,-673.75,-358.75,1,94.385,
01/01/2000,01:21:20.25,20.25,-60.39,-992.23,192.50,-682.50,-376.25,1,94.389,
01/01/2000,01:21:20.26,20.25,-60.39,-992.23,148.75,-630.0,-297.50,1,94.394,
01/01/2000,01:21:20.27,20.25,-60.27,-992.35,306.25,-647.50,-411.25,1,94.399,
01/01/2000,01:21:20.28,20.25,-60.51,-992.59,332.50,-761.25,-358.75,1,94.403,
01/01/2000,01:21:20.29,20.25,-60.51,-992.47,140.0,-586.25,-428.75,1,94.408,
01/01/2000,01:21:20.30,20.25,-60.63,-992.35,210.0,-682.50,-297.50,1,94.412,
01/01/2000,01:21:20.31,20.25,-60.27,-992.35,140.0,-630.0,-253.75,1,94.417,
01/01/2000,01:21:20.32,20.13,-60.27,-992.59,183.75,-691.25,-350.0,1,94.422,
01/01/2000,01:21:20.33,20.01,-60.39,-992.47,61.25,-761.25,-297.50,1,94.426,
01/01/2000,01:21:20.34,20.01,-60.27,-992.35,157.50,-682.50,-315.0,1,94.431,
01/01/2000,01:21:20.35,20.01,-60.51,-992.35,122.50,-735.0,-332.50,1,94.435,
01/01/2000,01:21:20.36,19.89,-60.39,-992.35,122.50,-743.75,-332.50,1,94.440,
01/01/2000,01:21:20.37,20.01,-60.27,-992.35,341.25,-743.75,-323.75,1,94.444,
01/01/2000,01:21:20.39,20.01,-60.27,-992.35,61.25,-682.50,-227.50,1,94.372,
01/01/2000,01:21:20.40,20.13,-60.39,-992.47,131.25,-630.0,-411.25,1,94.377,
01/01/2000,01:21:20.41,20.25,-60.51,-992.35,0.0,-595.0,-227.50,1,94.381,
01/01/2000,01:21:20.42,20.25,-60.51,-992.35,192.50,-673.75,-323.75,1,94.386,
01/01/2000,01:21:20.43,20.25,-60.27,-992.23,96.25,-656.25,-192.50,1,94.390,
01/01/2000,01:21:20.44,20.13,-60.39,-992.35,218.75,-630.0,-393.75,1,94.395,
01/01/2000,01:21:20.45,20.25,-60.27,-992.23,245.0,-700.0,-367.50,1,94.399,
01/01/2000,01:21:20.46,20.25,-60.27,-992.35,157.50,-700.0,-332.50,1,94.404,
01/01/2000,01:21:20.47,20.13,-60.27,-992.10,87.50,-752.50,-332.50,1,94.408,
01/01/2000,01:21:20.48,19.89,-60.27,-992.23,210.0,-630.0,-350.0,1,94.413,
01/01/2000,01:21:20.49,20.01,-60.27,-992.35,166.25,-700.0,-350.0,1,94.341,
01/01/2000,01:21:20.50,20.01,-60.39,-992.35,218.75,-647.50,-297.50,1,94.422,
01/01/2000,01:21:20.51,20.01,-60.27,-992.35,236.25,-743.75,-411.25,1,94.350,
01/01/2000,01:21:20.52,19.89,-60.51,-992.35,253.75,-665.0,-402.50,1,94.355,
01/01/2000,01:21:20.53,20.01,-60.51,-992.10,43.75,-630.0,-297.50,1,94.359,
01/01/2000,01:21:20.54,20.01,-60.39,-992.10,122.50,-700.0,-315.0,1,94.364,
01/01/2000,01:21:20.55,20.13,-60.51,-992.35,227.50,-665.0,-367.50,1,94.368,
01/01/2000,01:21:20.56,20.01,-60.63,-992.47,262.50,-691.25,-358.75,1,94.373,
01/01/2000,01:21:20.57,20.01,-60.63,-992.35,201.25,-743.75,-332.50,1,94.378,
01/01/2000,01:21:20.58,20.01,-60.63,-992.23,192.50,-700.0,-332.50,1,94.382,
01/01/2000,01:21:20.60,20.25,-60.51,-991.98,140.0,-612.50,-376.25,1,94.387,
01/01/2000,01:21:20.61,20.25,-60.51,-992.10,166.25,-647.50,-315.0,1,94.391,
01/01/2000,01:21:20.62,20.13,-60.51,-992.10,43.75,-638.75,-288.75,1,94.396,
01/01/2000,01:21:20.63,20.01,-60.76,-991.98,70.0,-647.50,-402.50,1,94.400,
01/01/2000,01:21:20.64,19.89,-60.63,-991.98,210.0,-700.0,-367.50,1,94.404,
01/01/2000,01:21:20.65,20.01,-60.51,-991.98,192.50,-726.25,-323.75,1,94.409,
01/01/2000,01:21:20.66,20.01,-60.51,-991.86,175.0,-840.0,-175.0,1,94.413,
01/01/2000,01:21:20.67,20.01,-60.63,-991.86,201.25,-621.25,-236.25,1,94.418,
01/01/2000,01:21:20.68,20.01,-60.63,-992.10,192.50,-682.50,-315.0,1,94.422,
01/01/2000,01:21:20.69,20.13,-60.76,-992.23,52.50,-735.0,-455.0,1,94.427,
01/01/2000,01:21:20.70,20.25,-60.63,-992.23,192.50,-700.0,-446.25,1,94.431,
01/01/2000,01:21:20.71,20.13,-60.63,-992.10,157.50,-805.0,-332.50,1,94.436,
01/01/2000,01:21:20.72,20.01,-60.63,-991.98,183.75,-656.25,-271.25,1,94.440,
01/01/2000,01:21:20.73,19.89,-60.76,-991.98,148.75,-770.0,-358.75,1,94.444,
01/01/2000,01:21:20.74,20.01,-60.63,-991.86,122.50,-770.0,-297.50,1,94.449,
01/01/2000,01:21:20.75,20.01,-60.51,-992.10,210.0,-682.50,-315.0,1,94.453,
01/01/2000,01:21:20.76,20.01,-60.51,-991.98,113.75,-735.0,-350.0,1,94.458,
01/01/2000,01:21:20.77,19.89,-60.51,-991.86,280.0,-743.75,-376.25,1,94.462,
01/01/2000,01:21:20.78,20.25,-60.51,-991.86,122.50,-560.0,-297.50,1,94.466,
01/01/2000,01:21:20.79,20.25,-60.51,-991.98,113.75,-682.50,-358.75,1,94.471,
01/01/2000,01:21:20.80,20.13,-60.76,-991.98,166.25,-708.75,-367.50,1,94.401,
01/01/2000,01:21:20.81,20.25,-60.51,-991.86,175.0,-656.25,-411.25,1,94.405,
01/01/2000,01:21:20.83,20.25,-60.76,-991.98,43.75,-708.75,-315.0,1,94.409,
01/01/2000,01:21:20.83,20.25,-60.88,-992.10,341.25,-673.75,-332.50,1,94.414,
01/01/2000,01:21:20.85,20.37,-60.76,-992.10,70.0,-708.75,-315.0,1,94.418,
01/01/2000,01:21:20.86,20.37,-61.0,-992.35,166.25,-682.50,-332.50,1,94.423,
01/01/2000,01:21:20.87,20.25,-60.63,-992.35,148.75,-770.0,-253.75,1,94.427,
01/01/2000,01:21:20.88,20.13,-60.76,-992.35,210.0,-621.25,-393.75,1,94.431,
01/01/2000,01:21:20.89,20.25,-60.76,-992.35,166.25,-726.25,-227.50,1,94.436,
01/01/2000,01:21:20.90,20.13,-60.76,-992.23,315.0,-691.25,-393.75,1,94.440,
01/01/2000,01:21:20.91,20.01,-60.76,-992.35,253.75,-656.25,-358.75,1,94.444,
01/01/2000,01:21:20.92,20.01,-60.76,-992.47,166.25,-656.25,-393.75,1,94.375,
01/01/2000,01:21:20.93,20.13,-60.51,-992.35,192.50,-673.75,-306.25,1,94.379,
01/01/2000,01:21:20.95,19.89,-60.51,-992.35,43.75,-638.75,-201.25,1,94.384,
01/01/2000,01:21:20.96,19.76,-60.63,-992.10,157.50,-647.50,-428.75,1,94.388,
01/01/2000,01:21:20.97,19.76,-60.63,-992.10,262.50,-726.25,-393.75,1,94.393,
01/01/2000,01:21:20.98,20.01,-60.51,-992.10,140.0,-743.75,-323.75,1,94.397,
01/01/2000,01:21:20.99,20.01,-60.63,-992.23,157.50,-778.75,-358.75,1,94.401,
01/01/2000,01:21:21.00,20.01,-60.51,-992.10,183.75,-708.75,-376.25,1,94.406,
01/01/2000,01:21:21.01,20.01,-60.51,-992.10,166.25,-708.75,-350.0,1,94.410,
01/01/2000,01:21:21.02,20.01,-60.39,-992.10,157.50,-691.25,-420.0,1,94.414,
01/01/2000,01:21:21.03,20.01,-60.51,-992.35,210.0,-673.75,-376.25,1,94.419,
01/01/2000,01:21:21.04,20.13,-60.51,-992.47,148.75,-778.75,-288.75,1,94.423,
01/01/2000,01:21:21.05,20.01,-60.39,-992.35,183.75,-533.75,-288.75,1,94.427,
01/01/2000,01:21:21.06,20.01,-60.51,-992.10,227.50,-638.75,-280.0,1,94.432,
01/01/2000,01:21:21.07,20.01,-60.51,-992.10,253.75,-638.75,-402.50,1,94.436,
01/01/2000,01:21:21.08,20.01,-60.51,-992.10,131.25,-673.75,-288.75,1,94.440,
01/01/2000,01:21:21.09,20.01,-60.51,-992.23,96.25,-726.25,-402.50,1,94.444,
01/01/2000,01:21:21.10,20.01,-60.27,-992.10,78.75,-656.25,-376.25,1,94.449,
01/01/2000,01:21:21.11,20.13,-60.39,-992.10,288.75,-691.25,-376.25,1,94.453,
01/01/2000,01:21:21.12,20.01,-60.39,-992.10,192.50,-682.50,-306.25,1,94.457,
01/01/2000,01:21:21.13,20.01,-60.51,-992.35,218.75,-682.50,-323.75,1,94.462,
01/01/2000,01:21:21.14,20.01,-60.51,-992.47,166.25,-621.25,-350.0,1,94.393,
01/01/2000,01:21:21.16,19.89,-60.51,-992.47,157.50,-656.25,-341.25,1,94.398,
01/01/2000,01:21:21.17,19.76,-60.51,-992.47,175.0,-708.75,-280.0,1,94.402,
01/01/2000,01:21:21.18,19.76,-60.51,-992.59,78.75,-665.0,-358.75,1,94.406,
01/01/2000,01:21:21.19,19.76,-60.51,-992.47,262.50,-665.0,-350.0,1,94.410,
01/01/2000,01:21:21.20,19.76,-60.51,-992.59,227.50,-612.50,-385.0,1,94.415,
01/01/2000,01:21:21.21,19.89,-60.51,-992.35,43.75,-743.75,-297.50,1,94.419,
01/01/2000,01:21:21.22,19.76,-60.63,-992.47,306.25,-717.50,-428.75,1,94.423,
01/01/2000,01:21:21.23,20.01,-60.51,-992.59,218.75,-665.0,-341.25,1,94.427,
01/01/2000,01:21:21.24,20.01,-60.27,-992.47,96.25,-770.0,-420.0,1,94.432,
01/01/2000,01:21:21.25,19.89,-60.39,-992.47,210.0,-752.50,-166.25,1,94.436,
01/01/2000,01:21:21.26,20.25,-60.27,-992.35,122.50,-805.0,-306.25,1,94.440,
01/01/2000,01:21:21.27,19.89,-60.51,-992.35,341.25,-743.75,-96.25,1,94.444,
01/01/2000,01:21:21.28,20.25,-60.39,-992.47,43.75,-726.25,-612.50,1,94.449,
01/01/2000,01:21:21.29,20.13,-60.51,-992.59,113.75,-726.25,-341.25,1,94.381,
01/01/2000,01:21:21.30,20.13,-60.51,-992.47,157.50,-656.25,-210.0,1,94.385,
01/01/2000,01:21:21.31,20.01,-60.27,-992.35,70.0,-708.75,-437.50,1,94.390,
01/01/2000,01:21:21.32,20.01,-60.27,-992.23,192.50,-612.50,-402.50,1,94.394,
01/01/2000,01:21:21.33,19.89,-60.27,-992.35,122.50,-752.50,-323.75,1,94.398,
01/01/2000,01:21:21.34,19.89,-60.39,-992.35,87.50,-752.50,-350.0,1,94.402,
01/01/2000,01:21:21.35,20.01,-60.27,-992.35,166.25,-717.50,-428.75,1,94.407,
01/01/2000,01:21:21.37,20.25,-60.27,-992.35,113.75,-752.50,-306.25,1,94.411,
01/01/2000,01:21:21.38,20.13,-60.27,-992.35,113.75,-735.0,-350.0,1,94.415,
01/01/2000,01:21:21.39,20.13,-60.27,-992.47,411.25,-673.75,-306.25,1,94.419,
01/01/2000,01:21:21.40,20.25,-60.39,-992.59,262.50,-761.25,-376.25,1,94.424,
01/01/2000,01:21:21.41,20.25,-60.39,-992.59,175.0,-796.25,-262.50,1,94.428,
01/01/2000,01:21:21.42,20.37,-60.27,-992.35,87.50,-726.25,-385.0,1,94.432,
01/01/2000,01:21:21.43,20.37,-60.15,-992.35,122.50,-560.0,-385.0,1,94.365,
01/01/2000,01:21:21.45,20.25,-60.27,-992.35,245.0,-691.25,-350.0,1,94.369,
01/01/2000,01:21:21.46,20.25,-60.39,-992.10,210.0,-761.25,-358.75,1,94.374,
01/01/2000,01:21:21.47,20.37,-60.39,-992.10,183.75,-743.75,-367.50,1,94.378,
01/01/2000,01:21:21.48,20.25,-60.27,-992.23,122.50,-770.0,-332.50,1,94.382,
01/01/2000,01:21:21.49,20.13,-60.27,-992.10,157.50,-700.0,-367.50,1,94.386,
01/01/2000,01:21:21.50,20.13,-60.27,-992.10,-8.75,-717.50,-350.0,1,94.390,
01/01/2000,01:21:21.51,20.01,-60.27,-992.10,245.0,-761.25,-402.50,1,94.395,
01/01/2000,01:21:21.52,20.01,-60.27,-991.98,271.25,-656.25,-393.75,1,94.399,
01/01/2000,01:21:21.53,20.25,-60.27,-991.86,43.75,-647.50,-367.50,1,94.403,
01/01/2000,01:21:21.54,20.13,-60.51,-991.98,402.50,-673.75,-323.75,1,94.407,
01/01/2000,01:21:21.55,20.13,-60.51,-991.98,253.75,-875.0,-376.25,1,94.411,
01/01/2000,01:21:21.56,20.01,-60.51,-991.98,227.50,-700.0,-376.25,1,94.415,
01/01/2000,01:21:21.57,19.89,-60.39,-991.86,271.25,-708.75,-271.25,1,94.420,
01/01/2000,01:21:21.58,19.89,-60.39,-992.10,192.50,-682.50,-393.75,1,94.424,
01/01/2000,01:21:21.59,19.89,-60.27,-992.10,175.0,-761.25,-332.50,1,94.428,
01/01/2000,01:21:21.60,19.89,-60.39,-992.10,122.50,-656.25,-350.0,1,94.432,
01/01/2000,01:21:21.61,19.89,-60.51,-991.98,78.75,-708.75,-297.50,1,94.436,
01/01/2000,01:21:21.62,19.89,-60.51,-992.10,236.25,-647.50,-350.0,1,94.440,
01/01/2000,01:21:21.63,20.01,-60.27,-992.10,148.75,-726.25,-350.0,1,94.444,
01/01/2000,01:21:21.64,20.13,-60.27,-992.10,218.75,-612.50,-367.50,1,94.449,
01/01/2000,01:21:21.65,20.01,-60.39,-992.10,262.50,-708.75,-350.0,1,94.383,
01/01/2000,01:21:21.66,20.13,-60.39,-992.10,350.0,-691.25,-271.25,1,94.387,
01/01/2000,01:21:21.67,20.13,-60.76,-991.98,175.0,-726.25,-446.25,1,94.391,
01/01/2000,01:21:21.68,20.25,-60.51,-992.10,210.0,-691.25,-288.75,1,94.395,
01/01/2000,01:21:21.69,20.25,-60.51,-992.23,43.75,-735.0,-306.25,1,94.399,
01/01/2000,01:21:21.70,20.13,-60.51,-992.35,96.25,-603.75,-271.25,1,94.404,
01/01/2000,01:21:21.72,20.13,-60.63,-992.23,148.75,-682.50,-315.0,1,94.408,
01/01/2000,01:21:21.73,20.25,-60.27,-992.23,105.0,-700.0,-341.25,1,94.412,
01/01/2000,01:21:21.74,20.25,-60.39,-992.23,113.75,-612.50,-376.25,1,94.416,
01/01/2000,01:21:21.75,20.50,-60.27,-992.23,236.25,-717.50,-350.0,1,94.420,
01/01/2000,01:21:21.76,20.50,-60.39,-992.10,245.0,-726.25,-402.50,1,94.424,
01/01/2000,01:21:21.77,20.50,-60.39,-992.10,-26.25,-726.25,-280.0,1,94.428,
01/01/2000,01:21:21.78,20.37,-60.51,-991.98,253.75,-743.75,-393.75,1,94.432,
01/01/2000,01:21:21.79,20.50,-60.51,-991.98,236.25,-708.75,-315.0,1,94.367,
01/01/2000,01:21:21.80,20.50,-60.51,-992.10,183.75,-717.50,-341.25,1,94.371,
01/01/2000,01:21:21.81,20.50,-60.51,-991.86,183.75,-717.50,-332.50,1,94.375,
01/01/2000,01:21:21.82,20.25,-60.63,-991.98,236.25,-735.0,-367.50,1,94.380,
01/01/2000,01:21:21.83,20.25,-60.51,-991.98,52.50,-595.0,-385.0,1,94.384,
01/01/2000,01:21:21.84,20.50,-60.63,-991.98,227.50,-735.0,-420.0,1,94.388,
01/01/2000,01:21:21.85,20.62,-60.39,-991.98,157.50,-682.50,-341.25,1,94.392,
01/01/2000,01:21:21.87,20.37,-60.63,-991.98,96.25,-586.25,-393.75,1,94.396,
01/01/2000,01:21:21.88,20.25,-60.88,-992.10,43.75,-656.25,-411.25,1,94.400,
01/01/2000,01:21:21.89,20.13,-60.76,-992.35,87.50,-778.75,-367.50,1,94.404,
01/01/2000,01:21:21.90,20.50,-60.39,-992.10,227.50,-708.75,-332.50,1,94.408,
01/01/2000,01:21:21.91,20.37,-60.39,-991.98,210.0,-691.25,-236.25,1,94.412,
01/01/2000,01:21:21.92,20.13,-60.51,-991.74,236.25,-621.25,-297.50,1,94.416,
01/01/2000,01:21:21.93,20.13,-60.76,-991.98,96.25,-726.25,-315.0,1,94.420,
01/01/2000,01:21:21.95,20.37,-60.39,-992.47,183.75,-647.50,-350.0,1,94.356,
01/01/2000,01:21:21.96,20.37,-60.51,-992.23,210.0,-770.0,-341.25,1,94.360,
01/01/2000,01:21:21.97,20.25,-60.63,-991.98,271.25,-708.75,-315.0,1,94.364,
01/01/2000,01:21:21.98,20.01,-60.63,-991.98,183.75,-691.25,-288.75,1,94.368,
01/01/2000,01:21:21.99,20.25,-60.63,-992.10,201.25,-665.0,-332.50,1,94.372,
01/01/2000,01:21:22.00,20.25,-60.51,-992.35,157.50,-691.25,-288.75,1,94.376,
01/01/2000,01:21:22.01,20.13,-60.39,-992.10,148.75,-595.0,-332.50,1,94.380,
01/01/2000,01:21:22.02,20.01,-60.51,-992.10,315.0,-778.75,-350.0,1,94.384,
01/01/2000,01:21:22.03,20.01,-60.39,-991.98,253.75,-577.50,-341.25,1,94.388,
01/01/2000,01:21:22.04,20.13,-60.51,-992.10,332.50,-813.75,-350.0,1,94.393,
01/01/2000,01:21:22.05,20.25,-60.63,-992.10,183.75,-752.50,-428.75,1,94.397,
01/01/2000,01:21:22.06,20.01,-60.63,-991.98,192.50,-612.50,-367.50,1,94.401,
01/01/2000,01:21:22.07,20.01,-60.51,-991.86,131.25,-665.0,-280.0,1,94.405,
01/01/2000,01:21:22.08,19.76,-60.39,-991.74,175.0,-673.75,-385.0,1,94.409,
01/01/2000,01:21:22.09,19.89,-60.27,-991.86,78.75,-726.25,-385.0,1,94.345,
01/01/2000,01:21:22.10,20.01,-60.27,-991.86,87.50,-612.50,-297.50,1,94.417,
01/01/2000,01:21:22.11,20.01,-60.39,-991.86,105.0,-691.25,-332.50,1,94.353,
01/01/2000,01:21:22.12,19.76,-60.51,-991.86,192.50,-700.0,-341.25,1,94.357,
01/01/2000,01:21:22.13,19.89,-60.27,-991.98,192.50,-665.0,-315.0,1,94.361,
01/01/2000,01:21:22.14,20.01,-60.27,-992.10,210.0,-717.50,-341.25,1,94.365,
01/01/2000,01:21:22.15,20.01,-60.15,-992.23,70.0,-717.50,-315.0,1,94.369,
01/01/2000,01:21:22.16,20.01,-60.51,-991.98,210.0,-735.0,-280.0,1,94.373,
01/01/2000,01:21:22.17,19.89,-60.27,-991.86,105.0,-673.75,-358.75,1,94.377,
01/01/2000,01:21:22.18,19.89,-60.39,-991.86,87.50,-778.75,-341.25,1,94.381,
01/01/2000,01:21:22.19,20.01,-60.27,-991.86,192.50,-726.25,-358.75,1,94.385,
01/01/2000,01:21:22.20,20.01,-60.27,-991.98,183.75,-638.75,-323.75,1,94.389,
01/01/2000,01:21:22.22,20.01,-60.51,-991.98,183.75,-708.75,-402.50,1,94.393,
01/01/2000,01:21:22.23,19.89,-60.63,-991.98,245.0,-700.0,-411.25,1,94.397,
01/01/2000,01:21:22.24,20.01,-60.51,-991.98,271.25,-717.50,-358.75,1,94.401,
01/01/2000,01:21:22.25,20.01,-60.51,-992.10,227.50,-726.25,-288.75,1,94.405,
01/01/2000,01:21:22.26,20.13,-60.39,-992.10,166.25,-708.75,-315.0,1,94.409,
01/01/2000,01:21:22.27,20.01,-60.51,-991.86,183.75,-822.50,-376.25,1,94.413,
01/01/2000,01:21:22.28,20.01,-60.51,-992.10,96.25,-778.75,-367.50,1,94.417,
01/01/2000,01:21:22.29,20.25,-60.27,-992.23,210.0,-665.0,-402.50,1,94.421,
01/01/2000,01:21:22.30,20.37,-60.15,-992.35,43.75,-638.75,-385.0,1,94.425,
01/01/2000,01:21:22.31,20.25,-60.27,-992.23,175.0,-735.0,-297.50,1,94.429,
01/01/2000,01:21:22.32,20.13,-60.27,-992.10,166.25,-665.0,-455.0,1,94.366,
01/01/2000,01:21:22.33,20.25,-60.51,-992.23,218.75,-700.0,-323.75,1,94.437,
01/01/2000,01:21:22.34,20.37,-60.39,-992.35,35.0,-752.50,-385.0,1,94.374,
01/01/2000,01:21:22.36,20.25,-60.39,-992.35,157.50,-717.50,-315.0,1,94.378,
01/01/2000,01:21:22.37,20.01,-60.51,-992.23,271.25,-700.0,-350.0,1,94.382,
01/01/2000,01:21:22.38,20.01,-60.51,-991.98,166.25,-752.50,-297.50,1,94.386,
01/01/2000,01:21:22.39,20.01,-60.51,-992.10,315.0,-700.0,-358.75,1,94.390,
01/01/2000,01:21:22.40,20.37,-60.39,-992.23,175.0,-682.50,-332.50,1,94.394,
01/01/2000,01:21:22.41,20.37,-60.39,-992.35,210.0,-700.0,-297.50,1,94.398,
01/01/2000,01:21:22.42,20.37,-60.39,-992.10,131.25,-700.0,-245.0,1,94.402,
01/01/2000,01:21:22.43,20.25,-60.51,-992.10,262.50,-708.75,-350.0,1,94.406,
01/01/2000,01:21:22.44,20.25,-60.51,-992.10,157.50,-700.0,-393.75,1,94.410,
01/01/2000,01:21:22.45,20.25,-60.39,-992.23,262.50,-665.0,-472.50,1,94.348,
01/01/2000,01:21:22.46,20.13,-60.15,-992.10,140.0,-708.75,-245.0,1,94.351,
01/01/2000,01:21:22.47,20.01,-60.27,-991.86,122.50,-665.0,-350.0,1,94.355,
01/01/2000,01:21:22.48,20.01,-60.27,-991.86,96.25,-787.50,-350.0,1,94.359,
01/01/2000,01:21:22.50,20.25,-60.27,-992.23,183.75,-700.0,-297.50,1,94.363,
01/01/2000,01:21:22.51,20.25,-60.27,-992.35,288.75,-560.0,-332.50,1,94.367,
01/01/2000,01:21:22.52,20.13,-60.27,-992.23,140.0,-665.0,-288.75,1,94.371,
01/01/2000,01:21:22.53,20.01,-60.51,-992.10,218.75,-647.50,-481.25,1,94.375,
01/01/2000,01:21:22.54,20.13,-60.27,-992.10,87.50,-805.0,-280.0,1,94.379,
01/01/2000,01:21:22.55,20.25,-60.39,-992.23,87.50,-761.25,-358.75,1,94.383,
01/01/2000,01:21:22.56,20.25,-60.27,-992.35,131.25,-603.75,-332.50,1,94.387,
01/01/2000,01:21:22.57,20.13,-60.39,-992.35,201.25,-647.50,-393.75,1,94.391,
01/01/2000,01:21:22.58,20.01,-60.39,-992.10,236.25,-691.25,-367.50,1,94.394,
01/01/2000,01:21:22.59,20.13,-60.39,-992.10,280.0,-682.50,-227.50,1,94.398,
01/01/2000,01:21:22.60,20.25,-60.39,-992.10,157.50,-630.0,-323.75,1,94.402,
01/01/2000,01:21:22.61,20.25,-60.27,-992.10,157.50,-752.50,-358.75,1,94.406,
01/01/2000,01:21:22.62,20.25,-60.39,-991.98,201.25,-726.25,-350.0,1,94.410,
01/01/2000,01:21:22.63,20.13,-60.27,-992.10,157.50,-743.75,-341.25,1,94.414,
01/01/2000,01:21:22.64,20.25,-60.27,-991.98,78.75,-752.50,-367.50,1,94.418,
01/01/2000,01:21:22.65,20.37,-60.27,-992.10,306.25,-691.25,-306.25,1,94.421,
01/01/2000,01:21:22.66,20.37,-60.15,-992.10,175.0,-700.0,-253.75,1,94.425,
01/01/2000,01:21:22.67,20.37,-60.15,-992.10,148.75,-761.25,-332.50,1,94.429,
01/01/2000,01:21:22.68,20.25,-60.27,-992.10,315.0,-831.25,-358.75,1,94.433,
01/01/2000,01:21:22.69,20.37,-60.27,-992.10,61.25,-542.50,-315.0,1,94.437,
01/01/2000,01:21:22.70,20.50,-60.02,-992.23,105.0,-595.0,-463.75,1,94.376,
01/01/2000,01:21:22.71,20.37,-60.02,-992.10,166.25,-717.50,-350.0,1,94.380,
01/01/2000,01:21:22.72,20.25,-60.15,-991.98,35.0,-796.25,-411.25,1,94.384,
01/01/2000,01:21:22.73,20.25,-60.39,-991.86,113.75,-691.25,-341.25,1,94.387,
01/01/2000,01:21:22.74,20.25,-60.39,-991.86,201.25,-700.0,-393.75,1,94.391,
01/01/2000,01:21:22.75,20.25,-60.27,-991.86,157.50,-761.25,-332.50,1,94.395,
01/01/2000,01:21:22.76,20.25,-60.27,-991.86,70.0,-612.50,-350.0,1,94.399,
01/01/2000,01:21:22.78,20.13,-60.39,-991.98,218.75,-743.75,-323.75,1,94.403,
01/01/2000,01:21:22.79,20.13,-60.39,-991.86,183.75,-621.25,-463.75,1,94.407,
01/01/2000,01:21:22.80,20.25,-60.27,-991.98,140.0,-691.25,-297.50,1,94.410,
01/01/2000,01:21:22.81,20.37,-60.27,-992.10,96.25,-656.25,-385.0,1,94.414,
01/01/2000,01:21:22.82,20.50,-60.39,-991.86,148.75,-630.0,-341.25,1,94.418,
01/01/2000,01:21:22.83,20.37,-60.39,-991.98,157.50,-752.50,-332.50,1,94.422,
01/01/2000,01:21:22.84,20.25,-60.51,-992.10,262.50,-682.50,-455.0,1,94.426,
01/01/2000,01:21:22.85,20.25,-60.27,-992.10,113.75,-700.0,-350.0,1,94.429,
01/01/2000,01:21:22.86,20.25,-60.15,-991.98,78.75,-743.75,-358.75,1,94.433,
01/01/2000,01:21:22.87,20.25,-60.27,-991.98,96.25,-805.0,-323.75,1,94.437,
01/01/2000,01:21:22.88,20.25,-60.27,-991.98,236.25,-665.0,-385.0,1,94.441,
01/01/2000,01:21:22.89,20.25,-60.27,-992.10,140.0,-682.50,-332.50,1,94.381,
01/01/2000,01:21:22.90,20.25,-60.51,-992.10,131.25,-673.75,-358.75,1,94.448,
01/01/2000,01:21:22.92,20.13,-60.27,-992.10,140.0,-603.75,-393.75,1,94.388,
01/01/2000,01:21:22.93,20.13,-60.27,-991.86,122.50,-743.75,-446.25,1,94.392,
01/01/2000,01:21:22.94,20.01,-60.27,-991.86,271.25,-717.50,-323.75,1,94.396,
01/01/2000,01:21:22.95,20.01,-60.27,-991.98,113.75,-822.50,-350.0,1,94.399,
01/01/2000,01:21:22.96,20.01,-60.27,-991.86,192.50,-612.50,-385.0,1,94.403,
01/01/2000,01:21:22.97,20.01,-60.15,-991.74,105.0,-726.25,-367.50,1,94.407,
01/01/2000,01:21:22.98,20.01,-60.27,-991.74,157.50,-735.0,-437.50,1,94.411,
01/01/2000,01:21:22.99,20.13,-60.02,-991.74,253.75,-638.75,-236.25,1,94.351,
01/01/2000,01:21:23.00,20.25,-60.02,-991.86,245.0,-726.25,-376.25,1,94.355,
01/01/2000,01:21:23.01,20.25,-60.15,-991.86,262.50,-665.0,-245.0,1,94.359,
01/01/2000,01:21:23.02,20.25,-60.27,-991.86,271.25,-603.75,-306.25,1,94.362,
01/01/2000,01:21:23.03,20.25,-60.27,-991.74,148.75,-665.0,-385.0,1,94.366,
01/01/2000,01:21:23.04,20.25,-60.27,-991.86,201.25,-682.50,-428.75,1,94.370,
01/01/2000,01:21:23.05,20.25,-60.15,-992.10,183.75,-647.50,-288.75,1,94.374,
01/01/2000,01:21:23.06,20.25,-60.27,-992.10,157.50,-691.25,-420.0,1,94.378,
01/01/2000,01:21:23.07,20.25,-60.27,-992.10,52.50,-638.75,-236.25,1,94.381,
01/01/2000,01:21:23.08,20.25,-60.51,-991.86,218.75,-673.75,-437.50,1,94.385,
01/01/2000,01:21:23.09,20.37,-60.51,-991.86,166.25,-892.50,-253.75,1,94.389,
01/01/2000,01:21:23.10,20.50,-60.39,-991.86,166.25,-691.25,-341.25,1,94.393,
01/01/2000,01:21:23.11,20.37,-60.27,-991.98,218.75,-621.25,-315.0,1,94.396,
01/01/2000,01:21:23.13,20.25,-60.15,-991.98,140.0,-673.75,-245.0,1,94.400,
01/01/2000,01:21:23.14,20.25,-60.15,-991.86,157.50,-612.50,-367.50,1,94.404,
01/01/2000,01:21:23.15,20.37,-60.02,-991.74,236.25,-726.25,-323.75,1,94.407,
01/01/2000,01:21:23.16,20.37,-60.27,-991.74,253.75,-717.50,-297.50,1,94.411,
01/01/2000,01:21:23.17,20.25,-60.27,-991.74,245.0,-638.75,-393.75,1,94.415,
01/01/2000,01:21:23.18,20.13,-60.02,-991.62,96.25,-647.50,-315.0,1,94.419,
01/01/2000,01:21:23.19,20.13,-60.15,-991.86,271.25,-700.0,-376.25,1,94.422,
01/01/2000,01:21:23.20,20.25,-60.15,-991.86,245.0,-638.75,-280.0,1,94.363,
01/01/2000,01:21:23.21,20.25,-60.39,-991.62,166.25,-770.0,-350.0,1,94.367,
01/01/2000,01:21:23.22,20.25,-60.39,-991.74,113.75,-761.25,-411.25,1,94.371,
01/01/2000,01:21:23.23,20.13,-60.51,-991.74,140.0,-700.0,-332.50,1,94.375,
01/01/2000,01:21:23.24,20.25,-60.39,-991.86,218.75,-665.0,-393.75,1,94.378,
01/01/2000,01:21:23.25,20.25,-60.39,-991.98,113.75,-665.0,-280.0,1,94.382,
01/01/2000,01:21:23.26,20.13,-60.27,-991.86,122.50,-708.75,-332.50,1,94.386,
01/01/2000,01:21:23.28,20.01,-60.27,-991.74,131.25,-630.0,-297.50,1,94.389,
01/01/2000,01:21:23.29,20.01,-60.39,-991.74,157.50,-682.50,-402.50,1,94.393,
01/01/2000,01:21:23.30,20.01,-60.27,-991.62,0.0,-743.75,-315.0,1,94.397,
01/01/2000,01:21:23.31,20.01,-60.27,-991.74,166.25,-691.25,-376.25,1,94.401,
01/01/2000,01:21:23.32,20.01,-60.27,-991.86,78.75,-778.75,-297.50,1,94.404,
01/01/2000,01:21:23.33,20.01,-60.27,-991.86,122.50,-778.75,-358.75,1,94.408,
01/01/2000,01:21:23.34,20.13,-60.27,-991.86,175.0,-630.0,-341.25,1,94.412,
01/01/2000,01:21:23.35,20.25,-60.27,-991.86,43.75,-673.75,-315.0,1,94.415,
01/01/2000,01:21:23.36,20.25,-60.39,-991.86,166.25,-691.25,-350.0,1,94.419,
01/01/2000,01:21:23.37,20.13,-60.27,-991.86,131.25,-682.50,-306.25,1,94.423,
01/01/2000,01:21:23.38,20.13,-60.27,-991.74,253.75,-813.75,-411.25,1,94.426,
01/01/2000,01:21:23.39,20.25,-60.27,-991.86,157.50,-770.0,-376.25,1,94.430,
01/01/2000,01:21:23.40,20.25,-60.27,-991.86,175.0,-726.25,-385.0,1,94.434,
01/01/2000,01:21:23.41,20.37,-60.51,-991.86,157.50,-866.25,-262.50,1,94.375,
01/01/2000,01:21:23.42,20.25,-60.51,-991.74,113.75,-700.0,-498.75,1,94.379,
01/01/2000,01:21:23.43,20.25,-60.39,-991.62,245.0,-708.75,-393.75,1,94.383,
01/01/2000,01:21:23.44,20.37,-60.15,-991.74,61.25,-717.50,-455.0,1,94.386,
01/01/2000,01:21:23.45,20.50,-60.02,-991.74,148.75,-700.0,-288.75,1,94.390,
01/01/2000,01:21:23.46,20.37,-60.27,-991.86,61.25,-831.25,-271.25,1,94.394,
01/01/2000,01:21:23.48,20.13,-60.51,-991.62,175.0,-726.25,-402.50,1,94.397,
01/01/2000,01:21:23.49,20.13,-60.39,-991.74,105.0,-717.50,-288.75,1,94.340,
01/01/2000,01:21:23.50,20.13,-60.51,-991.86,26.25,-630.0,-332.50,1,94.343,
01/01/2000,01:21:23.51,20.13,-60.39,-991.74,192.50,-700.0,-183.75,1,94.347,
01/01/2000,01:21:23.52,20.01,-60.39,-991.62,78.75,-665.0,-358.75,1,94.351,
01/01/2000,01:21:23.53,20.01,-60.51,-991.74,157.50,-498.75,-367.50,1,94.354,
01/01/2000,01:21:23.54,20.13,-60.51,-991.86,157.50,-743.75,-315.0,1,94.358,
01/01/2000,01:21:23.56,20.13,-60.39,-991.86,96.25,-761.25,-253.75,1,94.362,
01/01/2000,01:21:23.57,20.01,-60.27,-991.74,148.75,-647.50,-288.75,1,94.365,
01/01/2000,01:21:23.58,20.01,-60.27,-991.62,183.75,-743.75,-385.0,1,94.369,
01/01/2000,01:21:23.59,20.01,-60.27,-991.74,253.75,-630.0,-367.50,1,94.373,
01/01/2000,01:21:23.60,20.13,-60.27,-991.86,192.50,-726.25,-411.25,1,94.376,
01/01/2000,01:21:23.61,20.25,-60.27,-991.86,288.75,-638.75,-210.0,1,94.380,
01/01/2000,01:21:23.62,20.01,-60.27,-991.86,253.75,-717.50,-332.50,1,94.383,
01/01/2000,01:21:23.63,20.01,-60.39,-991.74,35.0,-647.50,-402.50,1,94.387,
01/01/2000,01:21:23.64,20.01,-60.39,-991.86,113.75,-796.25,-358.75,1,94.391,
01/01/2000,01:21:23.65,20.13,-60.27,-992.10,210.0,-726.25,-315.0,1,94.394,
01/01/2000,01:21:23.66,20.25,-60.27,-992.10,140.0,-621.25,-280.0,1,94.398,
01/01/2000,01:21:23.67,20.13,-60.27,-991.98,183.75,-796.25,-332.50,1,94.402,
01/01/2000,01:21:23.68,20.01,-60.27,-991.86,175.0,-577.50,-341.25,1,94.405,
01/01/2000,01:21:23.69,20.25,-60.39,-991.86,140.0,-717.50,-332.50,1,94.409,
01/01/2000,01:21:23.70,20.25,-60.27,-991.98,140.0,-682.50,-236.25,1,94.412,
01/01/2000,01:21:23.71,20.25,-60.39,-991.98,175.0,-761.25,-315.0,1,94.416,
01/01/2000,01:21:23.72,20.25,-60.39,-991.86,166.25,-700.0,-315.0,1,94.420,
01/01/2000,01:21:23.73,20.13,-60.51,-991.86,157.50,-665.0,-323.75,1,94.423,
01/01/2000,01:21:23.74,20.25,-60.51,-991.74,218.75,-700.0,-297.50,1,94.427,
01/01/2000,01:21:23.75,20.25,-60.39,-991.86,297.50,-726.25,-306.25,1,94.430,
01/01/2000,01:21:23.77,20.25,-60.51,-991.74,78.75,-665.0,-245.0,1,94.373,
01/01/2000,01:21:23.78,20.25,-60.51,-991.62,236.25,-612.50,-376.25,1,94.377,
01/01/2000,01:21:23.79,20.13,-60.51,-991.49,131.25,-735.0,-288.75,1,94.381,
01/01/2000,01:21:23.80,20.25,-60.51,-991.49,210.0,-656.25,-341.25,1,94.384,
01/01/2000,01:21:23.81,20.13,-60.51,-991.86,113.75,-630.0,-315.0,1,94.388,
01/01/2000,01:21:23.82,20.13,-60.51,-991.74,245.0,-743.75,-332.50,1,94.391,
01/01/2000,01:21:23.83,20.01,-60.63,-991.74,183.75,-682.50,-306.25,1,94.395,
01/01/2000,01:21:23.84,20.13,-60.51,-991.74,-35.0,-568.75,-315.0,1,94.398,
01/01/2000,01:21:23.85,20.25,-60.51,-991.98,227.50,-621.25,-297.50,1,94.402,
01/01/2000,01:21:23.86,20.25,-60.39,-991.86,183.75,-726.25,-393.75,1,94.406,
01/01/2000,01:21:23.87,20.01,-60.51,-991.62,271.25,-656.25,-297.50,1,94.409,
01/01/2000,01:21:23.88,20.01,-60.51,-991.49,183.75,-638.75,-385.0,1,94.413,
01/01/2000,01:21:23.89,19.89,-60.39,-991.37,131.25,-778.75,-280.0,1,94.416,
01/01/2000,01:21:23.90,20.01,-60.27,-991.62,323.75,-717.50,-262.50,1,94.360,
01/01/2000,01:21:23.91,20.01,-60.39,-991.62,192.50,-726.25,-262.50,1,94.364,
01/01/2000,01:21:23.92,20.01,-60.51,-991.86,192.50,-656.25,-323.75,1,94.367,
01/01/2000,01:21:23.93,20.13,-60.51,-991.98,210.0,-682.50,-358.75,1,94.371,
01/01/2000,01:21:23.94,20.25,-60.39,-991.98,201.25,-682.50,-402.50,1,94.374,
01/01/2000,01:21:23.95,20.13,-60.27,-992.10,157.50,-682.50,-350.0,1,94.378,
01/01/2000,01:21:23.96,20.01,-60.27,-991.98,183.75,-743.75,-271.25,1,94.381,
01/01/2000,01:21:23.98,19.76,-60.27,-991.86,131.25,-586.25,-350.0,1,94.385,
01/01/2000,01:21:23.99,19.89,-60.51,-991.86,140.0,-630.0,-420.0,1,94.329,
01/01/2000,01:21:24.00,20.01,-60.39,-991.86,61.25,-603.75,-367.50,1,94.332,
01/01/2000,01:21:24.01,19.89,-60.51,-991.86,70.0,-743.75,-455.0,1,94.336,
01/01/2000,01:21:24.02,19.76,-60.51,-991.86,210.0,-691.25,-393.75,1,94.340,
01/01/2000,01:21:24.03,19.76,-60.27,-991.86,227.50,-770.0,-271.25,1,94.343,
01/01/2000,01:21:24.04,20.01,-60.51,-991.86,183.75,-656.25,-358.75,1,94.347,
01/01/2000,01:21:24.05,19.89,-60.51,-991.74,236.25,-665.0,-420.0,1,94.350,
01/01/2000,01:21:24.06,20.01,-60.63,-991.74,52.50,-717.50,-455.0,1,94.354,
01/01/2000,01:21:24.07,20.01,-60.51,-991.86,297.50,-787.50,-376.25,1,94.357,
01/01/2000,01:21:24.08,19.89,-60.51,-991.86,52.50,-673.75,-297.50,1,94.361,
01/01/2000,01:21:24.09,20.01,-60.39,-991.86,201.25,-761.25,-341.25,1,94.364,
01/01/2000,01:21:24.10,20.01,-60.39,-991.86,218.75,-621.25,-262.50,1,94.368,
01/01/2000,01:21:24.12,20.13,-60.51,-991.74,157.50,-717.50,-385.0,1,94.371,
01/01/2000,01:21:24.13,20.25,-60.51,-991.74,17.50,-708.75,-323.75,1,94.375,
01/01/2000,01:21:24.14,20.13,-60.63,-991.62,157.50,-717.50,-341.25,1,94.379,
01/01/2000,01:21:24.15,20.13,-60.51,-991.62,227.50,-638.75,-428.75,1,94.382,
01/01/2000,01:21:24.16,20.01,-60.39,-991.62,70.0,-708.75,-280.0,1,94.386,
01/01/2000,01:21:24.17,20.13,-60.27,-991.62,61.25,-708.75,-262.50,1,94.389,
01/01/2000,01:21:24.18,20.25,-60.27,-991.62,122.50,-682.50,-332.50,1,94.393,
01/01/2000,01:21:24.19,20.25,-60.15,-991.62,175.0,-673.75,-306.25,1,94.396,
01/01/2000,01:21:24.20,20.25,-60.27,-991.62,175.0,-752.50,-332.50,1,94.400,
01/01/2000,01:21:24.21,20.25,-60.27,-991.74,87.50,-682.50,-236.25,1,94.403,
01/01/2000,01:21:24.22,20.25,-60.15,-991.74,113.75,-560.0,-350.0,1,94.406,
01/01/2000,01:21:24.23,20.25,-60.02,-991.74,148.75,-586.25,-358.75,1,94.410,
01/01/2000,01:21:24.24,20.25,-60.02,-991.74,227.50,-682.50,-341.25,1,94.413,
01/01/2000,01:21:24.25,20.25,-60.27,-991.74,122.50,-673.75,-253.75,1,94.417,
01/01/2000,01:21:24.26,20.37,-60.27,-991.98,105.0,-665.0,-393.75,1,94.362,
01/01/2000,01:21:24.27,20.37,-60.39,-991.86,227.50,-700.0,-323.75,1,94.365,
01/01/2000,01:21:24.28,20.13,-60.39,-991.86,148.75,-673.75,-393.75,1,94.369,
01/01/2000,01:21:24.29,20.01,-60.15,-991.86,227.50,-682.50,-350.0,1,94.372,
01/01/2000,01:21:24.30,20.13,-60.27,-991.86,140.0,-647.50,-288.75,1,94.376,
01/01/2000,01:21:24.31,20.25,-60.27,-992.10,183.75,-813.75,-332.50,1,94.379,
01/01/2000,01:21:24.33,20.13,-60.51,-992.10,140.0,-682.50,-315.0,1,94.383,
01/01/2000,01:21:24.34,20.01,-60.39,-992.10,201.25,-656.25,-367.50,1,94.386,
01/01/2000,01:21:24.35,20.13,-60.39,-992.10,192.50,-595.0,-323.75,1,94.390,
01/01/2000,01:21:24.36,20.25,-60.27,-991.98,253.75,-656.25,-402.50,1,94.393,
01/01/2000,01:21:24.37,20.25,-60.27,-991.98,52.50,-665.0,-236.25,1,94.397,
01/01/2000,01:21:24.38,20.13,-60.51,-992.10,210.0,-761.25,-288.75,1,94.400,
01/01/2000,01:21:24.39,20.01,-60.51,-991.86,122.50,-647.50,-402.50,1,94.403,
01/01/2000,01:21:24.40,20.13,-60.39,-991.98,140.0,-708.75,-306.25,1,94.407,
01/01/2000,01:21:24.41,20.25,-60.39,-992.10,166.25,-726.25,-288.75,1,94.410,
01/01/2000,01:21:24.42,20.25,-60.27,-991.98,245.0,-700.0,-297.50,1,94.414,
01/01/2000,01:21:24.43,20.25,-60.39,-991.86,210.0,-708.75,-332.50,1,94.417,
01/01/2000,01:21:24.44,20.25,-60.51,-991.74,96.25,-612.50,-350.0,1,94.421,
01/01/2000,01:21:24.45,20.13,-60.51,-991.62,96.25,-726.25,-306.25,1,94.424,
01/01/2000,01:21:24.46,20.25,-60.51,-991.74,253.75,-726.25,-350.0,1,94.427,
01/01/2000,01:21:24.47,20.37,-60.39,-991.62,113.75,-630.0,-358.75,1,94.373,
01/01/2000,01:21:24.48,20.25,-60.27,-991.74,131.25,-691.25,-385.0,1,94.377,
01/01/2000,01:21:24.50,20.25,-60.27,-991.74,43.75,-717.50,-341.25,1,94.380,
01/01/2000,01:21:24.51,20.25,-60.27,-991.74,201.25,-743.75,-350.0,1,94.383,
01/01/2000,01:21:24.52,20.37,-60.27,-991.86,227.50,-700.0,-271.25,1,94.387,
01/01/2000,01:21:24.53,20.37,-60.27,-991.74,262.50,-787.50,-297.50,1,94.390,
01/01/2000,01:21:24.54,20.25,-60.27,-991.62,113.75,-831.25,-385.0,1,94.394,
01/01/2000,01:21:24.55,20.25,-60.27,-991.49,245.0,-673.75,-253.75,1,94.397,
01/01/2000,01:21:24.56,20.25,-60.27,-991.62,271.25,-630.0,-315.0,1,94.400,
01/01/2000,01:21:24.57,20.25,-60.27,-991.62,148.75,-717.50,-288.75,1,94.404,
01/01/2000,01:21:24.58,20.25,-60.39,-991.62,262.50,-665.0,-358.75,1,94.407,
01/01/2000,01:21:24.59,20.13,-60.39,-991.62,227.50,-673.75,-367.50,1,94.411,
01/01/2000,01:21:24.60,20.13,-60.27,-991.74,131.25,-691.25,-323.75,1,94.414,
01/01/2000,01:21:24.61,20.13,-60.15,-991.86,61.25,-743.75,-201.25,1,94.360,
01/01/2000,01:21:24.62,20.13,-60.15,-991.86,166.25,-673.75,-376.25,1,94.364,
01/01/2000,01:21:24.63,20.13,-60.27,-991.86,175.0,-691.25,-332.50,1,94.367,
01/01/2000,01:21:24.64,20.13,-60.27,-991.74,96.25,-708.75,-262.50,1,94.370,
01/01/2000,01:21:24.65,20.25,-60.39,-991.86,183.75,-612.50,-376.25,1,94.374,
01/01/2000,01:21:24.66,20.25,-60.27,-991.86,113.75,-682.50,-367.50,1,94.377,
01/01/2000,01:21:24.68,20.13,-60.39,-991.74,122.50,-673.75,-341.25,1,94.381,
01/01/2000,01:21:24.69,20.25,-60.51,-991.62,192.50,-770.0,-315.0,1,94.384,
01/01/2000,01:21:24.70,20.13,-60.39,-991.74,113.75,-595.0,-271.25,1,94.387,
01/01/2000,01:21:24.71,20.13,-60.51,-991.86,113.75,-761.25,-358.75,1,94.391,
01/01/2000,01:21:24.72,20.25,-60.39,-991.98,52.50,-673.75,-253.75,1,94.394,
01/01/2000,01:21:24.73,20.25,-60.51,-991.74,157.50,-752.50,-393.75,1,94.398,
01/01/2000,01:21:24.74,20.13,-60.51,-991.62,201.25,-752.50,-358.75,1,94.401,
01/01/2000,01:21:24.75,20.25,-60.15,-991.74,122.50,-796.25,-367.50,1,94.404,
01/01/2000,01:21:24.76,20.25,-60.15,-991.74,148.75,-682.50,-367.50,1,94.408,
01/01/2000,01:21:24.77,20.25,-60.02,-991.74,210.0,-743.75,-350.0,1,94.411,
01/01/2000,01:21:24.78,20.25,-60.39,-991.62,166.25,-647.50,-323.75,1,94.414,
01/01/2000,01:21:24.79,20.13,-60.51,-991.49,113.75,-717.50,-393.75,1,94.418,
01/01/2000,01:21:24.80,20.13,-60.51,-991.62,236.25,-656.25,-367.50,1,94.421,
01/01/2000,01:21:24.81,20.25,-60.27,-991.62,87.50,-743.75,-332.50,1,94.424,
01/01/2000,01:21:24.83,20.13,-60.15,-991.49,61.25,-805.0,-332.50,1,94.371,
01/01/2000,01:21:24.84,20.13,-60.02,-991.62,122.50,-700.0,-306.25,1,94.375,
