rtcDate,rtcTime,aX,aY,aZ,gX,gY,gZ,dataRdy,output_Hz,
01/01/2000,01:01:47.38,18.67,-48.92,-854.85,323.75,-708.75,-262.50,1,0.0,
01/01/2000,01:01:47.40,19.40,-50.39,-886.45,192.50,-586.25,-271.25,1,100.0,
01/01/2000,01:01:47.41,19.76,-51.12,-899.51,175.0,-691.25,-376.25,1,100.0,
01/01/2000,01:01:47.42,19.89,-51.85,-910.97,227.50,-700.0,-175.0,1,100.0,
01/01/2000,01:01:47.43,20.13,-52.58,-920.98,253.75,-752.50,-350.0,1,100.0,
01/01/2000,01:01:47.44,20.25,-53.31,-933.54,210.0,-638.75,-341.25,1,100.0,
01/01/2000,01:01:47.45,20.74,-53.68,-940.86,96.25,-656.25,-323.75,1,100.0,
01/01/2000,01:01:47.46,20.98,-53.92,-947.33,113.75,-691.25,-288.75,1,100.0,
01/01/2000,01:01:47.47,20.98,-54.53,-955.50,26.25,-647.50,-323.75,1,100.0,
01/01/2000,01:01:47.48,21.23,-54.90,-960.14,61.25,-577.50,-341.25,1,100.0,
01/01/2000,01:01:47.49,21.23,-55.14,-964.04,105.0,-691.25,-446.25,1,100.0,
01/01/2000,01:01:47.50,21.47,-55.39,-967.70,175.0,-682.50,-341.25,1,100.0,
01/01/2000,01:01:47.51,21.72,-55.51,-970.88,148.75,-726.25,-288.75,1,100.0,
01/01/2000,01:01:47.52,21.72,-55.88,-974.78,245.0,-735.0,-245.0,1,100.0,
01/01/2000,01:01:47.53,21.72,-56.12,-977.10,96.25,-682.50,-341.25,1,100.0,
01/01/2000,01:01:47.54,21.72,-56.36,-979.05,105.0,-656.25,-376.25,1,100.0,
01/01/2000,01:01:47.55,21.59,-56.12,-981.61,0.0,-700.0,-332.50,1,100.0,
01/01/2000,01:01:47.56,21.59,-56.24,-983.20,236.25,-638.75,-297.50,1,100.0,
01/01/2000,01:01:47.57,21.72,-56.36,-984.30,175.0,-700.0,-385.0,1,100.0,
01/01/2000,01:01:47.58,21.59,-56.36,-985.52,157.50,-682.50,-332.50,1,100.0,
01/01/2000,01:01:47.59,21.47,-56.61,-986.98,192.50,-691.25,-332.50,1,100.0,
01/01/2000,01:01:47.60,21.59,-56.61,-987.83,157.50,-630.0,-341.25,1,100.0,
01/01/2000,01:01:47.61,21.59,-56.61,-988.57,192.50,-708.75,-393.75,1,100.0,
01/01/2000,01:01:47.62,21.72,-56.61,-989.18,131.25,-673.75,-280.0,1,100.0,
01/01/2000,01:01:47.63,21.72,-56.73,-989.79,131.25,-691.25,-271.25,1,100.0,
01/01/2000,01:01:47.64,21.84,-56.85,-990.27,245.0,-595.0,-323.75,1,96.296,
01/01/2000,01:01:47.65,21.72,-56.97,-990.76,70.0,-770.0,-297.50,1,100.0,
01/01/2000,01:01:47.67,21.84,-56.73,-991.25,8.75,-708.75,-358.75,1,96.552,
01/01/2000,01:01:47.68,21.84,-56.61,-991.49,113.75,-770.0,-297.50,1,96.667,
01/01/2000,01:01:47.69,21.84,-56.61,-991.74,43.75,-665.0,-315.0,1,96.774,
01/01/2000,01:01:47.70,21.72,-56.73,-991.86,122.50,-586.25,-306.25,1,96.875,
01/01/2000,01:01:47.71,21.72,-56.61,-992.10,70.0,-717.50,-262.50,1,96.970,
01/01/2000,01:01:47.72,21.72,-56.61,-992.35,175.0,-603.75,-393.75,1,97.059,
01/01/2000,01:01:47.73,21.72,-56.61,-992.35,280.0,-665.0,-306.25,1,97.143,
01/01/2000,01:01:47.74,21.72,-56.61,-992.35,201.25,-717.50,-332.50,1,97.222,
01/01/2000,01:01:47.75,21.72,-56.73,-992.59,105.0,-612.50,-297.50,1,97.297,
01/01/2000,01:01:47.76,21.84,-56.61,-992.84,122.50,-831.25,-411.25,1,97.368,
01/01/2000,01:01:47.77,21.72,-56.61,-992.84,218.75,-673.75,-341.25,1,97.436,
01/01/2000,01:01:47.78,21.72,-56.61,-992.84,166.25,-603.75,-227.50,1,97.500,
01/01/2000,01:01:47.79,21.59,-56.61,-992.59,157.50,-708.75,-402.50,1,97.561,
01/01/2000,01:01:47.80,21.72,-56.49,-992.71,148.75,-708.75,-245.0,1,95.349,
01/01/2000,01:01:47.81,21.96,-56.49,-992.96,113.75,-638.75,-350.0,1,95.455,
01/01/2000,01:01:47.82,21.84,-56.49,-992.84,297.50,-700.0,-367.50,1,95.556,
01/01/2000,01:01:47.83,21.96,-56.36,-992.96,105.0,-682.50,-332.50,1,95.652,
01/01/2000,01:01:47.84,21.84,-56.36,-992.84,157.50,-700.0,-341.25,1,95.745,
01/01/2000,01:01:47.85,21.84,-56.61,-992.96,105.0,-656.25,-262.50,1,95.833,
01/01/2000,01:01:47.86,21.96,-56.61,-993.08,105.0,-665.0,-385.0,1,95.918,
01/01/2000,01:01:47.88,21.84,-56.61,-992.96,52.50,-647.50,-306.25,1,96.0,
01/01/2000,01:01:47.89,21.84,-56.49,-992.84,26.25,-691.25,-367.50,1,96.078,
01/01/2000,01:01:47.90,21.84,-56.61,-992.96,183.75,-717.50,-218.75,1,96.154,
01/01/2000,01:01:47.91,21.84,-56.61,-992.96,201.25,-700.0,-420.0,1,94.444,
01/01/2000,01:01:47.92,21.72,-56.61,-992.84,253.75,-691.25,-455.0,1,94.545,
01/01/2000,01:01:47.93,21.72,-56.61,-992.84,166.25,-840.0,-323.75,1,94.643,
01/01/2000,01:01:47.94,21.72,-56.61,-992.71,210.0,-752.50,-253.75,1,94.737,
01/01/2000,01:01:47.95,21.84,-56.61,-992.59,175.0,-700.0,-358.75,1,94.828,
01/01/2000,01:01:47.96,21.72,-56.49,-992.47,175.0,-673.75,-315.0,1,94.915,
01/01/2000,01:01:47.97,21.72,-56.49,-992.59,183.75,-743.75,-280.0,1,95.0,
01/01/2000,01:01:47.98,21.72,-56.61,-992.59,183.75,-752.50,-350.0,1,95.082,
01/01/2000,01:01:47.99,21.72,-56.61,-992.59,122.50,-726.25,-306.25,1,95.161,
01/01/2000,01:01:48.00,21.72,-56.49,-992.71,78.75,-560.0,-385.0,1,95.238,
01/01/2000,01:01:48.02,21.72,-56.61,-992.71,210.0,-577.50,-288.75,1,95.313,
01/01/2000,01:01:48.03,21.72,-56.61,-992.84,166.25,-673.75,-341.25,1,95.385,
01/01/2000,01:01:48.04,21.84,-56.61,-993.08,210.0,-726.25,-437.50,1,95.455,
01/01/2000,01:01:48.05,21.84,-56.49,-993.08,113.75,-778.75,-332.50,1,95.522,
01/01/2000,01:01:48.06,21.84,-56.61,-992.96,218.75,-595.0,-323.75,1,95.588,
01/01/2000,01:01:48.07,21.96,-56.49,-992.84,175.0,-665.0,-323.75,1,95.652,
01/01/2000,01:01:48.08,22.08,-56.36,-993.08,131.25,-682.50,-306.25,1,95.714,
01/01/2000,01:01:48.09,21.96,-56.49,-993.32,175.0,-638.75,-332.50,1,95.775,
01/01/2000,01:01:48.10,21.96,-56.61,-993.32,166.25,-682.50,-367.50,1,95.833,
01/01/2000,01:01:48.11,21.72,-56.61,-993.20,201.25,-673.75,-367.50,1,95.890,
01/01/2000,01:01:48.12,21.72,-56.49,-993.08,105.0,-638.75,-332.50,1,95.946,
01/01/2000,01:01:48.13,21.72,-56.36,-993.08,70.0,-647.50,-350.0,1,96.0,
01/01/2000,01:01:48.14,21.72,-56.49,-993.08,78.75,-813.75,-393.75,1,96.053,
01/01/2000,01:01:48.15,21.47,-56.49,-992.96,210.0,-682.50,-358.75,1,94.872,
01/01/2000,01:01:48.16,21.47,-56.49,-992.84,140.0,-638.75,-306.25,1,94.937,
01/01/2000,01:01:48.17,21.72,-56.49,-992.71,166.25,-726.25,-306.25,1,95.0,
01/01/2000,01:01:48.18,21.72,-56.49,-992.71,210.0,-691.25,-350.0,1,95.062,
01/01/2000,01:01:48.19,21.35,-56.49,-993.08,0.0,-682.50,-323.75,1,95.122,
01/01/2000,01:01:48.20,21.47,-56.73,-993.20,131.25,-586.25,-288.75,1,95.181,
01/01/2000,01:01:48.21,21.59,-56.36,-993.08,210.0,-735.0,-393.75,1,95.238,
01/01/2000,01:01:48.23,21.84,-56.61,-992.71,157.50,-752.50,-166.25,1,95.294,
01/01/2000,01:01:48.24,21.72,-56.73,-992.59,192.50,-577.50,-376.25,1,95.349,
01/01/2000,01:01:48.25,21.47,-56.73,-992.84,201.25,-595.0,-341.25,1,95.402,
01/01/2000,01:01:48.26,21.59,-56.73,-992.96,253.75,-708.75,-350.0,1,95.455,
01/01/2000,01:01:48.27,21.72,-56.36,-992.96,70.0,-647.50,-358.75,1,95.506,
01/01/2000,01:01:48.28,21.59,-56.36,-992.84,175.0,-700.0,-288.75,1,95.556,
01/01/2000,01:01:48.29,21.59,-56.49,-992.71,262.50,-700.0,-420.0,1,95.604,
01/01/2000,01:01:48.30,21.72,-56.36,-992.84,166.25,-735.0,-341.25,1,94.624,
01/01/2000,01:01:48.31,21.72,-56.61,-993.08,166.25,-630.0,-253.75,1,95.699,
01/01/2000,01:01:48.32,21.59,-56.61,-992.84,227.50,-638.75,-315.0,1,94.737,
01/01/2000,01:01:48.33,21.72,-56.36,-992.59,218.75,-682.50,-341.25,1,95.789,
01/01/2000,01:01:48.34,21.72,-56.36,-992.35,227.50,-630.0,-367.50,1,94.845,
01/01/2000,01:01:48.35,21.72,-56.36,-992.47,52.50,-717.50,-218.75,1,94.898,
01/01/2000,01:01:48.37,21.84,-56.73,-992.59,218.75,-708.75,-358.75,1,94.949,
01/01/2000,01:01:48.38,21.72,-56.61,-992.59,43.75,-787.50,-341.25,1,95.0,
01/01/2000,01:01:48.39,21.84,-56.73,-992.47,201.25,-700.0,-245.0,1,95.050,
01/01/2000,01:01:48.40,21.84,-56.49,-992.35,236.25,-708.75,-402.50,1,95.098,
01/01/2000,01:01:48.41,21.96,-56.36,-992.59,166.25,-673.75,-306.25,1,95.146,
01/01/2000,01:01:48.42,21.96,-56.61,-992.71,166.25,-673.75,-271.25,1,95.192,
01/01/2000,01:01:48.43,21.96,-56.49,-992.59,35.0,-630.0,-332.50,1,95.238,
01/01/2000,01:01:48.44,21.96,-56.61,-992.47,236.25,-735.0,-323.75,1,94.393,
01/01/2000,01:01:48.45,21.84,-56.36,-992.35,52.50,-691.25,-358.75,1,94.444,
01/01/2000,01:01:48.46,21.96,-56.49,-992.35,183.75,-638.75,-236.25,1,94.495,
01/01/2000,01:01:48.47,22.08,-56.61,-992.59,166.25,-726.25,-297.50,1,94.545,
01/01/2000,01:01:48.48,21.96,-56.61,-992.71,140.0,-630.0,-367.50,1,94.595,
01/01/2000,01:01:48.49,21.84,-56.73,-992.84,280.0,-770.0,-385.0,1,94.643,
01/01/2000,01:01:48.50,21.96,-56.49,-992.71,78.75,-647.50,-376.25,1,94.690,
01/01/2000,01:01:48.51,22.08,-56.36,-992.71,-8.75,-691.25,-271.25,1,94.737,
01/01/2000,01:01:48.52,22.08,-56.36,-992.84,105.0,-656.25,-323.75,1,94.783,
01/01/2000,01:01:48.53,21.59,-56.61,-992.84,227.50,-743.75,-315.0,1,94.828,
01/01/2000,01:01:48.54,21.47,-56.61,-992.96,166.25,-805.0,-271.25,1,94.872,
01/01/2000,01:01:48.55,21.72,-56.61,-993.08,166.25,-708.75,-525.0,1,94.915,
01/01/2000,01:01:48.56,22.20,-56.24,-992.84,201.25,-717.50,-201.25,1,94.958,
01/01/2000,01:01:48.58,22.33,-56.49,-992.35,70.0,-778.75,-175.0,1,95.0,
01/01/2000,01:01:48.59,21.59,-56.73,-992.71,148.75,-656.25,-332.50,1,95.041,
01/01/2000,01:01:48.60,21.72,-56.73,-992.96,218.75,-726.25,-525.0,1,95.082,
01/01/2000,01:01:48.61,22.08,-56.36,-993.08,236.25,-551.25,-437.50,1,95.122,
01/01/2000,01:01:48.62,22.20,-56.12,-993.08,253.75,-647.50,-175.0,1,95.161,
01/01/2000,01:01:48.63,21.96,-56.12,-992.47,87.50,-708.75,-350.0,1,95.200,
01/01/2000,01:01:48.64,21.72,-56.49,-992.35,166.25,-743.75,-385.0,1,95.238,
01/01/2000,01:01:48.65,21.72,-56.61,-992.84,183.75,-726.25,-455.0,1,94.531,
01/01/2000,01:01:48.66,21.96,-56.36,-992.96,52.50,-673.75,-428.75,1,94.574,
01/01/2000,01:01:48.67,21.96,-56.24,-992.84,245.0,-560.0,-367.50,1,94.615,
01/01/2000,01:01:48.68,21.96,-56.00,-992.59,113.75,-673.75,-236.25,1,94.656,
01/01/2000,01:01:48.69,21.72,-56.12,-992.35,157.50,-717.50,-350.0,1,94.697,
01/01/2000,01:01:48.70,21.84,-56.24,-992.35,166.25,-621.25,-297.50,1,94.737,
01/01/2000,01:01:48.71,22.08,-56.36,-992.84,148.75,-743.75,-393.75,1,94.776,
01/01/2000,01:01:48.73,21.84,-56.24,-992.84,201.25,-612.50,-358.75,1,94.815,
01/01/2000,01:01:48.74,21.59,-56.12,-992.59,157.50,-770.0,-280.0,1,94.853,
01/01/2000,01:01:48.75,21.59,-56.12,-992.35,61.25,-717.50,-271.25,1,94.891,
01/01/2000,01:01:48.76,21.96,-56.24,-992.47,148.75,-708.75,-288.75,1,94.928,
01/01/2000,01:01:48.77,22.20,-56.49,-992.59,70.0,-761.25,-332.50,1,94.964,
01/01/2000,01:01:48.78,22.08,-56.61,-992.71,52.50,-533.75,-323.75,1,95.0,
01/01/2000,01:01:48.79,21.84,-56.73,-992.23,218.75,-752.50,-411.25,1,95.035,
01/01/2000,01:01:48.80,21.72,-56.49,-992.23,245.0,-708.75,-358.75,1,95.070,
01/01/2000,01:01:48.81,21.84,-56.12,-992.47,131.25,-665.0,-262.50,1,95.105,
01/01/2000,01:01:48.82,21.96,-56.12,-992.59,236.25,-665.0,-306.25,1,95.139,
01/01/2000,01:01:48.83,21.84,-56.36,-992.59,131.25,-708.75,-332.50,1,95.172,
01/01/2000,01:01:48.84,21.72,-56.61,-992.47,210.0,-708.75,-385.0,1,95.205,
01/01/2000,01:01:48.85,21.47,-56.61,-992.35,140.0,-700.0,-332.50,1,95.238,
01/01/2000,01:01:48.86,21.72,-56.49,-992.47,131.25,-735.0,-280.0,1,94.631,
01/01/2000,01:01:48.87,21.84,-56.24,-992.59,201.25,-778.75,-332.50,1,94.667,
01/01/2000,01:01:48.88,21.59,-56.49,-992.59,183.75,-700.0,-227.50,1,94.702,
01/01/2000,01:01:48.90,21.72,-56.49,-992.35,96.25,-673.75,-376.25,1,94.737,
01/01/2000,01:01:48.90,21.84,-56.49,-992.23,262.50,-717.50,-323.75,1,94.771,
01/01/2000,01:01:48.92,22.08,-56.36,-992.23,61.25,-735.0,-280.0,1,94.805,
01/01/2000,01:01:48.93,21.72,-56.49,-992.23,35.0,-665.0,-271.25,1,94.839,
01/01/2000,01:01:48.94,21.59,-56.49,-992.35,122.50,-656.25,-455.0,1,94.268,
01/01/2000,01:01:48.95,21.72,-56.36,-992.35,201.25,-761.25,-358.75,1,94.304,
01/01/2000,01:01:48.96,21.84,-56.36,-992.35,201.25,-805.0,-218.75,1,94.340,
01/01/2000,01:01:48.97,21.96,-56.49,-992.23,157.50,-761.25,-297.50,1,94.375,
01/01/2000,01:01:48.98,21.84,-56.61,-992.10,175.0,-726.25,-446.25,1,94.410,
01/01/2000,01:01:48.99,21.59,-56.61,-992.10,113.75,-673.75,-297.50,1,94.444,
01/01/2000,01:01:49.01,21.72,-56.36,-992.47,96.25,-647.50,-332.50,1,94.479,
01/01/2000,01:01:49.02,21.72,-56.12,-992.59,192.50,-717.50,-271.25,1,94.512,
01/01/2000,01:01:49.03,21.84,-56.12,-992.35,105.0,-726.25,-218.75,1,94.545,
01/01/2000,01:01:49.04,21.96,-56.24,-992.23,113.75,-673.75,-262.50,1,94.578,
01/01/2000,01:01:49.05,21.84,-56.61,-992.10,148.75,-726.25,-411.25,1,94.611,
01/01/2000,01:01:49.06,21.84,-56.61,-992.59,35.0,-612.50,-428.75,1,94.643,
01/01/2000,01:01:49.07,21.96,-56.49,-992.71,201.25,-612.50,-411.25,1,94.675,
01/01/2000,01:01:49.08,21.84,-56.24,-992.59,288.75,-796.25,-245.0,1,94.706,
01/01/2000,01:01:49.09,21.72,-56.24,-992.23,166.25,-682.50,-262.50,1,94.737,
01/01/2000,01:01:49.10,21.84,-56.49,-991.98,183.75,-770.0,-358.75,1,94.767,
01/01/2000,01:01:49.11,22.08,-56.61,-992.10,78.75,-813.75,-323.75,1,94.798,
01/01/2000,01:01:49.12,21.96,-56.61,-992.47,96.25,-682.50,-358.75,1,94.828,
01/01/2000,01:01:49.13,21.72,-56.85,-992.71,192.50,-778.75,-507.50,1,94.857,
01/01/2000,01:01:49.14,21.59,-56.49,-992.47,122.50,-586.25,-315.0,1,94.886,
01/01/2000,01:01:49.15,22.08,-56.24,-992.35,253.75,-682.50,-323.75,1,94.915,
01/01/2000,01:01:49.16,22.20,-56.36,-992.23,131.25,-665.0,-192.50,1,94.944,
01/01/2000,01:01:49.17,22.20,-56.85,-992.23,201.25,-630.0,-288.75,1,94.972,
01/01/2000,01:01:49.18,21.96,-57.10,-992.35,140.0,-735.0,-367.50,1,95.0,
01/01/2000,01:01:49.19,21.84,-56.97,-992.47,157.50,-708.75,-516.25,1,95.028,
01/01/2000,01:01:49.20,21.84,-56.85,-992.59,210.0,-822.50,-420.0,1,94.536,
01/01/2000,01:01:49.22,21.72,-56.24,-992.35,183.75,-717.50,-183.75,1,94.565,
01/01/2000,01:01:49.23,21.84,-56.36,-992.35,192.50,-726.25,-201.25,1,94.595,
01/01/2000,01:01:49.24,21.84,-56.61,-992.35,113.75,-682.50,-271.25,1,94.624,
01/01/2000,01:01:49.25,21.84,-56.97,-992.47,227.50,-787.50,-341.25,1,94.652,
01/01/2000,01:01:49.26,21.72,-56.73,-992.71,210.0,-761.25,-428.75,1,94.681,
01/01/2000,01:01:49.27,21.72,-56.49,-992.59,183.75,-778.75,-402.50,1,94.709,
01/01/2000,01:01:49.28,21.96,-56.24,-992.47,210.0,-735.0,-323.75,1,94.737,
01/01/2000,01:01:49.29,21.59,-56.36,-992.59,201.25,-700.0,-358.75,1,94.764,
01/01/2000,01:01:49.30,21.59,-56.36,-992.71,236.25,-735.0,-315.0,1,94.792,
01/01/2000,01:01:49.31,21.72,-56.61,-992.71,148.75,-621.25,-367.50,1,94.819,
01/01/2000,01:01:49.32,21.84,-56.49,-992.71,236.25,-700.0,-306.25,1,94.845,
01/01/2000,01:01:49.33,21.96,-56.36,-992.47,157.50,-717.50,-306.25,1,94.872,
01/01/2000,01:01:49.34,21.96,-56.36,-992.47,148.75,-682.50,-227.50,1,94.898,
01/01/2000,01:01:49.35,21.96,-56.49,-992.71,148.75,-682.50,-297.50,1,94.444,
01/01/2000,01:01:49.36,21.84,-56.49,-992.84,227.50,-735.0,-350.0,1,94.472,
01/01/2000,01:01:49.37,22.20,-56.24,-992.96,227.50,-673.75,-332.50,1,94.500,
01/01/2000,01:01:49.38,22.20,-56.12,-992.84,43.75,-761.25,-306.25,1,94.527,
01/01/2000,01:01:49.39,21.96,-56.36,-992.59,297.50,-647.50,-288.75,1,94.554,
01/01/2000,01:01:49.40,21.84,-56.36,-992.59,192.50,-630.0,-227.50,1,94.581,
01/01/2000,01:01:49.41,21.96,-56.49,-993.08,122.50,-638.75,-437.50,1,94.608,
01/01/2000,01:01:49.43,22.08,-56.36,-992.71,166.25,-805.0,-332.50,1,94.175,
01/01/2000,01:01:49.44,21.96,-56.49,-992.47,166.25,-682.50,-323.75,1,94.203,
01/01/2000,01:01:49.45,21.84,-56.61,-992.59,210.0,-682.50,-402.50,1,94.231,
01/01/2000,01:01:49.46,21.84,-56.49,-992.71,52.50,-630.0,-227.50,1,94.258,
01/01/2000,01:01:49.47,22.08,-56.49,-992.84,271.25,-708.75,-306.25,1,94.286,
01/01/2000,01:01:49.48,22.08,-56.61,-992.84,105.0,-647.50,-271.25,1,94.313,
01/01/2000,01:01:49.49,21.96,-56.73,-992.59,201.25,-673.75,-350.0,1,94.340,
01/01/2000,01:01:49.50,21.72,-56.61,-992.35,122.50,-673.75,-350.0,1,94.366,
01/01/2000,01:01:49.52,21.84,-56.61,-992.59,122.50,-612.50,-341.25,1,94.393,
01/01/2000,01:01:49.52,21.96,-56.61,-992.71,323.75,-630.0,-323.75,1,94.419,
01/01/2000,01:01:49.54,21.84,-56.49,-992.71,78.75,-665.0,-332.50,1,94.444,
01/01/2000,01:01:49.55,21.84,-56.49,-992.47,140.0,-630.0,-306.25,1,94.470,
01/01/2000,01:01:49.56,21.72,-56.36,-992.35,113.75,-717.50,-358.75,1,94.495,
01/01/2000,01:01:49.57,21.96,-56.61,-992.35,192.50,-778.75,-306.25,1,94.521,
01/01/2000,01:01:49.58,21.96,-56.61,-992.59,17.50,-726.25,-332.50,1,94.545,
01/01/2000,01:01:49.59,21.96,-56.36,-992.59,236.25,-752.50,-236.25,1,94.570,
01/01/2000,01:01:49.60,22.08,-56.36,-992.35,96.25,-647.50,-332.50,1,94.595,
01/01/2000,01:01:49.61,21.96,-56.49,-992.10,227.50,-700.0,-332.50,1,94.619,
01/01/2000,01:01:49.62,21.84,-56.49,-992.35,105.0,-778.75,-315.0,1,94.643,
01/01/2000,01:01:49.63,22.08,-56.36,-992.59,210.0,-603.75,-385.0,1,94.667,
01/01/2000,01:01:49.64,21.96,-56.12,-992.71,297.50,-638.75,-393.75,1,94.690,
01/01/2000,01:01:49.65,21.84,-56.12,-992.59,-70.0,-577.50,-306.25,1,94.714,
01/01/2000,01:01:49.66,21.72,-56.36,-992.35,201.25,-595.0,-358.75,1,94.737,
01/01/2000,01:01:49.67,21.84,-56.24,-992.35,183.75,-778.75,-341.25,1,94.760,
01/01/2000,01:01:49.68,21.96,-56.36,-992.47,131.25,-568.75,-385.0,1,94.783,
01/01/2000,01:01:49.69,21.84,-56.61,-992.59,78.75,-726.25,-411.25,1,94.805,
01/01/2000,01:01:49.70,22.08,-56.24,-992.35,131.25,-665.0,-428.75,1,94.828,
01/01/2000,01:01:49.71,22.20,-56.36,-992.10,201.25,-761.25,-192.50,1,94.850,
01/01/2000,01:01:49.72,21.96,-56.49,-992.10,-8.75,-673.75,-350.0,1,94.872,
01/01/2000,01:01:49.73,21.72,-56.61,-992.47,148.75,-708.75,-516.25,1,94.894,
01/01/2000,01:01:49.74,21.84,-56.49,-992.71,236.25,-708.75,-393.75,1,94.915,
01/01/2000,01:01:49.75,21.96,-56.24,-992.59,61.25,-647.50,-350.0,1,94.937,
01/01/2000,01:01:49.76,21.72,-56.36,-992.35,192.50,-577.50,-183.75,1,94.958,
01/01/2000,01:01:49.77,21.59,-56.49,-992.10,61.25,-700.0,-280.0,1,94.583,
01/01/2000,01:01:49.78,21.47,-56.61,-992.23,131.25,-691.25,-428.75,1,94.606,
01/01/2000,01:01:49.79,21.72,-56.85,-992.59,253.75,-700.0,-393.75,1,94.628,
01/01/2000,01:01:49.80,21.84,-56.49,-992.59,26.25,-621.25,-297.50,1,94.650,
01/01/2000,01:01:49.81,21.84,-56.49,-992.23,227.50,-726.25,-262.50,1,94.672,
01/01/2000,01:01:49.82,21.72,-56.49,-991.98,227.50,-647.50,-323.75,1,94.694,
01/01/2000,01:01:49.83,21.47,-56.61,-992.10,96.25,-717.50,-411.25,1,94.715,
01/01/2000,01:01:49.85,21.72,-56.61,-992.23,105.0,-656.25,-332.50,1,94.737,
01/01/2000,01:01:49.86,21.72,-56.49,-992.47,17.50,-717.50,-358.75,1,94.758,
01/01/2000,01:01:49.87,21.72,-56.49,-992.35,105.0,-778.75,-288.75,1,94.779,
01/01/2000,01:01:49.88,21.59,-56.49,-992.23,175.0,-717.50,-446.25,1,94.800,
01/01/2000,01:01:49.89,21.72,-56.12,-992.35,262.50,-796.25,-245.0,1,94.821,
01/01/2000,01:01:49.90,21.84,-56.49,-992.59,271.25,-682.50,-393.75,1,94.841,
01/01/2000,01:01:49.91,21.59,-56.36,-992.84,96.25,-796.25,-350.0,1,94.862,
01/01/2000,01:01:49.92,21.72,-56.61,-992.35,210.0,-682.50,-446.25,1,94.510,
01/01/2000,01:01:49.93,21.59,-56.36,-992.10,175.0,-752.50,-385.0,1,94.531,
01/01/2000,01:01:49.95,21.59,-56.49,-992.35,175.0,-735.0,-306.25,1,94.553,
01/01/2000,01:01:49.96,21.84,-56.61,-992.47,148.75,-638.75,-341.25,1,94.574,
01/01/2000,01:01:49.97,21.72,-56.49,-992.59,148.75,-630.0,-271.25,1,94.595,
01/01/2000,01:01:49.98,21.72,-56.85,-992.35,341.25,-621.25,-376.25,1,94.615,
01/01/2000,01:01:49.99,21.72,-56.61,-992.10,166.25,-647.50,-253.75,1,94.636,
01/01/2000,01:01:50.00,21.72,-56.61,-992.10,26.25,-656.25,-376.25,1,94.656,
01/01/2000,01:01:50.01,21.72,-56.61,-992.35,148.75,-761.25,-306.25,1,94.677,
01/01/2000,01:01:50.02,21.47,-56.61,-992.35,113.75,-665.0,-297.50,1,94.697,
01/01/2000,01:01:50.03,21.47,-56.85,-992.35,236.25,-647.50,-376.25,1,94.717,
01/01/2000,01:01:50.04,21.59,-56.73,-992.23,70.0,-682.50,-358.75,1,94.737,
01/01/2000,01:01:50.05,21.96,-56.61,-992.10,157.50,-752.50,-227.50,1,94.757,
01/01/2000,01:01:50.06,21.96,-56.73,-992.10,288.75,-682.50,-297.50,1,94.776,
01/01/2000,01:01:50.07,21.84,-56.73,-992.23,-52.50,-630.0,-288.75,1,94.796,
01/01/2000,01:01:50.08,21.72,-56.85,-992.23,218.75,-717.50,-428.75,1,94.815,
01/01/2000,01:01:50.09,21.59,-56.73,-992.23,157.50,-708.75,-323.75,1,94.834,
01/01/2000,01:01:50.10,21.72,-56.49,-992.23,148.75,-603.75,-271.25,1,94.853,
01/01/2000,01:01:50.11,21.84,-56.49,-991.98,323.75,-621.25,-332.50,1,94.872,
01/01/2000,01:01:50.12,21.72,-56.61,-991.98,166.25,-735.0,-332.50,1,94.545,
01/01/2000,01:01:50.13,21.59,-56.85,-991.86,122.50,-638.75,-446.25,1,94.565,
01/01/2000,01:01:50.15,21.72,-56.73,-991.98,175.0,-840.0,-358.75,1,94.585,
01/01/2000,01:01:50.16,21.84,-56.36,-992.10,157.50,-735.0,-253.75,1,94.604,
01/01/2000,01:01:50.17,21.84,-56.36,-991.86,210.0,-656.25,-201.25,1,94.624,
01/01/2000,01:01:50.18,21.59,-56.49,-991.86,218.75,-700.0,-323.75,1,94.643,
01/01/2000,01:01:50.19,21.47,-56.61,-992.10,183.75,-778.75,-367.50,1,94.662,
01/01/2000,01:01:50.20,21.84,-56.61,-992.10,131.25,-743.75,-253.75,1,94.681,
01/01/2000,01:01:50.21,21.84,-56.49,-992.10,78.75,-586.25,-341.25,1,94.700,
01/01/2000,01:01:50.22,21.72,-56.49,-991.98,113.75,-752.50,-288.75,1,94.718,
01/01/2000,01:01:50.23,21.59,-56.61,-992.10,323.75,-787.50,-446.25,1,94.737,
01/01/2000,01:01:50.24,21.96,-56.36,-992.23,175.0,-673.75,-288.75,1,94.755,
01/01/2000,01:01:50.25,21.96,-56.36,-992.23,280.0,-726.25,-455.0,1,94.774,
01/01/2000,01:01:50.26,21.84,-56.24,-992.35,157.50,-717.50,-446.25,1,94.792,
01/01/2000,01:01:50.27,21.96,-56.49,-992.10,113.75,-673.75,-350.0,1,94.483,
01/01/2000,01:01:50.28,21.96,-56.36,-992.10,218.75,-700.0,-227.50,1,94.502,
01/01/2000,01:01:50.29,21.96,-56.36,-992.35,148.75,-822.50,-332.50,1,94.521,
01/01/2000,01:01:50.30,21.84,-56.36,-992.35,262.50,-656.25,-306.25,1,94.539,
01/01/2000,01:01:50.31,21.96,-56.24,-992.10,148.75,-743.75,-420.0,1,94.558,
01/01/2000,01:01:50.32,22.20,-56.49,-991.98,140.0,-743.75,-201.25,1,94.576,
01/01/2000,01:01:50.34,22.08,-56.61,-991.98,201.25,-673.75,-437.50,1,94.595,
01/01/2000,01:01:50.35,22.20,-56.61,-991.98,227.50,-647.50,-402.50,1,94.613,
01/01/2000,01:01:50.36,22.45,-56.49,-992.10,218.75,-796.25,-341.25,1,94.631,
01/01/2000,01:01:50.37,22.20,-56.36,-992.23,210.0,-708.75,-280.0,1,94.649,
01/01/2000,01:01:50.38,22.20,-56.36,-992.23,113.75,-665.0,-350.0,1,94.667,
01/01/2000,01:01:50.39,22.20,-56.49,-992.23,236.25,-700.0,-297.50,1,94.684,
01/01/2000,01:01:50.40,22.08,-56.36,-992.35,87.50,-691.25,-306.25,1,94.702,
01/01/2000,01:01:50.41,22.08,-56.61,-992.35,297.50,-708.75,-385.0,1,94.719,
01/01/2000,01:01:50.42,22.08,-56.36,-992.35,148.75,-735.0,-280.0,1,94.737,
01/01/2000,01:01:50.43,21.96,-56.61,-992.23,96.25,-682.50,-385.0,1,94.754,
01/01/2000,01:01:50.44,21.84,-56.49,-992.23,78.75,-787.50,-297.50,1,94.771,
01/01/2000,01:01:50.46,21.96,-56.49,-992.47,201.25,-630.0,-332.50,1,94.481,
01/01/2000,01:01:50.47,21.96,-56.61,-992.47,166.25,-630.0,-323.75,1,94.498,
01/01/2000,01:01:50.48,21.84,-56.61,-992.35,122.50,-682.50,-332.50,1,94.516,
01/01/2000,01:01:50.49,21.72,-56.61,-992.35,201.25,-770.0,-358.75,1,94.534,
01/01/2000,01:01:50.50,21.96,-56.61,-992.47,183.75,-656.25,-148.75,1,94.551,
01/01/2000,01:01:50.51,21.84,-56.61,-992.71,183.75,-682.50,-358.75,1,94.569,
01/01/2000,01:01:50.52,21.84,-56.49,-992.59,113.75,-656.25,-297.50,1,94.586,
01/01/2000,01:01:50.53,21.72,-56.61,-992.47,288.75,-665.0,-411.25,1,94.603,
01/01/2000,01:01:50.54,21.72,-56.61,-992.47,183.75,-630.0,-332.50,1,94.620,
01/01/2000,01:01:50.55,21.72,-56.73,-992.59,61.25,-647.50,-376.25,1,94.637,
01/01/2000,01:01:50.56,21.72,-56.61,-992.59,253.75,-577.50,-288.75,1,94.654,
01/01/2000,01:01:50.57,21.72,-56.61,-992.59,113.75,-665.0,-280.0,1,94.671,
01/01/2000,01:01:50.58,21.84,-56.61,-992.47,96.25,-665.0,-315.0,1,94.688,
01/01/2000,01:01:50.59,21.72,-56.61,-992.59,166.25,-708.75,-315.0,1,94.704,
01/01/2000,01:01:50.60,21.84,-56.49,-992.59,271.25,-630.0,-280.0,1,94.720,
01/01/2000,01:01:50.61,21.96,-56.49,-992.71,157.50,-682.50,-297.50,1,94.737,
01/01/2000,01:01:50.62,21.96,-56.49,-992.71,8.75,-691.25,-271.25,1,94.753,
01/01/2000,01:01:50.63,21.84,-56.73,-992.47,210.0,-735.0,-376.25,1,94.769,
01/01/2000,01:01:50.64,22.08,-56.61,-992.47,201.25,-726.25,-315.0,1,94.495,
01/01/2000,01:01:50.65,22.20,-56.61,-992.59,140.0,-621.25,-323.75,1,94.801,
01/01/2000,01:01:50.66,22.08,-56.61,-992.59,192.50,-630.0,-315.0,1,94.529,
01/01/2000,01:01:50.67,21.96,-56.49,-992.59,78.75,-761.25,-315.0,1,94.545,
01/01/2000,01:01:50.68,21.96,-56.49,-992.47,131.25,-656.25,-271.25,1,94.562,
01/01/2000,01:01:50.70,22.08,-56.49,-992.35,175.0,-682.50,-341.25,1,94.578,
01/01/2000,01:01:50.71,22.20,-56.49,-992.47,236.25,-612.50,-350.0,1,94.595,
01/01/2000,01:01:50.72,22.33,-56.73,-992.47,271.25,-665.0,-271.25,1,94.611,
01/01/2000,01:01:50.73,22.33,-56.49,-992.47,70.0,-743.75,-253.75,1,94.627,
01/01/2000,01:01:50.74,22.20,-56.61,-992.35,210.0,-691.25,-297.50,1,94.643,
01/01/2000,01:01:50.75,22.33,-56.61,-992.35,-8.75,-700.0,-341.25,1,94.659,
01/01/2000,01:01:50.76,22.08,-56.49,-992.35,175.0,-770.0,-446.25,1,94.675,
01/01/2000,01:01:50.77,22.20,-56.36,-992.35,26.25,-700.0,-192.50,1,94.690,
01/01/2000,01:01:50.78,22.20,-56.61,-992.35,201.25,-560.0,-393.75,1,94.706,
01/01/2000,01:01:50.79,22.08,-56.36,-992.35,70.0,-691.25,-350.0,1,94.721,
01/01/2000,01:01:50.80,22.20,-56.73,-992.35,218.75,-752.50,-262.50,1,94.737,
01/01/2000,01:01:50.81,22.08,-56.61,-992.35,183.75,-656.25,-323.75,1,94.752,
01/01/2000,01:01:50.82,22.08,-56.36,-992.47,52.50,-630.0,-367.50,1,94.767,
01/01/2000,01:01:50.84,22.08,-56.49,-992.47,157.50,-603.75,-393.75,1,94.509,
01/01/2000,01:01:50.85,21.72,-56.24,-992.59,70.0,-735.0,-201.25,1,94.524,
01/01/2000,01:01:50.86,21.96,-56.49,-992.59,148.75,-577.50,-411.25,1,94.540,
01/01/2000,01:01:50.87,22.08,-56.36,-992.59,367.50,-665.0,-385.0,1,94.556,
01/01/2000,01:01:50.88,22.20,-56.24,-992.59,52.50,-770.0,-280.0,1,94.571,
01/01/2000,01:01:50.89,22.08,-56.73,-992.47,140.0,-761.25,-420.0,1,94.587,
01/01/2000,01:01:50.90,21.96,-56.49,-992.59,131.25,-700.0,-297.50,1,94.602,
01/01/2000,01:01:50.91,22.33,-56.49,-992.59,166.25,-770.0,-253.75,1,94.618,
01/01/2000,01:01:50.92,22.20,-56.24,-992.71,148.75,-726.25,-332.50,1,94.633,
01/01/2000,01:01:50.93,22.20,-56.36,-992.59,157.50,-700.0,-341.25,1,94.648,
01/01/2000,01:01:50.94,22.20,-56.61,-992.59,192.50,-682.50,-490.0,1,94.663,
01/01/2000,01:01:50.95,22.08,-56.36,-992.59,70.0,-717.50,-358.75,1,94.678,
01/01/2000,01:01:50.97,22.33,-56.36,-992.59,280.0,-726.25,-297.50,1,94.429,
01/01/2000,01:01:50.98,22.20,-56.24,-992.35,253.75,-717.50,-262.50,1,94.444,
01/01/2000,01:01:50.99,22.08,-56.49,-992.23,201.25,-682.50,-271.25,1,94.460,
01/01/2000,01:01:51.00,22.20,-56.49,-992.23,175.0,-796.25,-297.50,1,94.475,
01/01/2000,01:01:51.01,22.20,-56.49,-992.35,87.50,-787.50,-297.50,1,94.490,
01/01/2000,01:01:51.02,22.20,-56.73,-992.35,227.50,-787.50,-420.0,1,94.505,
01/01/2000,01:01:51.03,22.20,-56.36,-992.10,175.0,-700.0,-402.50,1,94.521,
01/01/2000,01:01:51.04,21.96,-56.49,-992.23,218.75,-717.50,-315.0,1,94.536,
01/01/2000,01:01:51.05,22.08,-56.36,-992.23,227.50,-761.25,-271.25,1,94.550,
01/01/2000,01:01:51.06,22.08,-56.49,-992.47,192.50,-717.50,-271.25,1,94.565,
01/01/2000,01:01:51.07,22.08,-56.36,-992.35,183.75,-638.75,-463.75,1,94.580,
01/01/2000,01:01:51.08,21.84,-56.49,-992.23,148.75,-778.75,-428.75,1,94.595,
01/01/2000,01:01:51.09,21.84,-56.24,-992.23,131.25,-743.75,-358.75,1,94.609,
01/01/2000,01:01:51.10,21.84,-56.49,-992.10,166.25,-717.50,-481.25,1,94.624,
01/01/2000,01:01:51.11,21.84,-56.24,-992.35,218.75,-717.50,-245.0,1,94.385,
01/01/2000,01:01:51.12,21.72,-56.36,-992.35,148.75,-700.0,-350.0,1,94.400,
01/01/2000,01:01:51.13,21.72,-56.36,-992.35,218.75,-568.75,-385.0,1,94.415,
01/01/2000,01:01:51.14,21.96,-56.36,-992.35,166.25,-708.75,-437.50,1,94.430,
01/01/2000,01:01:51.15,22.08,-56.36,-992.23,306.25,-735.0,-315.0,1,94.444,
01/01/2000,01:01:51.16,22.20,-56.24,-992.35,140.0,-735.0,-166.25,1,94.459,
01/01/2000,01:01:51.17,21.96,-56.36,-992.47,210.0,-822.50,-393.75,1,94.474,
01/01/2000,01:01:51.19,21.96,-56.36,-992.35,245.0,-708.75,-341.25,1,94.488,
01/01/2000,01:01:51.20,21.96,-56.36,-992.35,297.50,-708.75,-358.75,1,94.503,
01/01/2000,01:01:51.21,21.96,-56.24,-992.35,166.25,-656.25,-437.50,1,94.517,
01/01/2000,01:01:51.22,21.96,-56.00,-992.59,183.75,-761.25,-297.50,1,94.531,
01/01/2000,01:01:51.23,22.20,-56.12,-992.35,271.25,-752.50,-253.75,1,94.545,
01/01/2000,01:01:51.24,21.96,-56.36,-992.23,131.25,-700.0,-350.0,1,94.560,
01/01/2000,01:01:51.25,21.84,-56.36,-992.10,70.0,-656.25,-306.25,1,94.574,
01/01/2000,01:01:51.26,21.96,-56.36,-991.98,192.50,-682.50,-411.25,1,94.588,
01/01/2000,01:01:51.27,21.96,-56.12,-992.10,140.0,-708.75,-332.50,1,94.602,
01/01/2000,01:01:51.28,21.96,-56.12,-992.10,218.75,-647.50,-385.0,1,94.615,
01/01/2000,01:01:51.29,21.72,-56.24,-991.98,175.0,-735.0,-323.75,1,94.629,
01/01/2000,01:01:51.30,21.84,-56.12,-991.86,297.50,-717.50,-332.50,1,94.402,
01/01/2000,01:01:51.31,21.96,-56.12,-991.86,131.25,-638.75,-323.75,1,94.656,
01/01/2000,01:01:51.33,21.96,-56.12,-991.98,78.75,-840.0,-253.75,1,94.430,
01/01/2000,01:01:51.34,21.84,-56.12,-991.86,253.75,-708.75,-420.0,1,94.444,
01/01/2000,01:01:51.35,21.84,-56.24,-991.86,227.50,-778.75,-376.25,1,94.458,
01/01/2000,01:01:51.36,21.72,-56.12,-991.86,96.25,-647.50,-385.0,1,94.472,
01/01/2000,01:01:51.37,21.84,-56.12,-991.98,280.0,-630.0,-315.0,1,94.486,
01/01/2000,01:01:51.38,21.96,-56.12,-991.98,210.0,-630.0,-350.0,1,94.500,
01/01/2000,01:01:51.39,21.72,-56.24,-991.98,192.50,-752.50,-323.75,1,94.514,
01/01/2000,01:01:51.40,21.84,-56.36,-991.98,105.0,-568.75,-393.75,1,94.527,
01/01/2000,01:01:51.41,21.96,-56.12,-992.10,166.25,-612.50,-288.75,1,94.541,
01/01/2000,01:01:51.42,21.84,-56.12,-992.10,262.50,-595.0,-262.50,1,94.554,
01/01/2000,01:01:51.43,21.84,-56.12,-992.10,140.0,-717.50,-253.75,1,94.568,
01/01/2000,01:01:51.44,21.72,-56.36,-992.10,26.25,-726.25,-481.25,1,94.581,
01/01/2000,01:01:51.45,21.72,-56.61,-992.10,52.50,-612.50,-306.25,1,94.595,
01/01/2000,01:01:51.46,21.72,-56.61,-992.23,122.50,-595.0,-376.25,1,94.608,
01/01/2000,01:01:51.48,21.96,-56.49,-992.10,201.25,-682.50,-306.25,1,94.390,
01/01/2000,01:01:51.49,21.96,-56.49,-991.98,288.75,-761.25,-341.25,1,94.404,
01/01/2000,01:01:51.50,21.84,-56.61,-991.98,192.50,-638.75,-341.25,1,94.417,
01/01/2000,01:01:51.51,21.96,-56.61,-992.10,192.50,-726.25,-350.0,1,94.431,
01/01/2000,01:01:51.52,22.08,-56.61,-992.35,280.0,-682.50,-402.50,1,94.444,
01/01/2000,01:01:51.53,22.08,-56.49,-992.35,61.25,-787.50,-306.25,1,94.458,
01/01/2000,01:01:51.54,21.72,-56.61,-992.35,122.50,-717.50,-402.50,1,94.471,
01/01/2000,01:01:51.55,21.72,-56.61,-992.35,245.0,-708.75,-402.50,1,94.484,
01/01/2000,01:01:51.56,21.96,-56.61,-992.35,131.25,-586.25,-341.25,1,94.498,
01/01/2000,01:01:51.57,22.08,-56.49,-992.35,87.50,-700.0,-262.50,1,94.511,
01/01/2000,01:01:51.58,21.96,-56.73,-992.35,192.50,-682.50,-315.0,1,94.524,
01/01/2000,01:01:51.59,21.84,-56.85,-992.23,192.50,-682.50,-411.25,1,94.537,
01/01/2000,01:01:51.60,21.59,-56.85,-991.98,201.25,-752.50,-210.0,1,94.550,
01/01/2000,01:01:51.61,21.72,-56.61,-992.10,61.25,-805.0,-288.75,1,94.340,
01/01/2000,01:01:51.62,21.84,-56.49,-992.35,-43.75,-752.50,-341.25,1,94.353,
01/01/2000,01:01:51.63,21.72,-56.49,-992.47,87.50,-638.75,-288.75,1,94.366,
01/01/2000,01:01:51.64,21.59,-56.61,-992.35,367.50,-761.25,-411.25,1,94.379,
01/01/2000,01:01:51.65,21.72,-56.61,-992.35,131.25,-831.25,-280.0,1,94.393,
01/01/2000,01:01:51.66,21.72,-56.61,-992.35,192.50,-595.0,-341.25,1,94.406,
01/01/2000,01:01:51.67,21.84,-56.49,-992.35,70.0,-726.25,-271.25,1,94.419,
01/01/2000,01:01:51.69,21.72,-56.49,-992.35,113.75,-787.50,-262.50,1,94.432,
01/01/2000,01:01:51.70,21.72,-56.61,-992.35,175.0,-778.75,-306.25,1,94.444,
01/01/2000,01:01:51.71,21.84,-56.85,-992.35,148.75,-673.75,-385.0,1,94.457,
01/01/2000,01:01:51.72,21.84,-56.85,-992.35,192.50,-717.50,-288.75,1,94.470,
01/01/2000,01:01:51.73,21.96,-56.85,-992.59,122.50,-656.25,-358.75,1,94.483,
01/01/2000,01:01:51.74,21.96,-56.73,-992.59,183.75,-586.25,-280.0,1,94.495,
01/01/2000,01:01:51.75,21.84,-56.73,-992.47,218.75,-595.0,-367.50,1,94.508,
01/01/2000,01:01:51.76,21.84,-56.73,-992.47,262.50,-603.75,-332.50,1,94.521,
01/01/2000,01:01:51.77,21.84,-56.61,-992.59,227.50,-743.75,-323.75,1,94.533,
01/01/2000,01:01:51.78,21.96,-56.61,-992.59,148.75,-621.25,-323.75,1,94.545,
01/01/2000,01:01:51.79,21.96,-56.61,-992.35,113.75,-708.75,-262.50,1,94.558,
01/01/2000,01:01:51.80,21.84,-56.61,-992.35,192.50,-638.75,-227.50,1,94.570,
01/01/2000,01:01:51.81,21.84,-56.73,-992.47,315.0,-647.50,-411.25,1,94.582,
01/01/2000,01:01:51.83,21.72,-56.61,-992.84,43.75,-761.25,-385.0,1,94.382,
01/01/2000,01:01:51.83,21.84,-56.49,-992.96,52.50,-516.25,-376.25,1,94.395,
01/01/2000,01:01:51.85,21.84,-56.49,-992.71,96.25,-682.50,-262.50,1,94.407,
01/01/2000,01:01:51.86,21.72,-56.73,-992.47,148.75,-726.25,-306.25,1,94.420,
01/01/2000,01:01:51.87,21.72,-56.61,-992.59,227.50,-673.75,-306.25,1,94.432,
01/01/2000,01:01:51.88,21.84,-56.73,-992.71,35.0,-761.25,-245.0,1,94.444,
01/01/2000,01:01:51.89,21.96,-56.61,-992.84,96.25,-612.50,-358.75,1,94.457,
01/01/2000,01:01:51.90,21.84,-56.49,-992.59,210.0,-682.50,-297.50,1,94.469,
01/01/2000,01:01:51.91,21.96,-56.61,-992.59,122.50,-673.75,-350.0,1,94.481,
01/01/2000,01:01:51.92,21.96,-56.73,-992.59,157.50,-761.25,-367.50,1,94.493,
01/01/2000,01:01:51.93,21.96,-56.61,-992.59,245.0,-673.75,-367.50,1,94.505,
01/01/2000,01:01:51.94,21.96,-56.73,-992.59,227.50,-665.0,-393.75,1,94.518,
01/01/2000,01:01:51.95,21.96,-56.61,-992.59,148.75,-770.0,-288.75,1,94.530,
01/01/2000,01:01:51.96,21.96,-56.61,-992.47,288.75,-717.50,-341.25,1,94.336,
01/01/2000,01:01:51.97,21.96,-56.49,-992.35,140.0,-673.75,-306.25,1,94.348,
01/01/2000,01:01:51.99,22.08,-56.61,-992.35,166.25,-595.0,-323.75,1,94.360,
01/01/2000,01:01:52.00,21.96,-56.73,-992.35,70.0,-691.25,-367.50,1,94.372,
01/01/2000,01:01:52.01,21.96,-56.85,-992.35,166.25,-761.25,-437.50,1,94.384,
01/01/2000,01:01:52.02,21.96,-56.73,-992.35,96.25,-752.50,-236.25,1,94.397,
01/01/2000,01:01:52.03,21.96,-56.61,-992.47,288.75,-682.50,-332.50,1,94.409,
01/01/2000,01:01:52.04,21.96,-56.73,-992.59,253.75,-700.0,-402.50,1,94.218,
01/01/2000,01:01:52.05,21.84,-56.73,-992.47,140.0,-735.0,-358.75,1,94.231,
01/01/2000,01:01:52.06,21.84,-56.85,-992.35,183.75,-726.25,-253.75,1,94.243,
01/01/2000,01:01:52.07,21.84,-56.61,-992.59,271.25,-691.25,-323.75,1,94.255,
01/01/2000,01:01:52.08,21.84,-56.61,-992.59,78.75,-770.0,-367.50,1,94.268,
01/01/2000,01:01:52.09,21.96,-56.49,-992.59,236.25,-691.25,-262.50,1,94.280,
01/01/2000,01:01:52.10,21.84,-56.36,-992.35,175.0,-770.0,-323.75,1,94.292,
01/01/2000,01:01:52.11,21.84,-56.36,-992.23,201.25,-735.0,-288.75,1,94.304,
01/01/2000,01:01:52.12,21.72,-56.61,-992.23,236.25,-717.50,-393.75,1,94.316,
01/01/2000,01:01:52.13,21.72,-56.61,-992.23,105.0,-673.75,-315.0,1,94.328,
01/01/2000,01:01:52.14,21.96,-56.61,-992.23,140.0,-708.75,-341.25,1,94.340,
01/01/2000,01:01:52.15,21.72,-56.61,-992.23,52.50,-656.25,-358.75,1,94.351,
01/01/2000,01:01:52.17,21.59,-56.73,-992.23,166.25,-691.25,-367.50,1,94.363,
01/01/2000,01:01:52.18,21.72,-56.85,-992.35,183.75,-735.0,-280.0,1,94.375,
01/01/2000,01:01:52.19,21.72,-56.61,-992.47,140.0,-726.25,-402.50,1,94.387,
01/01/2000,01:01:52.20,21.72,-56.85,-992.35,227.50,-638.75,-306.25,1,94.398,
01/01/2000,01:01:52.21,21.72,-56.85,-992.35,70.0,-682.50,-245.0,1,94.410,
01/01/2000,01:01:52.22,21.72,-56.73,-992.10,236.25,-717.50,-490.0,1,94.421,
01/01/2000,01:01:52.23,21.72,-56.85,-992.35,175.0,-735.0,-192.50,1,94.433,
01/01/2000,01:01:52.24,21.72,-56.73,-992.35,192.50,-665.0,-385.0,1,94.444,
01/01/2000,01:01:52.25,21.84,-56.85,-992.47,157.50,-621.25,-341.25,1,94.456,
01/01/2000,01:01:52.26,21.84,-56.61,-992.47,166.25,-778.75,-323.75,1,94.467,
01/01/2000,01:01:52.27,21.72,-56.61,-992.35,96.25,-700.0,-376.25,1,94.479,
01/01/2000,01:01:52.28,21.72,-56.61,-992.47,140.0,-665.0,-420.0,1,94.490,
01/01/2000,01:01:52.29,21.84,-56.61,-992.59,96.25,-717.50,-341.25,1,94.501,
01/01/2000,01:01:52.30,21.84,-56.61,-992.59,183.75,-708.75,-428.75,1,94.512,
01/01/2000,01:01:52.31,21.72,-56.61,-992.59,210.0,-638.75,-350.0,1,94.332,
01/01/2000,01:01:52.32,21.84,-56.49,-992.59,183.75,-621.25,-166.25,1,94.343,
01/01/2000,01:01:52.33,21.96,-56.61,-992.47,192.50,-717.50,-411.25,1,94.355,
01/01/2000,01:01:52.34,21.96,-56.61,-992.47,166.25,-682.50,-288.75,1,94.366,
01/01/2000,01:01:52.35,21.96,-56.61,-992.59,113.75,-630.0,-446.25,1,94.378,
01/01/2000,01:01:52.36,21.96,-56.61,-992.59,157.50,-673.75,-376.25,1,94.389,
01/01/2000,01:01:52.37,21.96,-56.49,-992.59,96.25,-621.25,-323.75,1,94.400,
01/01/2000,01:01:52.39,21.96,-56.61,-992.59,8.75,-700.0,-323.75,1,94.411,
01/01/2000,01:01:52.40,22.08,-56.61,-992.59,70.0,-682.50,-306.25,1,94.422,
01/01/2000,01:01:52.41,21.96,-56.49,-992.59,61.25,-665.0,-306.25,1,94.433,
01/01/2000,01:01:52.42,21.96,-56.73,-992.59,157.50,-717.50,-446.25,1,94.444,
01/01/2000,01:01:52.43,21.96,-56.61,-992.71,61.25,-682.50,-341.25,1,94.455,
01/01/2000,01:01:52.44,22.08,-56.61,-992.84,192.50,-621.25,-350.0,1,94.466,
01/01/2000,01:01:52.45,22.08,-56.61,-992.84,43.75,-735.0,-262.50,1,94.477,
01/01/2000,01:01:52.46,21.96,-56.61,-992.96,131.25,-726.25,-332.50,1,94.303,
01/01/2000,01:01:52.47,21.96,-56.61,-992.96,323.75,-700.0,-323.75,1,94.314,
01/01/2000,01:01:52.48,22.08,-56.49,-992.96,183.75,-770.0,-350.0,1,94.325,
01/01/2000,01:01:52.50,22.20,-56.49,-992.96,131.25,-630.0,-323.75,1,94.336,
01/01/2000,01:01:52.51,22.08,-56.36,-992.96,140.0,-717.50,-306.25,1,94.347,
01/01/2000,01:01:52.52,22.08,-56.36,-992.84,148.75,-726.25,-315.0,1,94.358,
01/01/2000,01:01:52.53,22.20,-56.36,-992.84,61.25,-577.50,-376.25,1,94.369,
01/01/2000,01:01:52.54,22.20,-56.36,-992.71,227.50,-700.0,-315.0,1,94.380,
01/01/2000,01:01:52.55,22.20,-56.36,-992.59,-17.50,-630.0,-262.50,1,94.391,
01/01/2000,01:01:52.56,22.08,-56.49,-992.71,183.75,-665.0,-297.50,1,94.402,
01/01/2000,01:01:52.57,22.08,-56.36,-992.71,70.0,-560.0,-341.25,1,94.412,
01/01/2000,01:01:52.58,22.20,-56.36,-992.71,122.50,-717.50,-385.0,1,94.423,
01/01/2000,01:01:52.59,22.20,-56.49,-992.71,8.75,-726.25,-262.50,1,94.434,
01/01/2000,01:01:52.60,21.96,-56.49,-992.59,210.0,-638.75,-341.25,1,94.444,
01/01/2000,01:01:52.61,22.08,-56.61,-992.59,236.25,-708.75,-341.25,1,94.455,
01/01/2000,01:01:52.62,21.96,-56.49,-992.71,157.50,-708.75,-385.0,1,94.466,
01/01/2000,01:01:52.63,21.96,-56.49,-992.84,210.0,-743.75,-262.50,1,94.476,
01/01/2000,01:01:52.64,22.20,-56.49,-992.84,262.50,-612.50,-446.25,1,94.487,
01/01/2000,01:01:52.65,21.96,-56.36,-992.84,192.50,-700.0,-402.50,1,94.497,
01/01/2000,01:01:52.66,21.84,-56.73,-992.59,175.0,-700.0,-262.50,1,94.508,
01/01/2000,01:01:52.67,21.72,-56.61,-992.71,96.25,-595.0,-358.75,1,94.340,
01/01/2000,01:01:52.68,22.08,-56.61,-992.84,280.0,-656.25,-358.75,1,94.350,
01/01/2000,01:01:52.69,21.96,-56.36,-992.84,148.75,-805.0,-341.25,1,94.361,
01/01/2000,01:01:52.70,21.84,-56.36,-992.71,131.25,-656.25,-306.25,1,94.371,
01/01/2000,01:01:52.71,21.72,-56.61,-992.59,201.25,-691.25,-341.25,1,94.382,
01/01/2000,01:01:52.73,21.59,-56.36,-992.59,166.25,-621.25,-315.0,1,94.393,
01/01/2000,01:01:52.74,21.96,-56.73,-992.71,140.0,-735.0,-402.50,1,94.403,
01/01/2000,01:01:52.75,21.72,-56.49,-992.84,122.50,-595.0,-376.25,1,94.413,
01/01/2000,01:01:52.76,21.72,-56.36,-992.71,192.50,-621.25,-280.0,1,94.424,
01/01/2000,01:01:52.77,21.84,-56.61,-992.59,271.25,-691.25,-341.25,1,94.434,
01/01/2000,01:01:52.78,21.96,-56.49,-992.59,87.50,-647.50,-288.75,1,94.444,
01/01/2000,01:01:52.79,21.96,-56.85,-992.71,105.0,-673.75,-358.75,1,94.455,
01/01/2000,01:01:52.80,21.96,-56.61,-992.71,218.75,-708.75,-428.75,1,94.465,
01/01/2000,01:01:52.81,21.96,-56.61,-992.71,201.25,-691.25,-446.25,1,94.301,
01/01/2000,01:01:52.82,21.96,-56.36,-992.47,280.0,-612.50,-350.0,1,94.312,
01/01/2000,01:01:52.83,22.08,-56.12,-992.35,183.75,-700.0,-271.25,1,94.322,
01/01/2000,01:01:52.84,22.20,-56.61,-992.35,131.25,-708.75,-315.0,1,94.333,
01/01/2000,01:01:52.85,22.08,-56.61,-992.47,26.25,-743.75,-341.25,1,94.343,
01/01/2000,01:01:52.86,21.96,-56.85,-992.59,288.75,-761.25,-367.50,1,94.353,
01/01/2000,01:01:52.87,21.84,-56.61,-992.59,105.0,-805.0,-280.0,1,94.364,
01/01/2000,01:01:52.89,21.96,-56.24,-992.59,183.75,-796.25,-253.75,1,94.374,
01/01/2000,01:01:52.90,21.96,-56.24,-992.47,157.50,-717.50,-332.50,1,94.384,
01/01/2000,01:01:52.91,21.72,-56.61,-992.59,122.50,-726.25,-306.25,1,94.394,
01/01/2000,01:01:52.92,21.72,-56.85,-992.59,245.0,-813.75,-472.50,1,94.404,
01/01/2000,01:01:52.93,21.72,-56.97,-992.71,166.25,-638.75,-393.75,1,94.414,
01/01/2000,01:01:52.94,21.72,-56.61,-992.84,96.25,-647.50,-315.0,1,94.424,
01/01/2000,01:01:52.95,21.96,-56.36,-992.59,218.75,-665.0,-306.25,1,94.434,
01/01/2000,01:01:52.96,21.59,-56.49,-992.35,148.75,-866.25,-280.0,1,94.444,
01/01/2000,01:01:52.97,21.72,-56.85,-992.47,87.50,-682.50,-420.0,1,94.454,
01/01/2000,01:01:52.98,21.72,-56.97,-992.71,192.50,-638.75,-385.0,1,94.464,
01/01/2000,01:01:52.99,21.72,-56.85,-992.84,78.75,-743.75,-315.0,1,94.474,
01/01/2000,01:01:53.00,21.72,-56.61,-992.47,140.0,-656.25,-253.75,1,94.316,
01/01/2000,01:01:53.02,21.59,-56.61,-992.23,236.25,-612.50,-210.0,1,94.326,
01/01/2000,01:01:53.03,21.72,-56.73,-992.59,113.75,-621.25,-350.0,1,94.336,
01/01/2000,01:01:53.04,21.72,-56.73,-992.71,245.0,-551.25,-341.25,1,94.346,
01/01/2000,01:01:53.05,21.72,-56.61,-992.59,245.0,-682.50,-315.0,1,94.356,
01/01/2000,01:01:53.06,21.59,-56.61,-992.35,183.75,-691.25,-306.25,1,94.366,
01/01/2000,01:01:53.07,21.59,-56.61,-992.35,105.0,-700.0,-367.50,1,94.376,
01/01/2000,01:01:53.08,21.59,-56.61,-992.47,245.0,-805.0,-411.25,1,94.386,
01/01/2000,01:01:53.09,21.72,-56.61,-992.59,201.25,-682.50,-236.25,1,94.396,
01/01/2000,01:01:53.10,21.72,-56.61,-992.59,113.75,-752.50,-367.50,1,94.406,
01/01/2000,01:01:53.11,21.59,-56.73,-992.35,166.25,-586.25,-306.25,1,94.415,
01/01/2000,01:01:53.12,21.72,-56.85,-992.10,122.50,-717.50,-393.75,1,94.425,
01/01/2000,01:01:53.13,21.84,-56.73,-991.98,122.50,-770.0,-201.25,1,94.435,
01/01/2000,01:01:53.14,21.96,-56.73,-991.98,148.75,-752.50,-332.50,1,94.444,
01/01/2000,01:01:53.15,21.84,-56.85,-991.98,52.50,-603.75,-323.75,1,94.454,
01/01/2000,01:01:53.16,21.23,-56.85,-992.59,183.75,-735.0,-393.75,1,94.301,
01/01/2000,01:01:53.17,21.23,-56.61,-992.71,148.75,-673.75,-376.25,1,94.310,
01/01/2000,01:01:53.18,21.84,-56.24,-992.23,297.50,-700.0,-376.25,1,94.320,
01/01/2000,01:01:53.19,22.20,-56.12,-991.74,61.25,-787.50,-183.75,1,94.330,
01/01/2000,01:01:53.20,22.08,-56.85,-991.62,17.50,-717.50,-201.25,1,94.340,
01/01/2000,01:01:53.21,21.47,-57.46,-992.23,175.0,-691.25,-358.75,1,94.349,
01/01/2000,01:01:53.22,21.35,-57.10,-992.96,166.25,-647.50,-630.0,1,94.359,
01/01/2000,01:01:53.24,21.96,-56.12,-992.59,175.0,-630.0,-341.25,1,94.369,
01/01/2000,01:01:53.25,21.84,-55.88,-991.86,148.75,-717.50,-87.50,1,94.378,
01/01/2000,01:01:53.26,21.72,-56.24,-991.62,96.25,-752.50,-148.75,1,94.388,
01/01/2000,01:01:53.27,21.59,-56.85,-991.86,210.0,-630.0,-455.0,1,94.397,
01/01/2000,01:01:53.28,21.72,-56.85,-992.59,113.75,-577.50,-297.50,1,94.407,
01/01/2000,01:01:53.29,21.96,-56.97,-992.59,367.50,-717.50,-437.50,1,94.416,
01/01/2000,01:01:53.30,21.47,-56.49,-991.86,96.25,-700.0,-297.50,1,94.426,
01/01/2000,01:01:53.31,21.59,-56.12,-991.49,43.75,-700.0,-393.75,1,94.435,
01/01/2000,01:01:53.32,21.72,-56.12,-991.74,218.75,-638.75,-236.25,1,94.444,
01/01/2000,01:01:53.33,21.84,-56.49,-992.35,157.50,-717.50,-245.0,1,94.454,
01/01/2000,01:01:53.34,21.96,-56.97,-992.71,227.50,-717.50,-446.25,1,94.463,
01/01/2000,01:01:53.35,22.08,-56.85,-992.35,192.50,-665.0,-411.25,1,94.472,
01/01/2000,01:01:53.36,21.96,-56.49,-991.86,105.0,-630.0,-393.75,1,94.482,
01/01/2000,01:01:53.38,21.96,-56.36,-991.86,271.25,-717.50,-306.25,1,94.333,
01/01/2000,01:01:53.39,22.20,-56.24,-992.23,175.0,-691.25,-227.50,1,94.343,
01/01/2000,01:01:53.40,22.20,-56.49,-992.59,175.0,-726.25,-402.50,1,94.352,
01/01/2000,01:01:53.41,21.96,-56.61,-992.23,96.25,-761.25,-192.50,1,94.362,
01/01/2000,01:01:53.42,22.08,-56.61,-991.98,183.75,-726.25,-498.75,1,94.371,
01/01/2000,01:01:53.43,22.08,-56.49,-991.86,201.25,-761.25,-376.25,1,94.380,
01/01/2000,01:01:53.44,22.33,-56.36,-991.98,96.25,-708.75,-253.75,1,94.389,
01/01/2000,01:01:53.45,22.08,-56.61,-992.47,157.50,-691.25,-428.75,1,94.399,
01/01/2000,01:01:53.46,21.72,-56.85,-992.59,218.75,-595.0,-411.25,1,94.408,
01/01/2000,01:01:53.47,21.72,-56.61,-992.35,166.25,-638.75,-463.75,1,94.417,
01/01/2000,01:01:53.48,21.84,-56.36,-992.10,166.25,-770.0,-306.25,1,94.426,
01/01/2000,01:01:53.49,21.96,-56.36,-992.10,306.25,-673.75,-280.0,1,94.435,
01/01/2000,01:01:53.50,21.96,-56.73,-992.23,236.25,-656.25,-420.0,1,94.444,
01/01/2000,01:01:53.52,21.59,-56.97,-992.35,157.50,-700.0,-437.50,1,94.300,
01/01/2000,01:01:53.53,21.84,-56.73,-992.10,140.0,-656.25,-446.25,1,94.309,
01/01/2000,01:01:53.54,21.96,-56.49,-991.98,218.75,-665.0,-358.75,1,94.318,
01/01/2000,01:01:53.55,22.08,-56.36,-991.98,105.0,-665.0,-157.50,1,94.327,
01/01/2000,01:01:53.56,21.84,-56.73,-991.98,192.50,-656.25,-411.25,1,94.337,
01/01/2000,01:01:53.57,21.72,-56.97,-992.35,0.0,-770.0,-428.75,1,94.346,
01/01/2000,01:01:53.58,21.72,-56.85,-992.47,166.25,-656.25,-472.50,1,94.355,
01/01/2000,01:01:53.59,21.96,-56.36,-992.35,166.25,-656.25,-297.50,1,94.364,
01/01/2000,01:01:53.60,22.08,-56.36,-992.23,43.75,-682.50,-236.25,1,94.373,
01/01/2000,01:01:53.61,21.96,-56.61,-992.23,227.50,-735.0,-236.25,1,94.382,
01/01/2000,01:01:53.62,21.84,-56.73,-992.35,175.0,-665.0,-315.0,1,94.391,
01/01/2000,01:01:53.63,21.96,-56.85,-992.47,70.0,-682.50,-323.75,1,94.400,
01/01/2000,01:01:53.64,22.08,-56.73,-992.35,236.25,-560.0,-323.75,1,94.409,
01/01/2000,01:01:53.65,21.96,-56.61,-992.35,52.50,-700.0,-332.50,1,94.418,
01/01/2000,01:01:53.66,21.96,-56.73,-992.10,105.0,-717.50,-218.75,1,94.277,
01/01/2000,01:01:53.67,22.08,-56.85,-992.23,253.75,-735.0,-306.25,1,94.286,
01/01/2000,01:01:53.68,22.08,-56.85,-992.35,175.0,-708.75,-420.0,1,94.295,
01/01/2000,01:01:53.69,22.08,-56.85,-992.47,183.75,-761.25,-315.0,1,94.304,
01/01/2000,01:01:53.70,22.20,-56.73,-992.47,175.0,-647.50,-315.0,1,94.313,
01/01/2000,01:01:53.71,22.20,-56.61,-992.10,70.0,-700.0,-306.25,1,94.322,
01/01/2000,01:01:53.73,22.08,-56.73,-992.10,140.0,-735.0,-411.25,1,94.331,
01/01/2000,01:01:53.74,21.96,-56.85,-992.59,148.75,-656.25,-315.0,1,94.340,
01/01/2000,01:01:53.75,22.08,-56.73,-992.59,157.50,-691.25,-367.50,1,94.349,
01/01/2000,01:01:53.76,22.20,-56.61,-992.59,218.75,-717.50,-341.25,1,94.357,
01/01/2000,01:01:53.77,22.08,-56.61,-992.47,35.0,-700.0,-288.75,1,94.366,
01/01/2000,01:01:53.78,21.96,-56.61,-992.47,0.0,-752.50,-402.50,1,94.375,
01/01/2000,01:01:53.79,21.96,-56.61,-992.59,201.25,-708.75,-367.50,1,94.384,
01/01/2000,01:01:53.80,22.08,-56.61,-992.71,105.0,-735.0,-376.25,1,94.393,
01/01/2000,01:01:53.81,21.96,-56.73,-992.71,17.50,-761.25,-323.75,1,94.401,
01/01/2000,01:01:53.82,21.72,-56.61,-992.59,175.0,-735.0,-358.75,1,94.410,
01/01/2000,01:01:53.83,21.84,-56.49,-992.35,166.25,-805.0,-385.0,1,94.419,
01/01/2000,01:01:53.84,21.96,-56.49,-992.47,175.0,-700.0,-315.0,1,94.427,
01/01/2000,01:01:53.85,21.72,-56.61,-992.59,148.75,-638.75,-323.75,1,94.436,
01/01/2000,01:01:53.86,21.72,-56.73,-992.59,210.0,-673.75,-288.75,1,94.444,
01/01/2000,01:01:53.87,21.96,-56.49,-992.35,96.25,-787.50,-271.25,1,94.308,
01/01/2000,01:01:53.88,22.08,-56.36,-992.23,70.0,-691.25,-297.50,1,94.316,
01/01/2000,01:01:53.90,21.96,-56.61,-992.47,78.75,-682.50,-288.75,1,94.325,
01/01/2000,01:01:53.90,21.96,-56.73,-992.47,166.25,-700.0,-367.50,1,94.334,
01/01/2000,01:01:53.92,21.96,-56.85,-992.35,96.25,-761.25,-350.0,1,94.343,
01/01/2000,01:01:53.92,21.96,-56.73,-992.35,245.0,-691.25,-498.75,1,94.351,
01/01/2000,01:01:53.94,22.20,-56.73,-992.35,262.50,-621.25,-350.0,1,94.360,
01/01/2000,01:01:53.95,22.20,-56.73,-992.35,140.0,-630.0,-297.50,1,94.368,
01/01/2000,01:01:53.96,21.96,-56.85,-992.59,245.0,-647.50,-411.25,1,94.377,
01/01/2000,01:01:53.97,21.96,-56.85,-992.59,253.75,-691.25,-315.0,1,94.385,
01/01/2000,01:01:53.98,22.08,-56.85,-992.71,236.25,-708.75,-393.75,1,94.394,
01/01/2000,01:01:53.99,21.96,-56.85,-992.71,262.50,-761.25,-367.50,1,94.402,
01/01/2000,01:01:54.00,21.96,-56.85,-992.59,297.50,-691.25,-245.0,1,94.411,
01/01/2000,01:01:54.01,21.96,-56.61,-992.59,166.25,-665.0,-210.0,1,94.277,
01/01/2000,01:01:54.03,22.08,-56.85,-992.71,192.50,-673.75,-437.50,1,94.286,
01/01/2000,01:01:54.04,21.96,-56.85,-992.59,288.75,-682.50,-341.25,1,94.294,
01/01/2000,01:01:54.05,21.96,-56.73,-992.23,131.25,-726.25,-245.0,1,94.303,
01/01/2000,01:01:54.06,22.08,-56.85,-992.10,280.0,-673.75,-297.50,1,94.311,
01/01/2000,01:01:54.07,21.96,-56.73,-992.35,26.25,-778.75,-341.25,1,94.320,
01/01/2000,01:01:54.08,21.96,-56.85,-992.35,43.75,-717.50,-350.0,1,94.328,
01/01/2000,01:01:54.09,21.96,-56.97,-992.47,113.75,-691.25,-341.25,1,94.337,
01/01/2000,01:01:54.10,21.96,-56.85,-992.35,61.25,-787.50,-341.25,1,94.345,
01/01/2000,01:01:54.11,22.08,-56.85,-992.35,113.75,-726.25,-393.75,1,94.354,
01/01/2000,01:01:54.12,22.08,-56.73,-992.35,0.0,-743.75,-236.25,1,94.362,
01/01/2000,01:01:54.13,21.96,-56.85,-992.35,245.0,-595.0,-367.50,1,94.370,
01/01/2000,01:01:54.14,22.08,-56.97,-992.47,148.75,-708.75,-297.50,1,94.379,
01/01/2000,01:01:54.15,22.20,-56.85,-992.59,166.25,-603.75,-393.75,1,94.387,
01/01/2000,01:01:54.16,22.20,-56.85,-992.47,210.0,-665.0,-332.50,1,94.395,
01/01/2000,01:01:54.17,22.20,-56.73,-992.23,78.75,-813.75,-341.25,1,94.404,
01/01/2000,01:01:54.18,22.20,-56.73,-992.35,61.25,-638.75,-306.25,1,94.412,
01/01/2000,01:01:54.19,22.08,-56.97,-992.47,148.75,-691.25,-393.75,1,94.420,
01/01/2000,01:01:54.20,21.84,-56.73,-992.59,87.50,-490.0,-341.25,1,94.428,
01/01/2000,01:01:54.21,21.96,-56.61,-992.35,140.0,-542.50,-315.0,1,94.436,
01/01/2000,01:01:54.22,21.96,-56.36,-992.35,35.0,-717.50,-323.75,1,94.307,
01/01/2000,01:01:54.23,21.84,-56.36,-992.35,70.0,-612.50,-201.25,1,94.315,
01/01/2000,01:01:54.24,21.96,-56.61,-992.47,87.50,-708.75,-271.25,1,94.323,
01/01/2000,01:01:54.25,21.96,-56.73,-992.59,245.0,-551.25,-358.75,1,94.331,
01/01/2000,01:01:54.26,21.96,-56.61,-992.59,96.25,-691.25,-393.75,1,94.340,
01/01/2000,01:01:54.27,21.96,-56.36,-992.35,236.25,-735.0,-385.0,1,94.348,
01/01/2000,01:01:54.28,21.96,-56.36,-992.35,201.25,-682.50,-350.0,1,94.356,
01/01/2000,01:01:54.30,21.96,-56.61,-992.47,140.0,-647.50,-175.0,1,94.364,
01/01/2000,01:01:54.31,21.96,-56.61,-992.59,61.25,-630.0,-437.50,1,94.372,
01/01/2000,01:01:54.32,21.96,-56.85,-992.59,262.50,-743.75,-297.50,1,94.380,
01/01/2000,01:01:54.33,21.96,-56.61,-992.47,87.50,-691.25,-446.25,1,94.388,
01/01/2000,01:01:54.34,21.84,-56.61,-992.35,218.75,-700.0,-262.50,1,94.397,
01/01/2000,01:01:54.35,21.96,-56.73,-992.23,166.25,-735.0,-236.25,1,94.405,
01/01/2000,01:01:54.36,21.72,-56.36,-992.35,52.50,-630.0,-297.50,1,94.413,
01/01/2000,01:01:54.37,21.72,-56.85,-992.35,341.25,-682.50,-463.75,1,94.421,
01/01/2000,01:01:54.38,21.72,-56.61,-992.23,70.0,-708.75,-367.50,1,94.429,
01/01/2000,01:01:54.39,21.59,-56.73,-992.10,236.25,-665.0,-288.75,1,94.437,
01/01/2000,01:01:54.40,21.72,-56.61,-992.10,157.50,-647.50,-245.0,1,94.444,
01/01/2000,01:01:54.41,21.72,-56.36,-992.35,87.50,-673.75,-350.0,1,94.452,
01/01/2000,01:01:54.42,21.84,-56.85,-992.35,323.75,-568.75,-332.50,1,94.460,
01/01/2000,01:01:54.44,21.72,-56.61,-992.35,157.50,-647.50,-323.75,1,94.334,
01/01/2000,01:01:54.45,21.84,-56.85,-992.10,140.0,-621.25,-271.25,1,94.342,
01/01/2000,01:01:54.46,21.72,-56.73,-992.23,166.25,-621.25,-236.25,1,94.350,
01/01/2000,01:01:54.47,21.59,-56.61,-992.35,148.75,-691.25,-420.0,1,94.358,
01/01/2000,01:01:54.48,21.96,-56.49,-992.35,70.0,-647.50,-280.0,1,94.366,
01/01/2000,01:01:54.49,21.84,-56.24,-992.23,96.25,-708.75,-297.50,1,94.374,
01/01/2000,01:01:54.50,21.72,-56.36,-991.98,131.25,-822.50,-367.50,1,94.382,
01/01/2000,01:01:54.51,21.59,-56.49,-992.10,78.75,-656.25,-437.50,1,94.390,
01/01/2000,01:01:54.52,21.72,-56.36,-992.23,131.25,-778.75,-385.0,1,94.398,
01/01/2000,01:01:54.53,21.72,-56.36,-992.23,192.50,-647.50,-306.25,1,94.274,
01/01/2000,01:01:54.54,21.72,-56.49,-992.23,87.50,-735.0,-306.25,1,94.282,
01/01/2000,01:01:54.56,21.84,-56.49,-992.10,113.75,-691.25,-472.50,1,94.290,
01/01/2000,01:01:54.56,21.59,-56.61,-992.59,236.25,-498.75,-358.75,1,94.298,
01/01/2000,01:01:54.58,21.84,-56.36,-992.59,17.50,-717.50,-472.50,1,94.306,
01/01/2000,01:01:54.59,21.96,-56.85,-992.59,245.0,-761.25,-262.50,1,94.313,
01/01/2000,01:01:54.60,21.72,-56.36,-992.47,52.50,-770.0,-280.0,1,94.321,
01/01/2000,01:01:54.61,21.72,-56.85,-992.35,175.0,-665.0,-262.50,1,94.329,
01/01/2000,01:01:54.62,21.47,-56.85,-992.47,227.50,-656.25,-446.25,1,94.337,
01/01/2000,01:01:54.63,21.59,-56.49,-992.71,140.0,-708.75,-323.75,1,94.345,
01/01/2000,01:01:54.64,21.96,-56.73,-992.47,183.75,-656.25,-332.50,1,94.353,
01/01/2000,01:01:54.65,21.84,-56.24,-992.35,131.25,-682.50,-192.50,1,94.360,
01/01/2000,01:01:54.66,21.47,-56.61,-992.35,122.50,-682.50,-280.0,1,94.368,
01/01/2000,01:01:54.67,21.72,-56.85,-992.35,157.50,-735.0,-367.50,1,94.376,
01/01/2000,01:01:54.68,21.84,-56.61,-992.59,131.25,-735.0,-367.50,1,94.384,
01/01/2000,01:01:54.69,22.20,-56.73,-992.47,201.25,-682.50,-192.50,1,94.391,
01/01/2000,01:01:54.70,21.96,-56.85,-992.47,131.25,-682.50,-385.0,1,94.399,
01/01/2000,01:01:54.71,21.47,-56.73,-992.35,70.0,-682.50,-306.25,1,94.407,
01/01/2000,01:01:54.72,21.84,-56.49,-992.35,166.25,-743.75,-350.0,1,94.286,
01/01/2000,01:01:54.73,21.84,-56.36,-992.59,43.75,-787.50,-183.75,1,94.293,
01/01/2000,01:01:54.74,21.96,-56.36,-992.59,140.0,-735.0,-306.25,1,94.301,
01/01/2000,01:01:54.75,21.84,-56.73,-992.10,227.50,-717.50,-420.0,1,94.309,
01/01/2000,01:01:54.76,21.96,-56.61,-992.10,-35.0,-630.0,-227.50,1,94.317,
01/01/2000,01:01:54.77,22.08,-56.61,-992.23,78.75,-708.75,-463.75,1,94.324,
01/01/2000,01:01:54.79,22.08,-56.36,-992.84,122.50,-717.50,-227.50,1,94.332,
01/01/2000,01:01:54.80,22.20,-56.49,-992.84,183.75,-647.50,-297.50,1,94.340,
01/01/2000,01:01:54.81,21.96,-56.36,-992.47,113.75,-656.25,-341.25,1,94.347,
01/01/2000,01:01:54.82,21.72,-56.61,-992.35,87.50,-682.50,-367.50,1,94.355,
01/01/2000,01:01:54.83,21.96,-56.73,-992.47,157.50,-595.0,-402.50,1,94.362,
01/01/2000,01:01:54.84,22.08,-56.73,-992.59,183.75,-708.75,-402.50,1,94.370,
01/01/2000,01:01:54.85,22.08,-56.61,-992.59,175.0,-603.75,-271.25,1,94.378,
01/01/2000,01:01:54.86,21.84,-56.85,-992.35,140.0,-910.0,-341.25,1,94.385,
01/01/2000,01:01:54.87,21.84,-56.85,-992.35,148.75,-647.50,-341.25,1,94.393,
01/01/2000,01:01:54.88,22.08,-56.73,-992.35,131.25,-542.50,-288.75,1,94.400,
01/01/2000,01:01:54.89,22.20,-56.61,-992.47,245.0,-691.25,-280.0,1,94.407,
01/01/2000,01:01:54.90,22.08,-56.73,-992.59,148.75,-682.50,-297.50,1,94.415,
01/01/2000,01:01:54.91,21.96,-56.85,-992.59,218.75,-778.75,-420.0,1,94.422,
01/01/2000,01:01:54.92,21.84,-56.61,-992.47,175.0,-761.25,-358.75,1,94.430,
01/01/2000,01:01:54.93,21.96,-56.36,-992.59,227.50,-708.75,-323.75,1,94.312,
01/01/2000,01:01:54.94,21.96,-56.36,-992.59,140.0,-638.75,-236.25,1,94.320,
01/01/2000,01:01:54.95,22.20,-56.49,-992.47,218.75,-691.25,-341.25,1,94.327,
01/01/2000,01:01:54.96,22.20,-56.61,-992.35,148.75,-735.0,-306.25,1,94.335,
01/01/2000,01:01:54.97,21.96,-56.61,-992.35,175.0,-656.25,-507.50,1,94.342,
01/01/2000,01:01:54.98,21.96,-56.61,-992.35,245.0,-700.0,-253.75,1,94.350,
01/01/2000,01:01:55.00,21.96,-56.36,-992.59,245.0,-656.25,-323.75,1,94.357,
01/01/2000,01:01:55.01,21.96,-56.36,-992.47,192.50,-665.0,-350.0,1,94.364,
01/01/2000,01:01:55.02,21.84,-56.61,-992.35,140.0,-822.50,-341.25,1,94.372,
01/01/2000,01:01:55.03,21.84,-56.61,-992.35,17.50,-621.25,-402.50,1,94.379,
01/01/2000,01:01:55.04,22.08,-56.49,-992.35,227.50,-770.0,-297.50,1,94.263,
01/01/2000,01:01:55.05,22.08,-56.49,-992.59,210.0,-752.50,-253.75,1,94.271,
01/01/2000,01:01:55.06,21.96,-56.61,-992.59,218.75,-691.25,-332.50,1,94.278,
01/01/2000,01:01:55.08,21.96,-56.61,-992.35,253.75,-743.75,-367.50,1,94.286,
01/01/2000,01:01:55.09,22.20,-56.36,-992.35,140.0,-621.25,-227.50,1,94.293,
01/01/2000,01:01:55.10,22.20,-56.49,-992.35,148.75,-673.75,-341.25,1,94.301,
01/01/2000,01:01:55.11,22.20,-56.73,-992.35,227.50,-647.50,-262.50,1,94.308,
01/01/2000,01:01:55.12,21.96,-56.73,-992.35,297.50,-743.75,-332.50,1,94.315,
01/01/2000,01:01:55.13,21.96,-56.61,-992.23,192.50,-752.50,-332.50,1,94.323,
01/01/2000,01:01:55.14,21.96,-56.61,-992.35,87.50,-682.50,-315.0,1,94.330,
01/01/2000,01:01:55.15,21.96,-56.49,-992.35,245.0,-603.75,-271.25,1,94.337,
01/01/2000,01:01:55.16,21.96,-56.61,-992.35,166.25,-638.75,-288.75,1,94.344,
01/01/2000,01:01:55.17,21.96,-56.61,-992.35,148.75,-717.50,-376.25,1,94.352,
01/01/2000,01:01:55.18,21.84,-56.85,-992.23,122.50,-743.75,-507.50,1,94.359,
01/01/2000,01:01:55.19,21.72,-56.73,-992.47,175.0,-717.50,-402.50,1,94.366,
01/01/2000,01:01:55.20,21.72,-56.61,-992.59,210.0,-796.25,-367.50,1,94.373,
01/01/2000,01:01:55.21,21.84,-56.49,-992.35,131.25,-726.25,-262.50,1,94.381,
01/01/2000,01:01:55.22,21.72,-56.73,-992.10,210.0,-682.50,-262.50,1,94.388,
01/01/2000,01:01:55.23,21.72,-56.85,-992.10,227.50,-568.75,-411.25,1,94.395,
01/01/2000,01:01:55.24,21.84,-56.73,-992.35,35.0,-735.0,-358.75,1,94.402,
01/01/2000,01:01:55.25,21.96,-56.61,-992.47,78.75,-673.75,-306.25,1,94.409,
01/01/2000,01:01:55.26,21.84,-56.61,-992.47,236.25,-752.50,-315.0,1,94.416,
01/01/2000,01:01:55.27,21.72,-56.61,-992.59,253.75,-682.50,-341.25,1,94.423,
01/01/2000,01:01:55.28,21.96,-56.73,-992.59,183.75,-735.0,-306.25,1,94.311,
01/01/2000,01:01:55.29,21.84,-56.61,-992.59,148.75,-673.75,-262.50,1,94.318,
01/01/2000,01:01:55.30,21.72,-56.73,-992.59,227.50,-708.75,-315.0,1,94.325,
01/01/2000,01:01:55.31,21.72,-56.85,-992.47,148.75,-726.25,-306.25,1,94.332,
01/01/2000,01:01:55.32,21.72,-56.73,-992.35,245.0,-691.25,-393.75,1,94.340,
01/01/2000,01:01:55.33,21.96,-56.49,-992.59,78.75,-507.50,-245.0,1,94.347,
01/01/2000,01:01:55.35,21.72,-56.61,-992.59,122.50,-630.0,-297.50,1,94.354,
01/01/2000,01:01:55.36,21.72,-56.73,-992.47,253.75,-665.0,-341.25,1,94.361,
01/01/2000,01:01:55.37,21.72,-56.61,-992.47,140.0,-726.25,-367.50,1,94.368,
01/01/2000,01:01:55.38,21.84,-56.61,-992.35,175.0,-735.0,-385.0,1,94.375,
01/01/2000,01:01:55.39,21.96,-56.61,-992.47,157.50,-691.25,-306.25,1,94.382,
01/01/2000,01:01:55.40,21.96,-56.61,-992.47,166.25,-612.50,-350.0,1,94.389,
01/01/2000,01:01:55.41,21.96,-56.61,-992.59,113.75,-656.25,-358.75,1,94.396,
01/01/2000,01:01:55.42,22.08,-56.49,-992.59,105.0,-682.50,-218.75,1,94.403,
01/01/2000,01:01:55.43,21.96,-56.49,-992.59,113.75,-647.50,-297.50,1,94.410,
01/01/2000,01:01:55.44,21.96,-56.49,-992.59,262.50,-673.75,-455.0,1,94.417,
01/01/2000,01:01:55.45,21.96,-56.61,-992.71,183.75,-691.25,-393.75,1,94.424,
01/01/2000,01:01:55.46,21.96,-56.61,-992.71,166.25,-630.0,-393.75,1,94.431,
01/01/2000,01:01:55.47,21.96,-56.61,-992.71,105.0,-752.50,-297.50,1,94.438,
01/01/2000,01:01:55.48,21.96,-56.61,-992.59,140.0,-726.25,-245.0,1,94.444,
01/01/2000,01:01:55.50,21.96,-56.49,-992.47,192.50,-822.50,-297.50,1,94.335,
01/01/2000,01:01:55.51,22.08,-56.61,-992.59,271.25,-595.0,-385.0,1,94.342,
01/01/2000,01:01:55.52,21.96,-56.36,-992.59,271.25,-717.50,-358.75,1,94.349,
01/01/2000,01:01:55.53,22.08,-56.49,-992.59,78.75,-787.50,-253.75,1,94.356,
01/01/2000,01:01:55.54,22.08,-56.61,-992.35,87.50,-700.0,-350.0,1,94.363,
01/01/2000,01:01:55.55,21.96,-56.61,-992.47,96.25,-761.25,-262.50,1,94.370,
01/01/2000,01:01:55.56,21.96,-56.61,-992.59,192.50,-708.75,-376.25,1,94.261,
01/01/2000,01:01:55.57,21.96,-56.61,-992.47,148.75,-595.0,-271.25,1,94.268,
01/01/2000,01:01:55.58,22.08,-56.73,-992.35,175.0,-752.50,-393.75,1,94.275,
01/01/2000,01:01:55.59,22.08,-56.61,-992.35,140.0,-743.75,-280.0,1,94.282,
01/01/2000,01:01:55.60,21.96,-56.61,-992.35,131.25,-630.0,-393.75,1,94.289,
01/01/2000,01:01:55.62,21.96,-56.61,-992.35,271.25,-726.25,-297.50,1,94.296,
01/01/2000,01:01:55.62,21.96,-56.49,-992.47,70.0,-717.50,-332.50,1,94.303,
01/01/2000,01:01:55.64,22.20,-56.49,-992.47,166.25,-638.75,-341.25,1,94.310,
01/01/2000,01:01:55.65,22.08,-56.36,-992.59,227.50,-665.0,-323.75,1,94.317,
01/01/2000,01:01:55.66,22.20,-56.49,-992.35,87.50,-717.50,-315.0,1,94.324,
01/01/2000,01:01:55.67,22.20,-56.73,-992.35,166.25,-665.0,-297.50,1,94.331,
01/01/2000,01:01:55.68,22.08,-56.49,-992.47,175.0,-682.50,-306.25,1,94.337,
01/01/2000,01:01:55.69,22.08,-56.61,-992.35,288.75,-647.50,-350.0,1,94.344,
01/01/2000,01:01:55.70,21.96,-56.36,-992.35,288.75,-743.75,-376.25,1,94.351,
01/01/2000,01:01:55.71,21.84,-56.36,-992.35,87.50,-630.0,-402.50,1,94.358,
01/01/2000,01:01:55.72,21.84,-56.85,-992.23,166.25,-656.25,-411.25,1,94.365,
01/01/2000,01:01:55.73,21.72,-56.61,-992.35,87.50,-691.25,-323.75,1,94.371,
01/01/2000,01:01:55.74,21.96,-56.73,-992.23,140.0,-638.75,-288.75,1,94.378,
01/01/2000,01:01:55.75,21.96,-56.73,-991.98,122.50,-708.75,-288.75,1,94.385,
01/01/2000,01:01:55.76,21.84,-56.61,-992.23,297.50,-708.75,-358.75,1,94.391,
01/01/2000,01:01:55.77,21.84,-56.36,-992.35,201.25,-630.0,-271.25,1,94.286,
01/01/2000,01:01:55.78,21.84,-56.49,-992.35,140.0,-656.25,-402.50,1,94.293,
01/01/2000,01:01:55.79,21.84,-56.61,-992.35,105.0,-638.75,-306.25,1,94.299,
01/01/2000,01:01:55.80,21.84,-56.97,-992.35,166.25,-656.25,-350.0,1,94.306,
01/01/2000,01:01:55.81,21.72,-56.73,-992.47,148.75,-665.0,-332.50,1,94.313,
01/01/2000,01:01:55.82,22.08,-56.61,-992.59,166.25,-735.0,-341.25,1,94.320,
01/01/2000,01:01:55.83,21.96,-56.36,-992.47,288.75,-665.0,-245.0,1,94.326,
01/01/2000,01:01:55.85,21.72,-56.36,-992.35,140.0,-586.25,-358.75,1,94.333,
01/01/2000,01:01:55.86,21.96,-56.61,-992.35,210.0,-840.0,-437.50,1,94.340,
01/01/2000,01:01:55.87,21.96,-56.61,-992.47,236.25,-691.25,-446.25,1,94.346,
01/01/2000,01:01:55.88,22.08,-56.61,-992.47,0.0,-708.75,-253.75,1,94.353,
01/01/2000,01:01:55.89,21.96,-56.61,-992.47,131.25,-673.75,-376.25,1,94.360,
01/01/2000,01:01:55.90,21.84,-56.49,-992.35,183.75,-761.25,-262.50,1,94.366,
01/01/2000,01:01:55.91,21.96,-56.49,-992.35,113.75,-743.75,-402.50,1,94.373,
01/01/2000,01:01:55.92,21.96,-56.36,-992.47,35.0,-638.75,-297.50,1,94.379,
01/01/2000,01:01:55.93,22.08,-56.49,-992.47,140.0,-778.75,-332.50,1,94.386,
01/01/2000,01:01:55.94,22.33,-56.61,-992.47,253.75,-752.50,-245.0,1,94.393,
01/01/2000,01:01:55.95,22.08,-56.61,-992.47,78.75,-787.50,-332.50,1,94.399,
01/01/2000,01:01:55.96,22.20,-56.73,-992.47,218.75,-691.25,-420.0,1,94.406,
01/01/2000,01:01:55.97,22.08,-56.61,-992.47,210.0,-638.75,-297.50,1,94.412,
01/01/2000,01:01:55.98,22.08,-56.49,-992.59,122.50,-638.75,-341.25,1,94.309,
01/01/2000,01:01:55.99,22.20,-56.61,-992.47,96.25,-673.75,-323.75,1,94.316,
01/01/2000,01:01:56.00,21.96,-56.61,-992.35,253.75,-603.75,-332.50,1,94.322,
01/01/2000,01:01:56.01,21.96,-56.73,-992.23,183.75,-778.75,-367.50,1,94.329,
01/01/2000,01:01:56.02,21.96,-56.61,-992.23,26.25,-673.75,-332.50,1,94.335,
01/01/2000,01:01:56.03,21.96,-56.73,-992.35,236.25,-665.0,-411.25,1,94.342,
01/01/2000,01:01:56.04,22.20,-56.49,-992.47,113.75,-796.25,-297.50,1,94.348,
01/01/2000,01:01:56.06,21.96,-56.61,-992.35,105.0,-586.25,-428.75,1,94.355,
01/01/2000,01:01:56.07,21.96,-56.73,-992.35,262.50,-630.0,-280.0,1,94.253,
01/01/2000,01:01:56.08,22.08,-56.61,-992.47,157.50,-726.25,-332.50,1,94.259,
01/01/2000,01:01:56.09,22.20,-56.61,-992.47,210.0,-700.0,-367.50,1,94.266,
01/01/2000,01:01:56.10,22.08,-56.61,-992.10,70.0,-700.0,-271.25,1,94.273,
01/01/2000,01:01:56.11,21.96,-56.49,-992.23,166.25,-682.50,-306.25,1,94.279,
01/01/2000,01:01:56.13,21.84,-56.49,-992.10,183.75,-708.75,-420.0,1,94.286,
01/01/2000,01:01:56.14,21.96,-56.49,-992.23,271.25,-700.0,-358.75,1,94.292,
01/01/2000,01:01:56.15,21.96,-56.24,-992.10,96.25,-752.50,-323.75,1,94.299,
01/01/2000,01:01:56.16,21.96,-56.36,-992.10,245.0,-621.25,-341.25,1,94.305,
01/01/2000,01:01:56.17,21.72,-56.36,-992.23,201.25,-717.50,-341.25,1,94.312,
01/01/2000,01:01:56.18,21.96,-56.49,-992.35,61.25,-708.75,-306.25,1,94.318,
01/01/2000,01:01:56.19,21.96,-56.49,-992.59,140.0,-717.50,-245.0,1,94.325,
01/01/2000,01:01:56.20,21.96,-56.36,-992.59,245.0,-647.50,-358.75,1,94.331,
01/01/2000,01:01:56.21,21.96,-56.36,-992.47,166.25,-612.50,-463.75,1,94.337,
01/01/2000,01:01:56.22,21.84,-56.24,-992.23,122.50,-743.75,-297.50,1,94.344,
01/01/2000,01:01:56.23,21.84,-56.24,-992.35,61.25,-630.0,-428.75,1,94.350,
01/01/2000,01:01:56.24,21.84,-56.61,-992.35,140.0,-735.0,-341.25,1,94.357,
01/01/2000,01:01:56.25,21.84,-56.49,-992.35,140.0,-647.50,-367.50,1,94.363,
01/01/2000,01:01:56.26,21.96,-56.49,-992.35,262.50,-813.75,-393.75,1,94.369,
01/01/2000,01:01:56.27,21.96,-56.36,-992.35,131.25,-691.25,-245.0,1,94.376,
01/01/2000,01:01:56.28,21.96,-56.61,-992.10,183.75,-682.50,-315.0,1,94.382,
01/01/2000,01:01:56.29,21.96,-56.61,-992.23,105.0,-708.75,-288.75,1,94.388,
01/01/2000,01:01:56.30,21.96,-56.49,-992.35,175.0,-717.50,-350.0,1,94.395,
01/01/2000,01:01:56.31,22.08,-56.36,-992.35,87.50,-621.25,-262.50,1,94.401,
01/01/2000,01:01:56.32,21.96,-56.36,-992.35,122.50,-621.25,-411.25,1,94.407,
01/01/2000,01:01:56.34,21.96,-56.49,-992.47,236.25,-630.0,-367.50,1,94.308,
01/01/2000,01:01:56.35,21.96,-56.36,-992.35,113.75,-665.0,-411.25,1,94.314,
01/01/2000,01:01:56.36,22.08,-56.36,-992.59,166.25,-700.0,-271.25,1,94.321,
01/01/2000,01:01:56.37,22.08,-56.36,-992.59,148.75,-603.75,-341.25,1,94.327,
01/01/2000,01:01:56.38,21.84,-56.61,-992.35,183.75,-656.25,-367.50,1,94.333,
01/01/2000,01:01:56.39,21.84,-56.49,-992.23,183.75,-735.0,-437.50,1,94.340,
01/01/2000,01:01:56.40,21.96,-56.36,-992.23,105.0,-805.0,-437.50,1,94.346,
01/01/2000,01:01:56.41,22.20,-56.36,-992.47,26.25,-647.50,-288.75,1,94.352,
01/01/2000,01:01:56.42,22.08,-56.36,-992.35,96.25,-647.50,-280.0,1,94.358,
01/01/2000,01:01:56.43,21.96,-56.36,-992.10,105.0,-630.0,-306.25,1,94.365,
01/01/2000,01:01:56.44,21.96,-56.36,-991.98,245.0,-665.0,-332.50,1,94.371,
01/01/2000,01:01:56.45,22.20,-56.36,-991.98,175.0,-630.0,-297.50,1,94.377,
01/01/2000,01:01:56.46,22.33,-56.36,-992.10,166.25,-665.0,-323.75,1,94.383,
01/01/2000,01:01:56.47,22.33,-56.49,-992.10,105.0,-770.0,-315.0,1,94.389,
01/01/2000,01:01:56.48,21.96,-56.49,-992.35,210.0,-778.75,-481.25,1,94.292,
01/01/2000,01:01:56.49,22.08,-56.36,-992.47,148.75,-656.25,-323.75,1,94.298,
01/01/2000,01:01:56.50,22.20,-56.36,-992.47,262.50,-717.50,-332.50,1,94.304,
01/01/2000,01:01:56.51,22.20,-56.36,-992.35,157.50,-638.75,-288.75,1,94.311,
01/01/2000,01:01:56.52,22.08,-56.61,-992.10,140.0,-630.0,-332.50,1,94.317,
01/01/2000,01:01:56.53,21.96,-56.61,-992.10,148.75,-700.0,-420.0,1,94.323,
01/01/2000,01:01:56.55,21.84,-56.49,-992.35,166.25,-726.25,-253.75,1,94.329,
01/01/2000,01:01:56.56,21.96,-56.36,-992.35,227.50,-726.25,-332.50,1,94.336,
01/01/2000,01:01:56.57,21.84,-56.36,-992.35,218.75,-691.25,-280.0,1,94.342,
01/01/2000,01:01:56.58,21.72,-56.61,-992.10,323.75,-761.25,-367.50,1,94.245,
01/01/2000,01:01:56.60,21.96,-56.61,-992.10,87.50,-700.0,-350.0,1,94.252,
01/01/2000,01:01:56.61,21.96,-56.36,-992.23,227.50,-717.50,-253.75,1,94.258,
01/01/2000,01:01:56.62,21.96,-56.36,-992.35,236.25,-656.25,-280.0,1,94.264,
01/01/2000,01:01:56.63,21.84,-56.24,-992.35,122.50,-761.25,-323.75,1,94.270,
01/01/2000,01:01:56.64,21.96,-56.36,-992.35,210.0,-630.0,-253.75,1,94.276,
01/01/2000,01:01:56.65,21.96,-56.61,-992.23,175.0,-630.0,-385.0,1,94.283,
01/01/2000,01:01:56.66,22.08,-56.61,-992.10,227.50,-770.0,-323.75,1,94.289,
01/01/2000,01:01:56.67,22.08,-56.85,-992.23,131.25,-691.25,-376.25,1,94.295,
01/01/2000,01:01:56.68,21.96,-56.61,-992.35,192.50,-787.50,-236.25,1,94.301,
01/01/2000,01:01:56.69,21.96,-56.49,-992.35,105.0,-735.0,-376.25,1,94.307,
01/01/2000,01:01:56.70,21.96,-56.49,-992.23,140.0,-708.75,-288.75,1,94.313,
01/01/2000,01:01:56.71,22.08,-56.49,-992.35,218.75,-770.0,-358.75,1,94.319,
01/01/2000,01:01:56.72,22.20,-56.73,-992.35,61.25,-752.50,-350.0,1,94.325,
01/01/2000,01:01:56.73,22.20,-56.73,-992.35,122.50,-638.75,-280.0,1,94.332,
01/01/2000,01:01:56.74,22.08,-56.61,-992.35,96.25,-691.25,-350.0,1,94.338,
01/01/2000,01:01:56.75,22.08,-56.61,-992.35,166.25,-638.75,-376.25,1,94.344,
01/01/2000,01:01:56.76,21.96,-56.36,-992.59,113.75,-700.0,-350.0,1,94.249,
01/01/2000,01:01:56.77,21.96,-56.49,-992.47,148.75,-682.50,-306.25,1,94.255,
01/01/2000,01:01:56.78,21.96,-56.61,-992.47,148.75,-778.75,-323.75,1,94.261,
01/01/2000,01:01:56.79,21.84,-56.73,-992.47,52.50,-752.50,-358.75,1,94.268,
01/01/2000,01:01:56.80,21.96,-56.85,-992.35,192.50,-726.25,-332.50,1,94.274,
01/01/2000,01:01:56.81,22.08,-56.73,-992.35,332.50,-595.0,-402.50,1,94.280,
01/01/2000,01:01:56.82,22.08,-56.61,-992.35,236.25,-700.0,-341.25,1,94.286,
01/01/2000,01:01:56.84,21.96,-56.61,-992.47,245.0,-752.50,-393.75,1,94.292,
01/01/2000,01:01:56.85,21.96,-56.61,-992.47,113.75,-630.0,-376.25,1,94.298,
01/01/2000,01:01:56.86,21.96,-56.73,-992.35,227.50,-665.0,-411.25,1,94.304,
01/01/2000,01:01:56.87,22.08,-56.61,-992.35,140.0,-743.75,-280.0,1,94.310,
01/01/2000,01:01:56.88,21.96,-56.61,-992.47,288.75,-761.25,-297.50,1,94.316,
01/01/2000,01:01:56.89,21.96,-56.85,-992.59,227.50,-708.75,-297.50,1,94.322,
01/01/2000,01:01:56.90,21.96,-56.61,-992.59,166.25,-743.75,-385.0,1,94.328,
01/01/2000,01:01:56.91,22.08,-56.85,-992.47,131.25,-761.25,-393.75,1,94.334,
01/01/2000,01:01:56.92,22.08,-56.61,-992.47,148.75,-603.75,-306.25,1,94.340,
01/01/2000,01:01:56.93,22.08,-56.61,-992.47,140.0,-717.50,-323.75,1,94.346,
01/01/2000,01:01:56.94,22.08,-56.73,-992.47,271.25,-612.50,-245.0,1,94.351,
01/01/2000,01:01:56.95,21.96,-56.61,-992.35,157.50,-691.25,-367.50,1,94.357,
01/01/2000,01:01:56.96,21.96,-56.73,-992.23,122.50,-708.75,-393.75,1,94.363,
01/01/2000,01:01:56.98,21.96,-56.49,-992.35,262.50,-708.75,-315.0,1,94.271,
01/01/2000,01:01:56.99,22.08,-56.49,-992.35,218.75,-752.50,-271.25,1,94.277,
01/01/2000,01:01:57.00,21.96,-56.49,-992.35,227.50,-726.25,-367.50,1,94.283,
01/01/2000,01:01:57.01,21.72,-56.49,-992.10,105.0,-551.25,-358.75,1,94.289,
01/01/2000,01:01:57.02,21.84,-56.73,-992.10,175.0,-638.75,-455.0,1,94.295,
01/01/2000,01:01:57.03,21.96,-56.61,-992.10,43.75,-700.0,-288.75,1,94.301,
01/01/2000,01:01:57.04,22.20,-56.61,-992.23,218.75,-752.50,-463.75,1,94.306,
01/01/2000,01:01:57.05,22.08,-56.73,-992.23,166.25,-717.50,-218.75,1,94.312,
01/01/2000,01:01:57.06,22.08,-56.85,-992.23,166.25,-726.25,-393.75,1,94.318,
01/01/2000,01:01:57.07,22.20,-56.73,-991.98,166.25,-656.25,-428.75,1,94.324,
01/01/2000,01:01:57.08,22.20,-56.61,-991.98,148.75,-805.0,-297.50,1,94.330,
01/01/2000,01:01:57.09,22.08,-56.73,-991.86,183.75,-612.50,-262.50,1,94.239,
01/01/2000,01:01:57.10,21.96,-56.73,-991.86,201.25,-542.50,-420.0,1,94.245,
01/01/2000,01:01:57.12,22.08,-56.73,-992.35,227.50,-647.50,-350.0,1,94.251,
01/01/2000,01:01:57.13,22.20,-56.61,-992.35,166.25,-700.0,-393.75,1,94.256,
01/01/2000,01:01:57.14,22.33,-56.61,-992.35,122.50,-787.50,-271.25,1,94.262,
01/01/2000,01:01:57.15,22.20,-56.73,-991.98,175.0,-700.0,-323.75,1,94.268,
01/01/2000,01:01:57.16,22.20,-56.85,-992.10,280.0,-778.75,-332.50,1,94.274,
01/01/2000,01:01:57.17,22.20,-56.85,-992.10,43.75,-612.50,-288.75,1,94.280,
01/01/2000,01:01:57.18,22.20,-56.73,-992.35,140.0,-726.25,-393.75,1,94.286,
01/01/2000,01:01:57.19,22.20,-56.61,-992.47,183.75,-700.0,-288.75,1,94.292,
01/01/2000,01:01:57.20,22.20,-56.61,-992.35,218.75,-700.0,-288.75,1,94.297,
01/01/2000,01:01:57.21,22.20,-56.61,-992.35,-70.0,-743.75,-332.50,1,94.303,
01/01/2000,01:01:57.22,22.20,-56.85,-992.47,192.50,-673.75,-376.25,1,94.309,
01/01/2000,01:01:57.23,22.20,-56.73,-992.47,140.0,-735.0,-402.50,1,94.315,
01/01/2000,01:01:57.24,22.20,-56.61,-992.35,183.75,-691.25,-332.50,1,94.320,
01/01/2000,01:01:57.25,22.08,-56.49,-992.35,262.50,-708.75,-323.75,1,94.326,
01/01/2000,01:01:57.26,22.08,-56.49,-992.35,70.0,-726.25,-315.0,1,94.237,
01/01/2000,01:01:57.27,22.20,-56.61,-992.35,192.50,-743.75,-236.25,1,94.242,
01/01/2000,01:01:57.28,22.08,-56.61,-992.59,131.25,-638.75,-428.75,1,94.248,
01/01/2000,01:01:57.29,22.20,-56.61,-992.71,210.0,-743.75,-227.50,1,94.254,
01/01/2000,01:01:57.30,22.33,-56.49,-992.59,157.50,-612.50,-402.50,1,94.260,
01/01/2000,01:01:57.31,22.33,-56.49,-992.59,210.0,-700.0,-323.75,1,94.266,
01/01/2000,01:01:57.33,22.33,-56.36,-992.47,70.0,-568.75,-385.0,1,94.271,
01/01/2000,01:01:57.34,22.20,-56.49,-992.47,96.25,-638.75,-428.75,1,94.277,
01/01/2000,01:01:57.35,22.20,-56.73,-992.47,253.75,-726.25,-376.25,1,94.283,
01/01/2000,01:01:57.36,22.08,-56.73,-992.35,35.0,-700.0,-393.75,1,94.289,
01/01/2000,01:01:57.37,21.96,-56.73,-992.35,253.75,-612.50,-332.50,1,94.294,
01/01/2000,01:01:57.38,21.84,-56.49,-992.35,43.75,-726.25,-288.75,1,94.300,
01/01/2000,01:01:57.39,22.08,-56.61,-992.59,192.50,-665.0,-350.0,1,94.306,
01/01/2000,01:01:57.40,22.08,-56.36,-992.71,122.50,-691.25,-175.0,1,94.311,
01/01/2000,01:01:57.41,21.96,-56.61,-992.59,192.50,-735.0,-428.75,1,94.317,
01/01/2000,01:01:57.42,21.72,-56.49,-992.47,96.25,-691.25,-315.0,1,94.323,
01/01/2000,01:01:57.43,21.84,-56.36,-992.35,227.50,-708.75,-385.0,1,94.328,
01/01/2000,01:01:57.44,21.96,-56.36,-992.47,262.50,-673.75,-210.0,1,94.334,
01/01/2000,01:01:57.45,21.84,-56.36,-992.59,43.75,-700.0,-245.0,1,94.340,
01/01/2000,01:01:57.46,21.84,-56.61,-992.59,166.25,-691.25,-341.25,1,94.345,
01/01/2000,01:01:57.47,21.72,-56.61,-992.47,61.25,-621.25,-297.50,1,94.257,
01/01/2000,01:01:57.48,21.84,-56.49,-992.35,201.25,-656.25,-358.75,1,94.263,
01/01/2000,01:01:57.49,21.96,-56.49,-992.47,192.50,-682.50,-420.0,1,94.269,
01/01/2000,01:01:57.50,21.84,-56.36,-992.59,131.25,-743.75,-288.75,1,94.274,
01/01/2000,01:01:57.51,21.72,-56.61,-992.47,166.25,-673.75,-341.25,1,94.280,
01/01/2000,01:01:57.52,21.72,-56.61,-992.59,236.25,-752.50,-350.0,1,94.286,
01/01/2000,01:01:57.54,21.96,-56.61,-992.59,253.75,-603.75,-323.75,1,94.291,
01/01/2000,01:01:57.55,22.08,-56.61,-992.59,113.75,-761.25,-315.0,1,94.297,
01/01/2000,01:01:57.56,22.08,-56.73,-992.47,236.25,-752.50,-402.50,1,94.303,
01/01/2000,01:01:57.57,21.96,-56.85,-992.35,201.25,-630.0,-385.0,1,94.308,
01/01/2000,01:01:57.58,21.72,-56.85,-992.47,262.50,-691.25,-358.75,1,94.314,
01/01/2000,01:01:57.59,21.72,-56.61,-992.59,70.0,-647.50,-385.0,1,94.319,
01/01/2000,01:01:57.61,21.84,-56.49,-992.35,262.50,-673.75,-350.0,1,94.233,
01/01/2000,01:01:57.62,21.84,-56.61,-992.35,166.25,-656.25,-367.50,1,94.238,
01/01/2000,01:01:57.63,21.96,-56.73,-992.23,192.50,-831.25,-358.75,1,94.244,
01/01/2000,01:01:57.64,21.72,-56.73,-992.35,192.50,-743.75,-402.50,1,94.250,
01/01/2000,01:01:57.65,21.72,-56.85,-992.59,35.0,-647.50,-358.75,1,94.255,
01/01/2000,01:01:57.66,21.96,-56.73,-992.59,61.25,-665.0,-376.25,1,94.261,
01/01/2000,01:01:57.67,21.96,-56.61,-992.47,201.25,-665.0,-227.50,1,94.266,
01/01/2000,01:01:57.68,21.84,-56.61,-992.35,52.50,-673.75,-323.75,1,94.272,
01/01/2000,01:01:57.69,21.72,-56.73,-992.35,0.0,-673.75,-385.0,1,94.277,
01/01/2000,01:01:57.70,21.72,-56.73,-992.71,113.75,-813.75,-262.50,1,94.283,
01/01/2000,01:01:57.71,21.96,-56.73,-992.59,315.0,-708.75,-428.75,1,94.288,
01/01/2000,01:01:57.72,21.96,-56.61,-992.59,166.25,-752.50,-236.25,1,94.294,
01/01/2000,01:01:57.73,21.84,-56.61,-992.35,227.50,-621.25,-507.50,1,94.300,
01/01/2000,01:01:57.74,21.72,-56.85,-992.47,227.50,-700.0,-350.0,1,94.305,
01/01/2000,01:01:57.75,21.96,-56.61,-992.71,175.0,-665.0,-227.50,1,94.220,
01/01/2000,01:01:57.76,21.96,-56.61,-992.59,192.50,-612.50,-350.0,1,94.225,
01/01/2000,01:01:57.77,21.84,-56.73,-992.47,26.25,-708.75,-288.75,1,94.231,
01/01/2000,01:01:57.78,21.84,-56.73,-992.35,122.50,-778.75,-402.50,1,94.236,
01/01/2000,01:01:57.79,21.96,-56.49,-992.35,227.50,-673.75,-358.75,1,94.242,
01/01/2000,01:01:57.80,21.84,-56.36,-992.59,192.50,-761.25,-175.0,1,94.247,
01/01/2000,01:01:57.81,21.72,-56.61,-992.96,183.75,-717.50,-411.25,1,94.253,
01/01/2000,01:01:57.83,21.96,-56.61,-992.84,113.75,-708.75,-280.0,1,94.258,
01/01/2000,01:01:57.84,22.08,-56.73,-992.35,236.25,-700.0,-446.25,1,94.264,
01/01/2000,01:01:57.85,22.08,-56.61,-992.23,105.0,-787.50,-262.50,1,94.269,
01/01/2000,01:01:57.86,21.96,-56.85,-992.35,218.75,-656.25,-446.25,1,94.275,
01/01/2000,01:01:57.87,21.72,-56.73,-992.71,218.75,-612.50,-341.25,1,94.280,
01/01/2000,01:01:57.88,21.84,-56.61,-992.71,35.0,-743.75,-350.0,1,94.286,
01/01/2000,01:01:57.89,21.96,-56.61,-992.59,218.75,-717.50,-350.0,1,94.291,
01/01/2000,01:01:57.90,21.84,-56.73,-992.59,113.75,-778.75,-315.0,1,94.297,
01/01/2000,01:01:57.91,21.96,-56.97,-992.59,122.50,-787.50,-446.25,1,94.302,
01/01/2000,01:01:57.92,22.08,-56.97,-992.59,175.0,-770.0,-332.50,1,94.307,
01/01/2000,01:01:57.93,21.96,-56.85,-992.47,113.75,-708.75,-332.50,1,94.313,
01/01/2000,01:01:57.94,21.72,-56.73,-992.35,280.0,-656.25,-245.0,1,94.318,
01/01/2000,01:01:57.95,21.72,-56.61,-992.35,105.0,-673.75,-201.25,1,94.234,
01/01/2000,01:01:57.97,21.96,-56.97,-992.23,210.0,-691.25,-358.75,1,94.240,
01/01/2000,01:01:57.98,21.96,-57.10,-992.47,87.50,-682.50,-341.25,1,94.245,
01/01/2000,01:01:57.99,21.96,-56.85,-992.47,227.50,-682.50,-332.50,1,94.251,
01/01/2000,01:01:58.00,22.08,-56.61,-992.35,166.25,-743.75,-350.0,1,94.256,
01/01/2000,01:01:58.01,21.96,-56.36,-992.35,192.50,-761.25,-306.25,1,94.262,
01/01/2000,01:01:58.02,21.96,-56.36,-992.59,148.75,-638.75,-227.50,1,94.267,
01/01/2000,01:01:58.03,22.08,-56.61,-992.84,148.75,-630.0,-201.25,1,94.272,
01/01/2000,01:01:58.04,22.33,-56.73,-992.71,148.75,-577.50,-332.50,1,94.278,
01/01/2000,01:01:58.05,22.20,-56.61,-992.59,166.25,-630.0,-411.25,1,94.283,
01/01/2000,01:01:58.06,22.20,-56.49,-992.84,262.50,-787.50,-245.0,1,94.288,
01/01/2000,01:01:58.07,22.20,-56.36,-992.84,315.0,-752.50,-358.75,1,94.294,
01/01/2000,01:01:58.08,22.08,-56.36,-992.71,175.0,-673.75,-341.25,1,94.299,
01/01/2000,01:01:58.09,21.84,-56.49,-992.71,157.50,-752.50,-341.25,1,94.304,
01/01/2000,01:01:58.10,21.96,-56.61,-992.59,-26.25,-673.75,-367.50,1,94.222,
01/01/2000,01:01:58.12,22.20,-56.61,-992.71,236.25,-630.0,-437.50,1,94.227,
01/01/2000,01:01:58.13,22.08,-56.49,-992.84,43.75,-691.25,-218.75,1,94.233,
01/01/2000,01:01:58.14,21.96,-56.49,-992.59,236.25,-708.75,-385.0,1,94.238,
01/01/2000,01:01:58.15,21.84,-56.61,-992.96,140.0,-665.0,-376.25,1,94.243,
01/01/2000,01:01:58.16,22.08,-56.49,-992.84,183.75,-796.25,-350.0,1,94.249,
01/01/2000,01:01:58.17,22.20,-56.36,-992.71,245.0,-735.0,-227.50,1,94.254,
01/01/2000,01:01:58.18,22.08,-56.61,-992.47,105.0,-796.25,-271.25,1,94.259,
01/01/2000,01:01:58.19,21.96,-56.73,-992.35,227.50,-726.25,-367.50,1,94.265,
01/01/2000,01:01:58.20,21.96,-56.73,-992.47,87.50,-700.0,-385.0,1,94.270,
01/01/2000,01:01:58.21,21.96,-56.73,-992.71,140.0,-752.50,-455.0,1,94.275,
01/01/2000,01:01:58.22,21.96,-56.73,-992.84,218.75,-656.25,-437.50,1,94.280,
01/01/2000,01:01:58.23,21.72,-56.61,-992.59,262.50,-726.25,-332.50,1,94.286,
01/01/2000,01:01:58.24,21.72,-56.61,-992.59,113.75,-656.25,-350.0,1,94.291,
01/01/2000,01:01:58.25,21.96,-56.73,-992.59,201.25,-752.50,-350.0,1,94.210,
01/01/2000,01:01:58.26,21.96,-56.61,-992.96,218.75,-813.75,-271.25,1,94.215,
01/01/2000,01:01:58.27,21.96,-56.61,-993.08,166.25,-621.25,-315.0,1,94.220,
01/01/2000,01:01:58.28,21.96,-56.49,-992.84,192.50,-682.50,-376.25,1,94.225,
01/01/2000,01:01:58.29,21.84,-56.36,-992.84,131.25,-743.75,-271.25,1,94.231,
01/01/2000,01:01:58.30,21.96,-56.49,-992.84,271.25,-700.0,-350.0,1,94.236,
01/01/2000,01:01:58.32,21.96,-56.49,-992.84,52.50,-630.0,-341.25,1,94.241,
01/01/2000,01:01:58.33,21.96,-56.85,-992.71,157.50,-752.50,-306.25,1,94.247,
01/01/2000,01:01:58.34,21.84,-56.73,-992.71,271.25,-735.0,-376.25,1,94.252,
01/01/2000,01:01:58.35,21.84,-56.61,-992.59,131.25,-630.0,-280.0,1,94.257,
01/01/2000,01:01:58.36,21.84,-56.61,-992.59,262.50,-735.0,-428.75,1,94.262,
01/01/2000,01:01:58.37,22.20,-56.49,-992.84,17.50,-708.75,-175.0,1,94.268,
01/01/2000,01:01:58.38,22.33,-56.85,-992.84,358.75,-761.25,-385.0,1,94.273,
01/01/2000,01:01:58.39,21.96,-56.73,-992.84,87.50,-761.25,-306.25,1,94.278,
01/01/2000,01:01:58.40,22.08,-56.73,-992.59,157.50,-691.25,-385.0,1,94.283,
01/01/2000,01:01:58.41,22.33,-56.49,-992.71,105.0,-691.25,-288.75,1,94.288,
01/01/2000,01:01:58.42,22.45,-56.36,-992.84,157.50,-691.25,-253.75,1,94.293,
01/01/2000,01:01:58.43,22.20,-56.36,-992.84,192.50,-700.0,-245.0,1,94.299,
01/01/2000,01:01:58.44,22.08,-56.61,-992.59,131.25,-551.25,-271.25,1,94.304,
01/01/2000,01:01:58.45,21.96,-56.73,-992.71,262.50,-743.75,-323.75,1,94.309,
01/01/2000,01:01:58.46,22.08,-56.85,-992.59,227.50,-708.75,-350.0,1,94.229,
01/01/2000,01:01:58.47,22.20,-56.61,-992.71,175.0,-682.50,-306.25,1,94.234,
01/01/2000,01:01:58.48,22.20,-56.49,-992.71,61.25,-665.0,-341.25,1,94.239,
01/01/2000,01:01:58.49,22.20,-56.61,-992.71,201.25,-708.75,-393.75,1,94.245,
01/01/2000,01:01:58.50,22.45,-56.49,-992.84,105.0,-682.50,-385.0,1,94.250,
01/01/2000,01:01:58.52,22.69,-56.49,-992.59,113.75,-770.0,-262.50,1,94.255,
01/01/2000,01:01:58.53,22.69,-56.61,-992.59,122.50,-752.50,-306.25,1,94.260,
01/01/2000,01:01:58.54,22.57,-56.61,-992.35,122.50,-638.75,-350.0,1,94.265,
01/01/2000,01:01:58.55,22.33,-56.61,-992.35,78.75,-665.0,-350.0,1,94.270,
01/01/2000,01:01:58.56,22.45,-56.36,-992.47,341.25,-708.75,-358.75,1,94.275,
01/01/2000,01:01:58.57,22.45,-56.36,-992.59,113.75,-726.25,-376.25,1,94.281,
01/01/2000,01:01:58.58,22.45,-56.36,-992.59,192.50,-603.75,-288.75,1,94.286,
01/01/2000,01:01:58.59,22.20,-56.49,-992.47,201.25,-691.25,-350.0,1,94.291,
01/01/2000,01:01:58.60,22.33,-56.61,-992.35,262.50,-682.50,-323.75,1,94.212,
01/01/2000,01:01:58.61,22.20,-56.61,-992.47,288.75,-700.0,-306.25,1,94.217,
01/01/2000,01:01:58.63,22.08,-56.61,-992.71,52.50,-761.25,-428.75,1,94.222,
01/01/2000,01:01:58.64,21.96,-56.36,-992.71,140.0,-682.50,-323.75,1,94.227,
01/01/2000,01:01:58.65,22.20,-56.36,-992.59,236.25,-682.50,-288.75,1,94.232,
01/01/2000,01:01:58.66,22.20,-56.36,-992.35,210.0,-717.50,-323.75,1,94.238,
01/01/2000,01:01:58.67,22.20,-56.49,-992.35,113.75,-603.75,-411.25,1,94.243,
01/01/2000,01:01:58.68,21.96,-56.73,-992.71,245.0,-726.25,-420.0,1,94.248,
01/01/2000,01:01:58.69,22.20,-56.36,-992.84,175.0,-717.50,-542.50,1,94.253,
01/01/2000,01:01:58.70,22.45,-56.36,-992.84,183.75,-665.0,-341.25,1,94.258,
01/01/2000,01:01:58.71,22.45,-56.12,-992.84,175.0,-717.50,-367.50,1,94.263,
01/01/2000,01:01:58.72,22.20,-56.36,-992.35,227.50,-700.0,-201.25,1,94.268,
01/01/2000,01:01:58.73,22.20,-56.85,-992.35,271.25,-603.75,-490.0,1,94.273,
01/01/2000,01:01:58.74,22.08,-56.73,-992.59,78.75,-700.0,-402.50,1,94.278,
01/01/2000,01:01:58.75,22.20,-56.73,-992.71,341.25,-682.50,-306.25,1,94.283,
01/01/2000,01:01:58.76,22.08,-56.49,-992.59,166.25,-726.25,-350.0,1,94.288,
01/01/2000,01:01:58.77,21.84,-56.49,-992.47,210.0,-665.0,-227.50,1,94.293,
01/01/2000,01:01:58.78,21.96,-56.61,-992.47,113.75,-603.75,-350.0,1,94.298,
01/01/2000,01:01:58.79,21.96,-56.61,-992.59,131.25,-761.25,-350.0,1,94.303,
01/01/2000,01:01:58.80,21.96,-56.73,-992.84,78.75,-638.75,-358.75,1,94.308,
01/01/2000,01:01:58.82,21.96,-56.61,-992.71,201.25,-673.75,-525.0,1,94.231,
01/01/2000,01:01:58.83,21.96,-56.36,-992.59,227.50,-752.50,-323.75,1,94.236,
01/01/2000,01:01:58.84,22.08,-56.49,-992.59,218.75,-673.75,-288.75,1,94.241,
01/01/2000,01:01:58.85,22.08,-56.49,-992.71,201.25,-638.75,-341.25,1,94.246,
01/01/2000,01:01:58.86,21.84,-56.61,-992.96,0.0,-682.50,-455.0,1,94.251,
01/01/2000,01:01:58.87,22.20,-56.73,-992.71,96.25,-787.50,-393.75,1,94.256,
01/01/2000,01:01:58.88,22.08,-56.49,-992.47,43.75,-647.50,-367.50,1,94.261,
01/01/2000,01:01:58.89,22.20,-56.61,-992.35,78.75,-778.75,-210.0,1,94.266,
01/01/2000,01:01:58.90,22.20,-56.73,-992.59,227.50,-691.25,-315.0,1,94.271,
01/01/2000,01:01:58.91,22.20,-56.61,-993.08,253.75,-638.75,-402.50,1,94.276,
01/01/2000,01:01:58.92,22.20,-56.61,-992.84,183.75,-638.75,-306.25,1,94.281,
01/01/2000,01:01:58.93,22.08,-56.49,-992.59,35.0,-586.25,-350.0,1,94.286,
01/01/2000,01:01:58.94,21.96,-56.61,-992.35,280.0,-638.75,-297.50,1,94.291,
01/01/2000,01:01:58.95,22.20,-56.49,-992.71,96.25,-735.0,-288.75,1,94.214,
01/01/2000,01:01:58.96,22.45,-56.61,-992.84,140.0,-787.50,-393.75,1,94.219,
01/01/2000,01:01:58.97,22.57,-56.49,-992.84,253.75,-691.25,-157.50,1,94.224,
01/01/2000,01:01:58.98,21.96,-56.61,-992.71,166.25,-743.75,-341.25,1,94.229,
01/01/2000,01:01:58.99,21.96,-56.61,-992.59,131.25,-612.50,-341.25,1,94.234,
01/01/2000,01:01:59.00,22.20,-56.49,-992.59,140.0,-735.0,-367.50,1,94.239,
01/01/2000,01:01:59.01,22.33,-56.61,-992.59,175.0,-735.0,-332.50,1,94.244,
01/01/2000,01:01:59.03,22.08,-56.73,-992.59,218.75,-647.50,-315.0,1,94.249,
01/01/2000,01:01:59.04,21.84,-56.49,-992.59,87.50,-673.75,-428.75,1,94.254,
01/01/2000,01:01:59.05,22.08,-56.24,-992.59,218.75,-805.0,-350.0,1,94.259,
01/01/2000,01:01:59.06,22.45,-56.24,-992.71,157.50,-647.50,-306.25,1,94.264,
01/01/2000,01:01:59.07,22.20,-56.36,-992.84,131.25,-612.50,-288.75,1,94.269,
01/01/2000,01:01:59.08,22.20,-56.49,-992.84,78.75,-743.75,-306.25,1,94.274,
01/01/2000,01:01:59.09,22.20,-56.49,-992.71,148.75,-700.0,-306.25,1,94.278,
01/01/2000,01:01:59.10,22.33,-56.49,-992.59,192.50,-691.25,-332.50,1,94.283,
01/01/2000,01:01:59.11,22.33,-56.36,-992.71,131.25,-603.75,-288.75,1,94.288,
01/01/2000,01:01:59.12,22.08,-56.36,-992.71,227.50,-603.75,-420.0,1,94.293,
01/01/2000,01:01:59.14,22.08,-56.61,-992.71,192.50,-656.25,-253.75,1,94.218,
01/01/2000,01:01:59.15,22.20,-56.73,-992.84,61.25,-691.25,-350.0,1,94.223,
01/01/2000,01:01:59.16,22.45,-56.61,-992.84,140.0,-770.0,-350.0,1,94.228,
01/01/2000,01:01:59.17,22.33,-56.36,-992.59,183.75,-717.50,-271.25,1,94.232,
01/01/2000,01:01:59.18,22.20,-56.36,-992.23,288.75,-813.75,-288.75,1,94.237,
01/01/2000,01:01:59.19,22.08,-56.36,-992.23,175.0,-743.75,-428.75,1,94.242,
01/01/2000,01:01:59.20,22.08,-56.49,-992.35,280.0,-735.0,-236.25,1,94.247,
01/01/2000,01:01:59.21,22.33,-56.36,-992.35,122.50,-612.50,-350.0,1,94.252,
01/01/2000,01:01:59.22,22.33,-56.61,-992.35,140.0,-761.25,-358.75,1,94.257,
01/01/2000,01:01:59.23,22.33,-56.61,-992.35,105.0,-656.25,-253.75,1,94.262,
01/01/2000,01:01:59.24,22.20,-56.61,-992.35,105.0,-665.0,-367.50,1,94.266,
01/01/2000,01:01:59.25,22.20,-56.61,-992.59,192.50,-586.25,-306.25,1,94.271,
01/01/2000,01:01:59.26,22.08,-56.61,-992.84,262.50,-595.0,-376.25,1,94.276,
01/01/2000,01:01:59.27,21.96,-56.49,-992.71,166.25,-700.0,-288.75,1,94.281,
01/01/2000,01:01:59.28,21.96,-56.36,-992.71,236.25,-673.75,-428.75,1,94.286,
01/01/2000,01:01:59.29,21.84,-56.36,-992.59,236.25,-638.75,-315.0,1,94.291,
01/01/2000,01:01:59.30,21.84,-56.61,-992.71,8.75,-831.25,-367.50,1,94.216,
01/01/2000,01:01:59.31,21.96,-56.36,-992.96,52.50,-656.25,-341.25,1,94.221,
01/01/2000,01:01:59.32,22.20,-56.36,-993.08,245.0,-717.50,-341.25,1,94.226,
01/01/2000,01:01:59.33,22.20,-56.36,-992.96,192.50,-691.25,-315.0,1,94.231,
01/01/2000,01:01:59.34,22.08,-56.61,-992.84,166.25,-673.75,-192.50,1,94.236,
01/01/2000,01:01:59.35,22.08,-56.61,-992.71,175.0,-665.0,-437.50,1,94.240,
01/01/2000,01:01:59.36,22.20,-56.49,-992.71,245.0,-787.50,-393.75,1,94.245,
01/01/2000,01:01:59.38,21.96,-56.61,-992.59,183.75,-665.0,-271.25,1,94.250,
01/01/2000,01:01:59.39,21.72,-56.61,-992.59,218.75,-656.25,-358.75,1,94.255,
01/01/2000,01:01:59.40,21.96,-56.61,-992.71,52.50,-665.0,-306.25,1,94.260,
01/01/2000,01:01:59.41,22.08,-56.61,-992.71,192.50,-647.50,-367.50,1,94.264,
01/01/2000,01:01:59.42,22.20,-56.61,-992.84,105.0,-761.25,-280.0,1,94.269,
01/01/2000,01:01:59.43,21.96,-56.73,-992.71,175.0,-743.75,-385.0,1,94.274,
01/01/2000,01:01:59.44,21.96,-56.61,-992.59,262.50,-708.75,-271.25,1,94.279,
01/01/2000,01:01:59.45,21.96,-56.36,-992.35,96.25,-656.25,-393.75,1,94.205,
01/01/2000,01:01:59.46,21.96,-56.61,-992.59,52.50,-665.0,-393.75,1,94.210,
01/01/2000,01:01:59.47,21.96,-56.61,-992.84,140.0,-682.50,-297.50,1,94.215,
01/01/2000,01:01:59.48,22.08,-56.85,-992.84,175.0,-647.50,-402.50,1,94.220,
01/01/2000,01:01:59.49,21.96,-56.85,-992.59,262.50,-665.0,-315.0,1,94.224,
01/01/2000,01:01:59.50,21.96,-56.85,-992.59,52.50,-656.25,-402.50,1,94.229,
01/01/2000,01:01:59.52,21.96,-56.73,-992.71,183.75,-770.0,-297.50,1,94.234,
01/01/2000,01:01:59.53,21.96,-56.49,-992.59,315.0,-647.50,-236.25,1,94.239,
01/01/2000,01:01:59.54,21.96,-56.85,-992.47,175.0,-717.50,-350.0,1,94.243,
01/01/2000,01:01:59.55,21.84,-56.97,-992.47,192.50,-708.75,-393.75,1,94.248,
01/01/2000,01:01:59.56,21.96,-56.97,-992.59,113.75,-708.75,-385.0,1,94.253,
01/01/2000,01:01:59.57,22.20,-56.85,-992.59,43.75,-805.0,-262.50,1,94.258,
01/01/2000,01:01:59.58,22.20,-56.61,-992.84,105.0,-700.0,-253.75,1,94.262,
01/01/2000,01:01:59.59,21.84,-56.61,-992.71,210.0,-647.50,-516.25,1,94.267,
01/01/2000,01:01:59.60,21.96,-56.49,-992.71,96.25,-708.75,-210.0,1,94.272,
01/01/2000,01:01:59.61,22.20,-56.36,-992.59,218.75,-682.50,-323.75,1,94.276,
01/01/2000,01:01:59.62,22.08,-56.36,-992.47,175.0,-700.0,-210.0,1,94.281,
01/01/2000,01:01:59.63,21.96,-56.49,-992.35,131.25,-647.50,-315.0,1,94.286,
01/01/2000,01:01:59.65,21.96,-56.61,-992.59,201.25,-752.50,-393.75,1,94.214,
01/01/2000,01:01:59.66,22.20,-56.24,-992.59,105.0,-761.25,-227.50,1,94.218,
01/01/2000,01:01:59.67,22.08,-56.36,-992.59,122.50,-691.25,-280.0,1,94.223,
01/01/2000,01:01:59.68,21.96,-56.61,-992.71,262.50,-691.25,-341.25,1,94.228,
01/01/2000,01:01:59.69,21.96,-56.61,-992.71,131.25,-682.50,-262.50,1,94.232,
01/01/2000,01:01:59.70,22.20,-56.49,-992.59,35.0,-700.0,-376.25,1,94.237,
01/01/2000,01:01:59.71,22.20,-56.49,-992.47,96.25,-682.50,-367.50,1,94.242,
01/01/2000,01:01:59.72,22.20,-56.61,-992.47,271.25,-673.75,-323.75,1,94.246,
01/01/2000,01:01:59.73,22.33,-56.61,-992.59,96.25,-656.25,-358.75,1,94.251,
01/01/2000,01:01:59.74,22.45,-56.61,-992.71,61.25,-761.25,-288.75,1,94.256,
01/01/2000,01:01:59.75,22.20,-56.36,-992.59,245.0,-682.50,-385.0,1,94.260,
01/01/2000,01:01:59.76,22.08,-56.36,-992.59,183.75,-708.75,-315.0,1,94.265,
01/01/2000,01:01:59.77,22.20,-56.36,-992.59,210.0,-735.0,-420.0,1,94.270,
01/01/2000,01:01:59.78,22.20,-56.36,-992.59,148.75,-647.50,-332.50,1,94.274,
01/01/2000,01:01:59.79,22.33,-56.61,-992.71,271.25,-665.0,-332.50,1,94.279,
01/01/2000,01:01:59.80,22.20,-56.61,-992.59,87.50,-656.25,-315.0,1,94.283,
01/01/2000,01:01:59.81,22.20,-56.61,-992.59,253.75,-770.0,-367.50,1,94.288,
01/01/2000,01:01:59.82,22.20,-56.61,-992.35,183.75,-717.50,-253.75,1,94.293,
01/01/2000,01:01:59.83,22.45,-56.61,-992.47,148.75,-673.75,-367.50,1,94.297,
01/01/2000,01:01:59.84,22.20,-56.61,-992.47,210.0,-682.50,-323.75,1,94.302,
01/01/2000,01:01:59.85,22.08,-56.61,-992.35,175.0,-743.75,-262.50,1,94.306,
01/01/2000,01:01:59.86,22.20,-56.61,-992.35,183.75,-682.50,-262.50,1,94.311,
01/01/2000,01:01:59.88,22.20,-56.49,-992.35,140.0,-621.25,-262.50,1,94.240,
01/01/2000,01:01:59.89,22.20,-56.36,-992.35,288.75,-665.0,-393.75,1,94.245,
01/01/2000,01:01:59.90,22.20,-56.49,-992.59,148.75,-726.25,-332.50,1,94.249,
01/01/2000,01:01:59.91,22.20,-56.49,-992.71,175.0,-708.75,-367.50,1,94.254,
01/01/2000,01:01:59.92,22.20,-56.49,-992.84,280.0,-726.25,-332.50,1,94.258,
01/01/2000,01:01:59.93,22.20,-56.36,-992.71,26.25,-638.75,-253.75,1,94.263,
01/01/2000,01:01:59.94,22.08,-56.36,-992.59,78.75,-586.25,-227.50,1,94.268,
01/01/2000,01:01:59.95,21.96,-56.49,-992.47,148.75,-708.75,-306.25,1,94.272,
01/01/2000,01:01:59.96,21.96,-56.49,-992.59,78.75,-638.75,-262.50,1,94.277,
01/01/2000,01:01:59.97,21.96,-56.61,-992.71,105.0,-542.50,-341.25,1,94.281,
01/01/2000,01:01:59.98,22.08,-56.61,-992.71,148.75,-831.25,-271.25,1,94.286,
01/01/2000,01:01:59.99,21.96,-56.61,-992.59,131.25,-700.0,-437.50,1,94.290,
01/01/2000,01:02:00.00,21.96,-56.36,-992.59,140.0,-647.50,-323.75,1,94.295,
01/01/2000,01:02:00.01,21.96,-56.49,-992.47,140.0,-726.25,-306.25,1,94.225,
01/01/2000,01:02:00.02,22.08,-56.49,-992.47,288.75,-787.50,-280.0,1,94.229,
01/01/2000,01:02:00.03,21.96,-56.61,-992.35,61.25,-787.50,-297.50,1,94.234,
01/01/2000,01:02:00.04,21.96,-56.61,-992.35,96.25,-735.0,-297.50,1,94.238,
01/01/2000,01:02:00.05,21.84,-56.61,-992.35,367.50,-726.25,-350.0,1,94.243,
01/01/2000,01:02:00.06,21.96,-56.49,-992.35,210.0,-656.25,-323.75,1,94.247,
01/01/2000,01:02:00.08,21.84,-56.61,-992.35,271.25,-691.25,-367.50,1,94.252,
01/01/2000,01:02:00.09,21.96,-56.61,-992.35,148.75,-630.0,-236.25,1,94.256,
01/01/2000,01:02:00.10,21.96,-56.61,-992.35,271.25,-665.0,-315.0,1,94.261,
01/01/2000,01:02:00.11,21.96,-56.61,-992.35,87.50,-577.50,-253.75,1,94.266,
01/01/2000,01:02:00.12,22.08,-56.73,-992.35,157.50,-647.50,-367.50,1,94.270,
01/01/2000,01:02:00.13,21.96,-56.49,-992.35,175.0,-717.50,-393.75,1,94.275,
01/01/2000,01:02:00.14,21.96,-56.61,-992.35,78.75,-586.25,-376.25,1,94.279,
01/01/2000,01:02:00.16,21.72,-56.61,-992.10,131.25,-621.25,-271.25,1,94.210,
01/01/2000,01:02:00.17,21.96,-56.61,-992.10,236.25,-656.25,-280.0,1,94.214,
01/01/2000,01:02:00.18,22.08,-56.61,-992.10,52.50,-796.25,-350.0,1,94.219,
01/01/2000,01:02:00.19,22.20,-56.61,-992.10,175.0,-726.25,-236.25,1,94.223,
01/01/2000,01:02:00.20,21.96,-56.73,-992.23,113.75,-787.50,-446.25,1,94.228,
01/01/2000,01:02:00.21,21.96,-56.73,-992.23,157.50,-630.0,-315.0,1,94.232,
01/01/2000,01:02:00.22,21.84,-56.73,-992.23,210.0,-665.0,-288.75,1,94.237,
01/01/2000,01:02:00.23,21.84,-56.61,-992.23,-8.75,-656.25,-271.25,1,94.241,
01/01/2000,01:02:00.24,21.84,-56.61,-992.35,175.0,-752.50,-358.75,1,94.246,
01/01/2000,01:02:00.25,21.96,-56.61,-992.35,96.25,-770.0,-262.50,1,94.250,
01/01/2000,01:02:00.26,21.96,-56.73,-992.35,148.75,-603.75,-306.25,1,94.255,
01/01/2000,01:02:00.27,21.96,-56.73,-992.47,175.0,-875.0,-297.50,1,94.259,
01/01/2000,01:02:00.28,21.84,-56.61,-992.71,140.0,-630.0,-393.75,1,94.264,
01/01/2000,01:02:00.29,21.84,-56.49,-992.84,227.50,-682.50,-341.25,1,94.268,
01/01/2000,01:02:00.30,21.84,-56.49,-992.84,218.75,-735.0,-315.0,1,94.272,
01/01/2000,01:02:00.31,21.84,-56.36,-992.84,122.50,-691.25,-402.50,1,94.277,
01/01/2000,01:02:00.32,21.96,-56.49,-992.71,192.50,-656.25,-385.0,1,94.281,
01/01/2000,01:02:00.33,21.96,-56.61,-992.59,113.75,-603.75,-332.50,1,94.286,
01/01/2000,01:02:00.34,22.08,-56.49,-992.59,113.75,-682.50,-411.25,1,94.290,
01/01/2000,01:02:00.35,22.08,-56.49,-992.59,245.0,-761.25,-280.0,1,94.295,
01/01/2000,01:02:00.36,22.20,-56.49,-992.71,70.0,-743.75,-332.50,1,94.226,
01/01/2000,01:02:00.37,22.08,-56.61,-992.71,70.0,-717.50,-315.0,1,94.231,
01/01/2000,01:02:00.38,22.20,-56.49,-992.84,166.25,-726.25,-280.0,1,94.235,
01/01/2000,01:02:00.39,22.33,-56.49,-992.71,236.25,-778.75,-350.0,1,94.240,
01/01/2000,01:02:00.40,22.45,-56.61,-992.71,236.25,-682.50,-288.75,1,94.244,
01/01/2000,01:02:00.41,22.20,-56.61,-992.59,105.0,-708.75,-341.25,1,94.248,
01/01/2000,01:02:00.42,22.20,-56.61,-992.59,297.50,-621.25,-481.25,1,94.253,
01/01/2000,01:02:00.44,21.96,-56.36,-992.47,0.0,-717.50,-367.50,1,94.257,
01/01/2000,01:02:00.45,21.96,-56.36,-992.59,78.75,-665.0,-428.75,1,94.262,
01/01/2000,01:02:00.46,21.96,-56.49,-992.59,157.50,-700.0,-332.50,1,94.266,
01/01/2000,01:02:00.47,21.96,-56.61,-992.47,70.0,-612.50,-262.50,1,94.270,
01/01/2000,01:02:00.48,21.96,-56.73,-992.47,0.0,-577.50,-341.25,1,94.275,
01/01/2000,01:02:00.49,21.84,-56.73,-992.71,288.75,-743.75,-367.50,1,94.279,
01/01/2000,01:02:00.50,21.72,-56.61,-992.71,148.75,-691.25,-350.0,1,94.284,
01/01/2000,01:02:00.51,21.84,-56.49,-992.59,218.75,-638.75,-262.50,1,94.288,
01/01/2000,01:02:00.52,21.96,-56.61,-992.59,148.75,-638.75,-455.0,1,94.292,
01/01/2000,01:02:00.53,21.96,-56.61,-992.47,183.75,-630.0,-393.75,1,94.297,
01/01/2000,01:02:00.54,21.96,-56.73,-992.59,166.25,-708.75,-420.0,1,94.301,
01/01/2000,01:02:00.55,21.96,-56.61,-992.35,201.25,-656.25,-402.50,1,94.305,
01/01/2000,01:02:00.56,21.96,-56.49,-992.35,201.25,-743.75,-367.50,1,94.310,
01/01/2000,01:02:00.57,21.96,-56.61,-992.23,122.50,-691.25,-437.50,1,94.242,
01/01/2000,01:02:00.58,22.08,-56.61,-992.35,105.0,-621.25,-271.25,1,94.247,
01/01/2000,01:02:00.59,22.20,-56.85,-992.35,122.50,-656.25,-341.25,1,94.251,
01/01/2000,01:02:00.60,22.20,-56.97,-992.35,236.25,-673.75,-306.25,1,94.255,
01/01/2000,01:02:00.62,22.08,-56.85,-992.35,96.25,-647.50,-262.50,1,94.260,
01/01/2000,01:02:00.62,22.20,-56.85,-992.35,157.50,-647.50,-376.25,1,94.264,
01/01/2000,01:02:00.64,22.20,-56.61,-992.35,131.25,-708.75,-332.50,1,94.268,
01/01/2000,01:02:00.65,22.08,-56.61,-992.47,227.50,-551.25,-315.0,1,94.273,
01/01/2000,01:02:00.66,21.96,-56.85,-992.35,87.50,-735.0,-323.75,1,94.206,
01/01/2000,01:02:00.67,21.96,-56.85,-992.35,-26.25,-700.0,-341.25,1,94.211,
01/01/2000,01:02:00.68,21.96,-56.85,-992.23,148.75,-700.0,-350.0,1,94.215,
01/01/2000,01:02:00.69,21.96,-56.85,-992.35,183.75,-700.0,-315.0,1,94.219,
01/01/2000,01:02:00.70,21.96,-56.85,-992.47,148.75,-630.0,-271.25,1,94.224,
01/01/2000,01:02:00.72,21.96,-56.85,-992.59,148.75,-717.50,-271.25,1,94.228,
01/01/2000,01:02:00.73,21.96,-56.85,-992.35,175.0,-656.25,-306.25,1,94.232,
01/01/2000,01:02:00.74,21.96,-56.85,-992.35,192.50,-770.0,-297.50,1,94.237,
01/01/2000,01:02:00.75,21.84,-56.97,-992.47,105.0,-647.50,-402.50,1,94.241,
01/01/2000,01:02:00.76,21.96,-56.97,-992.59,166.25,-673.75,-463.75,1,94.245,
01/01/2000,01:02:00.77,22.08,-56.85,-992.59,288.75,-752.50,-350.0,1,94.249,
01/01/2000,01:02:00.78,21.96,-56.73,-992.47,175.0,-665.0,-288.75,1,94.254,
01/01/2000,01:02:00.79,21.96,-56.85,-992.35,218.75,-682.50,-262.50,1,94.258,
01/01/2000,01:02:00.80,21.84,-56.97,-992.35,201.25,-656.25,-332.50,1,94.262,
01/01/2000,01:02:00.81,22.08,-56.97,-992.47,122.50,-665.0,-245.0,1,94.267,
01/01/2000,01:02:00.82,21.96,-56.97,-992.47,245.0,-761.25,-315.0,1,94.271,
01/01/2000,01:02:00.83,21.96,-56.97,-992.47,192.50,-656.25,-393.75,1,94.275,
01/01/2000,01:02:00.84,21.96,-56.97,-992.47,315.0,-638.75,-393.75,1,94.279,
01/01/2000,01:02:00.85,21.96,-56.85,-992.59,175.0,-647.50,-376.25,1,94.284,
01/01/2000,01:02:00.86,22.20,-56.73,-992.59,105.0,-752.50,-297.50,1,94.288,
01/01/2000,01:02:00.87,22.20,-56.73,-992.59,140.0,-665.0,-393.75,1,94.292,
01/01/2000,01:02:00.88,22.08,-56.85,-992.59,113.75,-708.75,-271.25,1,94.296,
01/01/2000,01:02:00.89,21.96,-56.85,-992.59,218.75,-708.75,-385.0,1,94.301,
01/01/2000,01:02:00.90,21.96,-56.73,-992.71,280.0,-700.0,-297.50,1,94.305,
01/01/2000,01:02:00.91,22.20,-56.61,-992.71,140.0,-761.25,-420.0,1,94.239,
01/01/2000,01:02:00.93,22.20,-56.61,-992.71,157.50,-700.0,-358.75,1,94.244,
01/01/2000,01:02:00.94,22.08,-56.73,-992.71,105.0,-630.0,-332.50,1,94.248,
01/01/2000,01:02:00.95,21.96,-56.73,-992.59,175.0,-691.25,-385.0,1,94.252,
01/01/2000,01:02:00.96,21.96,-56.73,-992.59,201.25,-612.50,-393.75,1,94.256,
01/01/2000,01:02:00.97,22.08,-56.49,-992.84,183.75,-700.0,-245.0,1,94.260,
01/01/2000,01:02:00.98,22.08,-56.49,-992.71,148.75,-647.50,-358.75,1,94.265,
01/01/2000,01:02:00.99,21.96,-56.61,-992.59,131.25,-708.75,-271.25,1,94.269,
01/01/2000,01:02:01.00,21.96,-56.61,-992.47,166.25,-665.0,-315.0,1,94.273,
01/01/2000,01:02:01.01,22.08,-56.73,-992.47,157.50,-831.25,-428.75,1,94.277,
01/01/2000,01:02:01.02,21.96,-56.61,-992.47,43.75,-717.50,-288.75,1,94.282,
01/01/2000,01:02:01.03,21.84,-56.73,-992.59,113.75,-656.25,-367.50,1,94.286,
01/01/2000,01:02:01.04,21.72,-56.85,-992.59,166.25,-560.0,-271.25,1,94.290,
01/01/2000,01:02:01.05,21.72,-56.85,-992.59,192.50,-647.50,-367.50,1,94.294,
01/01/2000,01:02:01.06,21.96,-56.85,-992.59,210.0,-647.50,-315.0,1,94.298,
01/01/2000,01:02:01.07,21.96,-56.61,-992.84,122.50,-735.0,-262.50,1,94.234,
01/01/2000,01:02:01.08,21.96,-56.85,-992.84,227.50,-612.50,-332.50,1,94.238,
01/01/2000,01:02:01.09,21.84,-56.85,-992.71,157.50,-700.0,-297.50,1,94.242,
01/01/2000,01:02:01.10,21.84,-56.85,-992.71,0.0,-813.75,-420.0,1,94.246,
01/01/2000,01:02:01.11,21.96,-56.85,-992.71,113.75,-770.0,-323.75,1,94.250,
01/01/2000,01:02:01.12,21.96,-56.73,-992.71,192.50,-656.25,-210.0,1,94.255,
01/01/2000,01:02:01.14,21.72,-56.73,-992.59,78.75,-691.25,-306.25,1,94.259,
01/01/2000,01:02:01.15,21.72,-56.73,-992.47,122.50,-700.0,-472.50,1,94.263,
01/01/2000,01:02:01.16,21.84,-56.73,-992.35,122.50,-647.50,-315.0,1,94.267,
01/01/2000,01:02:01.17,21.84,-56.73,-992.47,192.50,-700.0,-262.50,1,94.203,
01/01/2000,01:02:01.19,21.84,-56.97,-992.35,218.75,-691.25,-358.75,1,94.207,
01/01/2000,01:02:01.20,21.72,-56.97,-992.47,78.75,-708.75,-315.0,1,94.211,
01/01/2000,01:02:01.21,21.72,-56.97,-992.59,148.75,-665.0,-358.75,1,94.215,
01/01/2000,01:02:01.22,21.72,-56.85,-992.71,140.0,-761.25,-402.50,1,94.220,
01/01/2000,01:02:01.23,21.84,-56.73,-992.71,157.50,-612.50,-332.50,1,94.224,
01/01/2000,01:02:01.24,21.84,-57.10,-992.47,218.75,-761.25,-306.25,1,94.228,
01/01/2000,01:02:01.25,21.72,-57.22,-992.35,0.0,-603.75,-481.25,1,94.232,
01/01/2000,01:02:01.26,21.72,-57.22,-992.35,218.75,-682.50,-463.75,1,94.236,
01/01/2000,01:02:01.27,21.96,-56.97,-992.47,236.25,-665.0,-271.25,1,94.240,
01/01/2000,01:02:01.28,22.20,-56.85,-992.59,105.0,-586.25,-253.75,1,94.245,
01/01/2000,01:02:01.29,21.96,-56.73,-992.59,131.25,-647.50,-358.75,1,94.249,
01/01/2000,01:02:01.30,21.84,-56.85,-992.59,175.0,-656.25,-367.50,1,94.253,
01/01/2000,01:02:01.31,21.96,-56.85,-992.59,157.50,-691.25,-446.25,1,94.257,
01/01/2000,01:02:01.32,22.08,-56.61,-992.71,166.25,-708.75,-323.75,1,94.261,
01/01/2000,01:02:01.33,21.96,-56.73,-992.59,70.0,-752.50,-341.25,1,94.265,
01/01/2000,01:02:01.34,21.59,-56.73,-992.59,227.50,-726.25,-350.0,1,94.269,
01/01/2000,01:02:01.35,21.72,-56.73,-992.47,157.50,-743.75,-420.0,1,94.206,
01/01/2000,01:02:01.36,21.84,-56.61,-992.47,227.50,-630.0,-367.50,1,94.210,
01/01/2000,01:02:01.37,21.96,-56.85,-992.84,52.50,-708.75,-262.50,1,94.214,
01/01/2000,01:02:01.38,21.72,-56.85,-992.71,166.25,-673.75,-385.0,1,94.218,
01/01/2000,01:02:01.39,21.72,-57.10,-992.59,236.25,-630.0,-358.75,1,94.223,
01/01/2000,01:02:01.40,21.72,-56.85,-992.59,288.75,-630.0,-245.0,1,94.227,
01/01/2000,01:02:01.41,21.84,-56.61,-992.84,192.50,-673.75,-218.75,1,94.231,
01/01/2000,01:02:01.43,21.96,-56.73,-992.96,175.0,-770.0,-271.25,1,94.235,
01/01/2000,01:02:01.44,21.72,-56.73,-992.84,140.0,-665.0,-358.75,1,94.239,
01/01/2000,01:02:01.45,21.96,-56.97,-992.71,306.25,-630.0,-218.75,1,94.243,
01/01/2000,01:02:01.46,21.84,-56.97,-992.59,271.25,-682.50,-341.25,1,94.247,
01/01/2000,01:02:01.47,21.84,-56.73,-992.59,70.0,-848.75,-288.75,1,94.251,
01/01/2000,01:02:01.48,21.96,-56.97,-992.71,271.25,-726.25,-393.75,1,94.255,
01/01/2000,01:02:01.49,21.72,-56.85,-992.71,157.50,-691.25,-332.50,1,94.259,
01/01/2000,01:02:01.50,21.72,-56.97,-992.59,315.0,-717.50,-341.25,1,94.263,
01/01/2000,01:02:01.51,21.72,-56.85,-992.47,105.0,-700.0,-332.50,1,94.201,
01/01/2000,01:02:01.52,21.72,-56.73,-992.59,166.25,-708.75,-358.75,1,94.272,
01/01/2000,01:02:01.53,21.96,-56.73,-992.59,280.0,-761.25,-262.50,1,94.209,
01/01/2000,01:02:01.54,21.96,-56.61,-992.59,175.0,-796.25,-236.25,1,94.213,
01/01/2000,01:02:01.55,21.84,-56.73,-992.47,183.75,-603.75,-288.75,1,94.217,
01/01/2000,01:02:01.57,21.72,-56.97,-992.59,166.25,-621.25,-446.25,1,94.221,
01/01/2000,01:02:01.58,21.84,-56.85,-992.71,131.25,-717.50,-428.75,1,94.225,
01/01/2000,01:02:01.59,21.84,-56.61,-992.71,105.0,-700.0,-271.25,1,94.229,
01/01/2000,01:02:01.60,21.72,-56.73,-992.71,157.50,-726.25,-323.75,1,94.233,
01/01/2000,01:02:01.61,21.59,-56.73,-992.71,113.75,-726.25,-236.25,1,94.238,
01/01/2000,01:02:01.62,21.72,-56.85,-992.71,262.50,-726.25,-411.25,1,94.242,
01/01/2000,01:02:01.63,21.72,-56.73,-992.71,148.75,-691.25,-306.25,1,94.246,
01/01/2000,01:02:01.64,21.96,-56.85,-992.59,183.75,-630.0,-288.75,1,94.250,
01/01/2000,01:02:01.65,21.72,-56.73,-992.47,227.50,-673.75,-385.0,1,94.254,
01/01/2000,01:02:01.66,21.84,-56.85,-992.59,122.50,-717.50,-306.25,1,94.258,
01/01/2000,01:02:01.67,21.96,-56.85,-992.84,148.75,-682.50,-262.50,1,94.262,
01/01/2000,01:02:01.68,21.96,-56.73,-992.47,218.75,-708.75,-332.50,1,94.200,
01/01/2000,01:02:01.70,21.84,-56.61,-992.35,271.25,-831.25,-358.75,1,94.204,
01/01/2000,01:02:01.71,21.72,-56.61,-992.35,140.0,-717.50,-297.50,1,94.208,
01/01/2000,01:02:01.72,21.72,-56.61,-992.59,218.75,-717.50,-411.25,1,94.212,
01/01/2000,01:02:01.73,21.72,-56.61,-992.47,113.75,-735.0,-297.50,1,94.216,
01/01/2000,01:02:01.74,21.84,-56.73,-992.35,227.50,-647.50,-402.50,1,94.220,
01/01/2000,01:02:01.75,21.96,-56.61,-992.47,148.75,-700.0,-341.25,1,94.224,
01/01/2000,01:02:01.76,22.08,-56.61,-992.59,157.50,-822.50,-280.0,1,94.228,
01/01/2000,01:02:01.77,21.96,-56.85,-992.71,140.0,-708.75,-323.75,1,94.232,
01/01/2000,01:02:01.78,21.84,-56.85,-992.59,-17.50,-752.50,-271.25,1,94.236,
01/01/2000,01:02:01.79,21.96,-57.10,-992.59,253.75,-726.25,-393.75,1,94.240,
01/01/2000,01:02:01.80,21.96,-56.85,-992.47,148.75,-682.50,-280.0,1,94.244,
01/01/2000,01:02:01.81,21.96,-57.10,-992.47,140.0,-665.0,-376.25,1,94.248,
01/01/2000,01:02:01.82,21.96,-57.10,-992.35,113.75,-700.0,-297.50,1,94.252,
01/01/2000,01:02:01.83,21.84,-56.85,-992.47,52.50,-761.25,-437.50,1,94.256,
01/01/2000,01:02:01.84,21.96,-56.85,-992.59,271.25,-726.25,-315.0,1,94.260,
01/01/2000,01:02:01.85,21.96,-56.49,-992.59,131.25,-691.25,-201.25,1,94.199,
01/01/2000,01:02:01.86,21.96,-56.97,-992.35,253.75,-656.25,-490.0,1,94.203,
01/01/2000,01:02:01.87,21.72,-56.97,-992.35,236.25,-682.50,-376.25,1,94.207,
01/01/2000,01:02:01.88,21.72,-56.97,-992.47,140.0,-647.50,-367.50,1,94.211,
01/01/2000,01:02:01.89,21.84,-56.97,-992.35,70.0,-612.50,-367.50,1,94.215,
01/01/2000,01:02:01.90,21.84,-56.73,-992.35,192.50,-665.0,-262.50,1,94.219,
01/01/2000,01:02:01.92,21.84,-56.85,-992.23,227.50,-612.50,-367.50,1,94.223,
01/01/2000,01:02:01.93,21.96,-56.85,-992.23,218.75,-770.0,-358.75,1,94.227,
01/01/2000,01:02:01.94,22.20,-56.85,-992.35,70.0,-656.25,-323.75,1,94.231,
01/01/2000,01:02:01.95,22.08,-56.85,-992.59,315.0,-612.50,-315.0,1,94.235,
01/01/2000,01:02:01.96,21.84,-56.73,-992.59,70.0,-682.50,-358.75,1,94.239,
01/01/2000,01:02:01.97,21.72,-56.49,-992.35,43.75,-708.75,-358.75,1,94.243,
01/01/2000,01:02:01.98,21.84,-56.61,-992.35,70.0,-682.50,-280.0,1,94.247,
01/01/2000,01:02:01.99,21.96,-56.61,-992.35,52.50,-682.50,-183.75,1,94.251,
01/01/2000,01:02:02.00,21.96,-56.85,-992.59,192.50,-682.50,-437.50,1,94.254,
01/01/2000,01:02:02.01,22.08,-56.73,-992.59,113.75,-726.25,-393.75,1,94.258,
01/01/2000,01:02:02.02,22.20,-56.61,-992.59,262.50,-586.25,-350.0,1,94.262,
01/01/2000,01:02:02.03,22.20,-56.61,-992.47,218.75,-700.0,-297.50,1,94.266,
01/01/2000,01:02:02.04,22.08,-56.61,-992.71,148.75,-577.50,-490.0,1,94.270,
01/01/2000,01:02:02.05,22.20,-56.85,-992.84,201.25,-647.50,-350.0,1,94.274,
01/01/2000,01:02:02.07,22.20,-56.85,-992.84,96.25,-708.75,-376.25,1,94.214,
01/01/2000,01:02:02.08,21.96,-56.85,-992.71,61.25,-743.75,-341.25,1,94.218,
01/01/2000,01:02:02.09,21.72,-56.97,-992.35,306.25,-717.50,-332.50,1,94.222,
01/01/2000,01:02:02.10,21.72,-56.61,-992.47,122.50,-621.25,-350.0,1,94.226,
01/01/2000,01:02:02.11,21.96,-56.61,-992.71,175.0,-638.75,-358.75,1,94.229,
01/01/2000,01:02:02.12,21.84,-56.61,-992.84,148.75,-612.50,-288.75,1,94.233,
01/01/2000,01:02:02.13,21.72,-56.61,-992.84,175.0,-761.25,-341.25,1,94.237,
01/01/2000,01:02:02.14,21.96,-56.61,-992.59,166.25,-743.75,-350.0,1,94.241,
01/01/2000,01:02:02.15,21.84,-56.36,-992.59,105.0,-778.75,-288.75,1,94.245,
01/01/2000,01:02:02.16,21.96,-56.49,-992.84,131.25,-691.25,-367.50,1,94.249,
01/01/2000,01:02:02.17,21.84,-56.61,-993.08,315.0,-656.25,-332.50,1,94.253,
01/01/2000,01:02:02.18,21.96,-56.36,-992.96,166.25,-691.25,-306.25,1,94.257,
01/01/2000,01:02:02.20,21.96,-56.49,-992.47,218.75,-647.50,-385.0,1,94.197,
01/01/2000,01:02:02.21,21.84,-56.36,-992.47,61.25,-647.50,-341.25,1,94.201,
01/01/2000,01:02:02.22,21.96,-56.49,-992.47,78.75,-761.25,-393.75,1,94.205,
01/01/2000,01:02:02.23,21.84,-56.36,-992.59,105.0,-673.75,-288.75,1,94.209,
01/01/2000,01:02:02.24,21.72,-56.36,-992.35,210.0,-621.25,-323.75,1,94.213,
01/01/2000,01:02:02.25,21.84,-56.36,-992.35,218.75,-682.50,-376.25,1,94.217,
01/01/2000,01:02:02.26,21.84,-56.12,-992.59,157.50,-708.75,-236.25,1,94.220,
01/01/2000,01:02:02.27,21.84,-56.36,-992.71,78.75,-638.75,-498.75,1,94.224,
01/01/2000,01:02:02.28,21.84,-56.61,-992.84,175.0,-735.0,-376.25,1,94.228,
01/01/2000,01:02:02.29,21.84,-56.61,-992.59,253.75,-647.50,-315.0,1,94.232,
01/01/2000,01:02:02.30,22.08,-56.49,-992.23,113.75,-700.0,-297.50,1,94.236,
01/01/2000,01:02:02.31,22.20,-56.61,-992.10,96.25,-656.25,-323.75,1,94.240,
01/01/2000,01:02:02.32,21.96,-56.61,-992.35,175.0,-735.0,-227.50,1,94.244,
01/01/2000,01:02:02.33,21.96,-56.73,-992.35,113.75,-621.25,-367.50,1,94.247,
01/01/2000,01:02:02.34,21.96,-56.61,-992.35,122.50,-726.25,-350.0,1,94.188,
01/01/2000,01:02:02.35,21.96,-56.49,-992.10,17.50,-778.75,-315.0,1,94.192,
01/01/2000,01:02:02.36,21.59,-56.49,-992.10,175.0,-726.25,-358.75,1,94.196,
01/01/2000,01:02:02.37,21.72,-56.61,-992.10,183.75,-770.0,-350.0,1,94.200,
01/01/2000,01:02:02.38,21.84,-56.49,-992.35,166.25,-717.50,-402.50,1,94.204,
01/01/2000,01:02:02.39,21.84,-56.36,-992.47,52.50,-630.0,-245.0,1,94.208,
01/01/2000,01:02:02.40,21.72,-56.36,-992.10,245.0,-673.75,-437.50,1,94.212,
01/01/2000,01:02:02.42,21.72,-56.36,-991.86,218.75,-735.0,-455.0,1,94.215,
01/01/2000,01:02:02.43,21.96,-56.24,-992.23,8.75,-656.25,-253.75,1,94.219,
01/01/2000,01:02:02.44,21.96,-56.36,-992.47,87.50,-805.0,-411.25,1,94.223,
01/01/2000,01:02:02.45,21.84,-56.49,-992.59,175.0,-717.50,-332.50,1,94.227,
01/01/2000,01:02:02.46,21.72,-56.49,-992.47,201.25,-761.25,-358.75,1,94.231,
01/01/2000,01:02:02.47,21.84,-56.36,-992.23,105.0,-656.25,-253.75,1,94.235,
01/01/2000,01:02:02.48,21.84,-56.36,-992.35,192.50,-630.0,-280.0,1,94.238,
01/01/2000,01:02:02.49,21.84,-56.36,-992.59,166.25,-708.75,-358.75,1,94.242,
01/01/2000,01:02:02.50,21.96,-56.36,-992.47,166.25,-577.50,-428.75,1,94.246,
01/01/2000,01:02:02.51,21.96,-56.36,-992.35,201.25,-595.0,-262.50,1,94.250,
01/01/2000,01:02:02.52,21.96,-56.36,-992.47,166.25,-665.0,-297.50,1,94.254,
01/01/2000,01:02:02.53,22.20,-56.36,-992.47,227.50,-656.25,-271.25,1,94.257,
01/01/2000,01:02:02.54,22.33,-56.36,-992.47,96.25,-612.50,-402.50,1,94.261,
01/01/2000,01:02:02.56,22.33,-56.85,-992.59,175.0,-752.50,-315.0,1,94.203,
01/01/2000,01:02:02.57,22.20,-56.85,-992.59,166.25,-726.25,-516.25,1,94.207,
01/01/2000,01:02:02.58,22.33,-56.73,-992.47,183.75,-700.0,-288.75,1,94.211,
01/01/2000,01:02:02.59,22.45,-56.61,-992.47,122.50,-691.25,-367.50,1,94.214,
01/01/2000,01:02:02.60,22.45,-56.61,-992.47,78.75,-700.0,-245.0,1,94.218,
01/01/2000,01:02:02.61,22.33,-56.73,-992.59,157.50,-638.75,-341.25,1,94.222,
01/01/2000,01:02:02.62,22.20,-56.85,-992.59,148.75,-735.0,-367.50,1,94.226,
01/01/2000,01:02:02.63,22.08,-56.73,-992.47,323.75,-673.75,-323.75,1,94.230,
01/01/2000,01:02:02.64,22.08,-56.49,-992.47,148.75,-822.50,-393.75,1,94.233,
01/01/2000,01:02:02.65,21.96,-56.49,-992.47,218.75,-612.50,-306.25,1,94.237,
01/01/2000,01:02:02.66,21.96,-56.61,-992.35,148.75,-700.0,-341.25,1,94.241,
01/01/2000,01:02:02.67,21.96,-56.61,-992.59,157.50,-682.50,-323.75,1,94.245,
01/01/2000,01:02:02.68,21.96,-56.61,-992.59,122.50,-603.75,-350.0,1,94.248,
01/01/2000,01:02:02.69,22.20,-56.36,-992.59,297.50,-665.0,-315.0,1,94.191,
01/01/2000,01:02:02.71,22.20,-56.49,-992.47,70.0,-621.25,-280.0,1,94.194,
01/01/2000,01:02:02.72,21.96,-56.61,-992.59,61.25,-761.25,-428.75,1,94.198,
01/01/2000,01:02:02.73,21.96,-56.61,-992.71,166.25,-770.0,-463.75,1,94.202,
01/01/2000,01:02:02.74,22.08,-56.49,-992.47,253.75,-673.75,-280.0,1,94.206,
01/01/2000,01:02:02.75,22.20,-56.49,-992.47,166.25,-770.0,-358.75,1,94.209,
01/01/2000,01:02:02.76,22.08,-56.85,-992.47,183.75,-647.50,-262.50,1,94.213,
01/01/2000,01:02:02.77,21.96,-56.85,-992.47,113.75,-673.75,-288.75,1,94.217,
01/01/2000,01:02:02.78,22.20,-56.73,-992.59,175.0,-726.25,-428.75,1,94.221,
01/01/2000,01:02:02.79,22.33,-56.61,-992.84,140.0,-621.25,-201.25,1,94.225,
01/01/2000,01:02:02.80,22.33,-56.61,-992.59,245.0,-682.50,-350.0,1,94.228,
01/01/2000,01:02:02.81,22.20,-56.61,-992.47,131.25,-700.0,-402.50,1,94.232,
01/01/2000,01:02:02.82,22.20,-56.61,-992.35,175.0,-700.0,-288.75,1,94.236,
01/01/2000,01:02:02.83,22.33,-56.73,-992.59,140.0,-726.25,-315.0,1,94.239,
01/01/2000,01:02:02.84,22.33,-56.85,-992.84,288.75,-717.50,-393.75,1,94.243,
01/01/2000,01:02:02.85,22.33,-56.73,-992.71,175.0,-665.0,-385.0,1,94.247,
01/01/2000,01:02:02.86,22.20,-56.61,-992.59,236.25,-743.75,-385.0,1,94.251,
01/01/2000,01:02:02.87,22.08,-56.49,-992.59,78.75,-778.75,-262.50,1,94.254,
01/01/2000,01:02:02.88,22.08,-56.61,-992.84,113.75,-647.50,-253.75,1,94.258,
01/01/2000,01:02:02.89,22.20,-56.61,-992.84,105.0,-770.0,-280.0,1,94.201,
01/01/2000,01:02:02.91,22.08,-56.61,-992.59,-8.75,-700.0,-350.0,1,94.205,
01/01/2000,01:02:02.92,22.08,-56.61,-992.35,227.50,-621.25,-376.25,1,94.208,
01/01/2000,01:02:02.93,21.96,-56.49,-992.47,17.50,-638.75,-402.50,1,94.212,
01/01/2000,01:02:02.94,21.96,-56.61,-992.59,70.0,-586.25,-358.75,1,94.216,
01/01/2000,01:02:02.95,22.20,-56.61,-992.59,157.50,-700.0,-385.0,1,94.220,
01/01/2000,01:02:02.96,22.08,-56.61,-992.47,262.50,-735.0,-271.25,1,94.223,
01/01/2000,01:02:02.97,21.96,-56.61,-992.47,210.0,-778.75,-376.25,1,94.227,
01/01/2000,01:02:02.98,22.20,-56.61,-992.47,61.25,-656.25,-218.75,1,94.231,
01/01/2000,01:02:02.99,22.33,-56.61,-992.47,131.25,-717.50,-236.25,1,94.234,
01/01/2000,01:02:03.00,22.08,-56.85,-992.47,175.0,-743.75,-411.25,1,94.238,
01/01/2000,01:02:03.01,22.08,-56.85,-992.47,113.75,-682.50,-446.25,1,94.242,
01/01/2000,01:02:03.02,22.20,-56.61,-992.59,280.0,-717.50,-332.50,1,94.246,
01/01/2000,01:02:03.03,22.33,-56.49,-992.59,201.25,-586.25,-350.0,1,94.249,
01/01/2000,01:02:03.04,22.20,-56.73,-992.59,131.25,-691.25,-332.50,1,94.253,
01/01/2000,01:02:03.05,21.96,-56.85,-992.59,148.75,-647.50,-218.75,1,94.196,
01/01/2000,01:02:03.06,21.96,-56.97,-992.59,87.50,-735.0,-358.75,1,94.200,
01/01/2000,01:02:03.07,21.96,-56.85,-992.47,26.25,-735.0,-262.50,1,94.204,
01/01/2000,01:02:03.08,21.96,-56.85,-992.35,297.50,-516.25,-341.25,1,94.208,
01/01/2000,01:02:03.09,21.84,-56.73,-992.23,210.0,-726.25,-262.50,1,94.211,
01/01/2000,01:02:03.10,21.96,-56.73,-992.35,87.50,-665.0,-393.75,1,94.215,
01/01/2000,01:02:03.12,22.08,-56.85,-992.59,113.75,-638.75,-315.0,1,94.219,
01/01/2000,01:02:03.13,21.96,-56.73,-992.59,78.75,-691.25,-262.50,1,94.222,
01/01/2000,01:02:03.14,21.96,-56.73,-992.59,218.75,-752.50,-402.50,1,94.226,
01/01/2000,01:02:03.15,21.96,-56.61,-992.59,61.25,-805.0,-306.25,1,94.230,
01/01/2000,01:02:03.16,21.96,-56.61,-992.71,148.75,-735.0,-393.75,1,94.233,
01/01/2000,01:02:03.17,21.96,-56.61,-992.71,70.0,-630.0,-350.0,1,94.237,
01/01/2000,01:02:03.18,22.20,-56.73,-992.71,122.50,-621.25,-236.25,1,94.241,
01/01/2000,01:02:03.19,22.08,-56.85,-992.59,96.25,-691.25,-463.75,1,94.244,
01/01/2000,01:02:03.20,22.08,-56.73,-992.47,17.50,-822.50,-341.25,1,94.188,
01/01/2000,01:02:03.22,22.08,-56.61,-992.59,201.25,-656.25,-332.50,1,94.192,
01/01/2000,01:02:03.23,22.08,-56.61,-992.59,192.50,-700.0,-323.75,1,94.196,
01/01/2000,01:02:03.24,22.20,-56.61,-992.35,148.75,-735.0,-367.50,1,94.199,
01/01/2000,01:02:03.25,22.08,-56.61,-992.35,157.50,-743.75,-323.75,1,94.203,
01/01/2000,01:02:03.26,22.08,-56.49,-992.35,183.75,-647.50,-428.75,1,94.207,
01/01/2000,01:02:03.27,21.96,-56.61,-992.47,175.0,-682.50,-393.75,1,94.210,
01/01/2000,01:02:03.28,21.96,-56.61,-992.59,183.75,-743.75,-271.25,1,94.214,
01/01/2000,01:02:03.29,22.08,-56.49,-992.47,140.0,-621.25,-367.50,1,94.217,
01/01/2000,01:02:03.30,22.08,-56.61,-992.35,245.0,-726.25,-280.0,1,94.221,
01/01/2000,01:02:03.31,21.96,-56.61,-992.35,17.50,-840.0,-350.0,1,94.225,
01/01/2000,01:02:03.32,22.08,-56.61,-992.35,105.0,-673.75,-376.25,1,94.228,
01/01/2000,01:02:03.33,21.96,-56.49,-992.47,253.75,-691.25,-297.50,1,94.232,
01/01/2000,01:02:03.34,22.08,-56.36,-992.59,52.50,-708.75,-271.25,1,94.236,
01/01/2000,01:02:03.35,21.96,-56.36,-992.47,236.25,-726.25,-297.50,1,94.239,
01/01/2000,01:02:03.36,21.96,-56.49,-992.35,192.50,-656.25,-358.75,1,94.243,
01/01/2000,01:02:03.37,21.96,-56.49,-992.35,105.0,-735.0,-341.25,1,94.246,
01/01/2000,01:02:03.38,22.08,-56.61,-992.35,157.50,-700.0,-306.25,1,94.250,
01/01/2000,01:02:03.39,21.96,-56.73,-992.10,166.25,-577.50,-428.75,1,94.254,
01/01/2000,01:02:03.40,21.96,-56.73,-992.10,113.75,-656.25,-297.50,1,94.198,
01/01/2000,01:02:03.41,21.96,-56.61,-992.23,210.0,-665.0,-350.0,1,94.202,
01/01/2000,01:02:03.42,22.08,-56.61,-992.35,166.25,-656.25,-367.50,1,94.206,
01/01/2000,01:02:03.43,22.20,-56.61,-992.35,140.0,-691.25,-358.75,1,94.209,
01/01/2000,01:02:03.44,22.08,-56.85,-992.35,166.25,-787.50,-481.25,1,94.213,
01/01/2000,01:02:03.45,21.96,-56.85,-992.23,140.0,-726.25,-315.0,1,94.216,
01/01/2000,01:02:03.47,22.08,-56.85,-992.23,157.50,-752.50,-385.0,1,94.220,
01/01/2000,01:02:03.48,22.08,-56.73,-992.23,210.0,-726.25,-350.0,1,94.224,
01/01/2000,01:02:03.49,21.96,-56.85,-992.35,192.50,-673.75,-367.50,1,94.227,
01/01/2000,01:02:03.50,21.96,-56.73,-992.35,105.0,-700.0,-358.75,1,94.231,
01/01/2000,01:02:03.51,21.96,-56.85,-992.47,183.75,-717.50,-350.0,1,94.234,
01/01/2000,01:02:03.52,22.08,-56.85,-992.47,210.0,-726.25,-306.25,1,94.238,
01/01/2000,01:02:03.53,22.08,-56.73,-992.35,192.50,-708.75,-315.0,1,94.241,
01/01/2000,01:02:03.54,22.08,-56.61,-992.10,140.0,-743.75,-402.50,1,94.245,
01/01/2000,01:02:03.55,21.96,-56.73,-992.23,140.0,-770.0,-350.0,1,94.249,
01/01/2000,01:02:03.56,21.96,-56.85,-992.35,175.0,-787.50,-253.75,1,94.252,
01/01/2000,01:02:03.57,22.08,-56.85,-992.35,122.50,-743.75,-385.0,1,94.256,
01/01/2000,01:02:03.58,21.96,-56.85,-992.35,227.50,-743.75,-402.50,1,94.259,
01/01/2000,01:02:03.59,21.84,-56.85,-992.10,297.50,-743.75,-288.75,1,94.263,
01/01/2000,01:02:03.60,21.96,-56.61,-992.23,236.25,-665.0,-428.75,1,94.266,
01/01/2000,01:02:03.61,22.20,-56.73,-992.59,253.75,-726.25,-367.50,1,94.212,
01/01/2000,01:02:03.62,21.96,-56.61,-992.47,78.75,-673.75,-323.75,1,94.215,
01/01/2000,01:02:03.63,22.08,-56.61,-992.47,236.25,-691.25,-472.50,1,94.219,
01/01/2000,01:02:03.64,22.08,-56.61,-992.47,140.0,-726.25,-253.75,1,94.222,
01/01/2000,01:02:03.65,22.20,-56.61,-992.47,131.25,-656.25,-323.75,1,94.226,
01/01/2000,01:02:03.67,22.08,-56.61,-992.59,227.50,-647.50,-245.0,1,94.230,
01/01/2000,01:02:03.68,21.84,-56.49,-992.35,218.75,-673.75,-227.50,1,94.233,
01/01/2000,01:02:03.69,21.84,-56.61,-992.35,96.25,-603.75,-376.25,1,94.237,
01/01/2000,01:02:03.70,21.96,-56.61,-992.35,78.75,-560.0,-297.50,1,94.240,
01/01/2000,01:02:03.71,21.96,-56.61,-992.35,122.50,-717.50,-297.50,1,94.244,
01/01/2000,01:02:03.72,21.96,-56.73,-992.35,175.0,-647.50,-306.25,1,94.190,
01/01/2000,01:02:03.73,21.84,-56.85,-992.35,175.0,-700.0,-306.25,1,94.193,
01/01/2000,01:02:03.74,21.84,-56.85,-992.35,201.25,-708.75,-376.25,1,94.197,
01/01/2000,01:02:03.76,22.20,-56.85,-992.35,157.50,-796.25,-446.25,1,94.200,
01/01/2000,01:02:03.77,22.08,-56.85,-992.35,253.75,-673.75,-306.25,1,94.204,
01/01/2000,01:02:03.78,22.08,-56.85,-992.35,157.50,-682.50,-315.0,1,94.207,
01/01/2000,01:02:03.79,21.96,-56.85,-992.35,157.50,-761.25,-350.0,1,94.211,
01/01/2000,01:02:03.80,21.96,-56.61,-992.23,157.50,-743.75,-437.50,1,94.214,
01/01/2000,01:02:03.81,21.96,-56.61,-992.23,61.25,-735.0,-323.75,1,94.218,
01/01/2000,01:02:03.82,21.96,-56.73,-992.47,96.25,-708.75,-385.0,1,94.221,
01/01/2000,01:02:03.83,22.20,-56.61,-992.71,166.25,-665.0,-498.75,1,94.225,
01/01/2000,01:02:03.84,22.08,-56.61,-992.59,218.75,-682.50,-315.0,1,94.228,
01/01/2000,01:02:03.85,21.96,-56.73,-992.47,140.0,-726.25,-297.50,1,94.232,
01/01/2000,01:02:03.86,21.96,-56.85,-992.23,280.0,-743.75,-420.0,1,94.235,
01/01/2000,01:02:03.87,21.84,-56.85,-992.23,192.50,-770.0,-315.0,1,94.239,
01/01/2000,01:02:03.88,21.84,-56.73,-992.35,78.75,-656.25,-315.0,1,94.242,
01/01/2000,01:02:03.89,21.84,-56.73,-992.47,227.50,-638.75,-507.50,1,94.189,
01/01/2000,01:02:03.90,21.72,-56.85,-992.47,201.25,-656.25,-236.25,1,94.192,
01/01/2000,01:02:03.91,21.72,-56.85,-992.47,175.0,-761.25,-358.75,1,94.196,
01/01/2000,01:02:03.92,21.96,-56.73,-992.47,78.75,-700.0,-341.25,1,94.199,
01/01/2000,01:02:03.93,21.96,-56.85,-992.47,175.0,-717.50,-350.0,1,94.203,
01/01/2000,01:02:03.94,21.84,-56.73,-992.47,183.75,-638.75,-315.0,1,94.206,
01/01/2000,01:02:03.96,21.72,-56.85,-992.47,183.75,-612.50,-420.0,1,94.210,
01/01/2000,01:02:03.97,21.72,-56.73,-992.47,140.0,-673.75,-446.25,1,94.213,
01/01/2000,01:02:03.98,21.72,-56.73,-992.47,105.0,-673.75,-393.75,1,94.217,
01/01/2000,01:02:03.99,21.72,-56.85,-992.35,105.0,-647.50,-315.0,1,94.220,
01/01/2000,01:02:04.00,21.72,-56.85,-992.59,332.50,-700.0,-358.75,1,94.224,
01/01/2000,01:02:04.01,21.72,-56.85,-992.84,87.50,-761.25,-288.75,1,94.227,
01/01/2000,01:02:04.02,21.84,-56.85,-992.84,157.50,-647.50,-420.0,1,94.231,
01/01/2000,01:02:04.03,21.72,-56.73,-992.71,70.0,-656.25,-323.75,1,94.234,
01/01/2000,01:02:04.04,21.84,-56.61,-992.59,70.0,-656.25,-280.0,1,94.181,
01/01/2000,01:02:04.05,21.96,-56.61,-992.59,-17.50,-735.0,-376.25,1,94.185,
01/01/2000,01:02:04.06,21.96,-56.85,-992.59,157.50,-691.25,-297.50,1,94.188,
01/01/2000,01:02:04.07,21.96,-56.73,-992.59,192.50,-761.25,-393.75,1,94.192,
01/01/2000,01:02:04.08,21.96,-56.61,-992.59,157.50,-595.0,-341.25,1,94.195,
01/01/2000,01:02:04.09,22.08,-56.61,-992.47,297.50,-638.75,-350.0,1,94.199,
01/01/2000,01:02:04.11,22.08,-56.49,-992.35,210.0,-691.25,-306.25,1,94.202,
01/01/2000,01:02:04.12,22.08,-56.49,-992.35,201.25,-586.25,-350.0,1,94.205,
