rtcDate,rtcTime,aX,aY,aZ,gX,gY,gZ,dataRdy,output_Hz,
01/01/2000,00:43:26.68,19.15,-47.09,-845.22,271.25,-665.0,-315.0,1,0.0,
01/01/2000,00:43:26.70,20.01,-49.17,-878.77,183.75,-796.25,-367.50,1,100.0,
01/01/2000,00:43:26.71,20.25,-50.02,-892.55,105.0,-621.25,-358.75,1,100.0,
01/01/2000,00:43:26.72,20.62,-51.00,-910.36,140.0,-638.75,-420.0,1,100.0,
01/01/2000,00:43:26.73,20.98,-51.73,-920.37,43.75,-656.25,-306.25,1,100.0,
01/01/2000,00:43:26.74,21.23,-52.22,-929.27,183.75,-630.0,-288.75,1,100.0,
01/01/2000,00:43:26.75,21.23,-52.58,-936.96,87.50,-621.25,-253.75,1,100.0,
01/01/2000,00:43:26.76,21.72,-53.19,-946.96,227.50,-691.25,-463.75,1,100.0,
01/01/2000,00:43:26.77,21.72,-53.56,-952.58,157.50,-638.75,-315.0,1,100.0,
01/01/2000,00:43:26.78,21.72,-53.92,-957.58,236.25,-603.75,-376.25,1,100.0,
01/01/2000,00:43:26.79,21.72,-54.17,-961.73,131.25,-770.0,-402.50,1,100.0,
01/01/2000,00:43:26.80,21.84,-54.41,-967.22,96.25,-708.75,-323.75,1,100.0,
01/01/2000,00:43:26.81,22.08,-54.53,-970.39,148.75,-612.50,-332.50,1,100.0,
01/01/2000,00:43:26.82,22.20,-54.53,-973.32,280.0,-700.0,-253.75,1,100.0,
01/01/2000,00:43:26.83,22.08,-54.78,-975.76,253.75,-665.0,-262.50,1,100.0,
01/01/2000,00:43:26.84,22.08,-55.14,-978.93,122.50,-708.75,-315.0,1,94.118,
01/01/2000,00:43:26.85,21.96,-55.27,-980.39,201.25,-647.50,-280.0,1,100.0,
01/01/2000,00:43:26.86,22.20,-55.51,-981.98,245.0,-700.0,-332.50,1,94.737,
01/01/2000,00:43:26.87,22.20,-55.39,-983.32,183.75,-665.0,-218.75,1,95.0,
01/01/2000,00:43:26.88,22.20,-55.63,-985.03,8.75,-813.75,-411.25,1,95.238,
01/01/2000,00:43:26.89,21.96,-55.63,-986.13,131.25,-691.25,-323.75,1,95.455,
01/01/2000,00:43:26.90,22.08,-55.63,-987.22,157.50,-778.75,-323.75,1,95.652,
01/01/2000,00:43:26.91,22.20,-55.63,-987.96,245.0,-787.50,-393.75,1,95.833,
01/01/2000,00:43:26.92,22.33,-55.63,-988.69,148.75,-656.25,-350.0,1,96.0,
01/01/2000,00:43:26.93,22.33,-55.63,-988.93,131.25,-700.0,-341.25,1,96.154,
01/01/2000,00:43:26.94,22.20,-55.88,-989.42,183.75,-682.50,-341.25,1,96.296,
01/01/2000,00:43:26.95,22.20,-55.75,-989.91,113.75,-612.50,-385.0,1,96.429,
01/01/2000,00:43:26.97,22.20,-55.88,-990.64,175.0,-700.0,-262.50,1,96.552,
01/01/2000,00:43:26.98,21.96,-55.63,-991.01,148.75,-612.50,-218.75,1,96.667,
01/01/2000,00:43:26.99,22.08,-55.75,-991.13,183.75,-638.75,-245.0,1,96.774,
01/01/2000,00:43:27.00,22.20,-55.88,-991.25,70.0,-682.50,-402.50,1,96.875,
01/01/2000,00:43:27.01,22.20,-55.88,-991.49,201.25,-665.0,-280.0,1,96.970,
01/01/2000,00:43:27.02,22.20,-56.12,-991.62,166.25,-770.0,-420.0,1,97.059,
01/01/2000,00:43:27.03,22.08,-56.00,-992.10,192.50,-700.0,-323.75,1,97.143,
01/01/2000,00:43:27.04,22.20,-55.63,-992.23,175.0,-822.50,-323.75,1,97.222,
01/01/2000,00:43:27.05,21.96,-55.63,-992.10,78.75,-656.25,-253.75,1,97.297,
01/01/2000,00:43:27.06,22.20,-55.63,-992.23,175.0,-743.75,-350.0,1,97.368,
01/01/2000,00:43:27.07,22.20,-55.75,-992.35,271.25,-691.25,-350.0,1,97.436,
01/01/2000,00:43:27.08,22.20,-55.88,-992.59,157.50,-726.25,-420.0,1,97.500,
01/01/2000,00:43:27.09,22.20,-55.75,-992.71,148.75,-708.75,-350.0,1,97.561,
01/01/2000,00:43:27.10,22.08,-55.51,-992.84,78.75,-708.75,-288.75,1,95.349,
01/01/2000,00:43:27.12,21.96,-55.51,-992.96,113.75,-752.50,-341.25,1,95.455,
01/01/2000,00:43:27.13,21.96,-55.63,-993.08,61.25,-656.25,-350.0,1,95.556,
01/01/2000,00:43:27.14,22.08,-55.88,-992.96,61.25,-700.0,-341.25,1,95.652,
01/01/2000,00:43:27.15,22.33,-56.00,-992.96,192.50,-743.75,-297.50,1,95.745,
01/01/2000,00:43:27.16,22.20,-56.00,-992.84,148.75,-735.0,-297.50,1,95.833,
01/01/2000,00:43:27.17,21.96,-55.63,-992.96,52.50,-612.50,-315.0,1,95.918,
01/01/2000,00:43:27.18,22.33,-55.88,-992.96,148.75,-647.50,-350.0,1,96.0,
01/01/2000,00:43:27.19,22.45,-55.51,-993.08,140.0,-656.25,-253.75,1,96.078,
01/01/2000,00:43:27.20,22.57,-56.00,-992.84,78.75,-822.50,-376.25,1,94.340,
01/01/2000,00:43:27.21,22.08,-56.12,-993.08,175.0,-647.50,-437.50,1,94.444,
01/01/2000,00:43:27.22,22.20,-55.88,-993.32,210.0,-761.25,-455.0,1,94.545,
01/01/2000,00:43:27.23,22.45,-55.88,-993.32,192.50,-621.25,-402.50,1,94.643,
01/01/2000,00:43:27.25,22.45,-55.51,-993.20,78.75,-770.0,-166.25,1,94.737,
01/01/2000,00:43:27.26,22.45,-56.00,-992.84,52.50,-647.50,-428.75,1,94.828,
01/01/2000,00:43:27.27,22.20,-56.00,-992.84,105.0,-787.50,-393.75,1,94.915,
01/01/2000,00:43:27.28,22.20,-56.00,-993.08,183.75,-761.25,-332.50,1,95.0,
01/01/2000,00:43:27.29,22.45,-56.00,-993.32,236.25,-717.50,-385.0,1,95.082,
01/01/2000,00:43:27.30,22.33,-55.75,-993.20,78.75,-805.0,-297.50,1,95.161,
01/01/2000,00:43:27.31,22.45,-55.63,-992.96,201.25,-743.75,-323.75,1,95.238,
01/01/2000,00:43:27.32,22.45,-55.88,-992.84,70.0,-665.0,-341.25,1,95.313,
01/01/2000,00:43:27.33,22.45,-55.75,-993.08,105.0,-673.75,-376.25,1,95.385,
01/01/2000,00:43:27.34,22.33,-56.00,-993.20,306.25,-612.50,-402.50,1,95.455,
01/01/2000,00:43:27.35,22.33,-55.63,-993.08,140.0,-726.25,-437.50,1,95.522,
01/01/2000,00:43:27.36,22.33,-55.51,-992.96,166.25,-621.25,-201.25,1,95.588,
01/01/2000,00:43:27.37,22.20,-55.51,-992.84,175.0,-665.0,-332.50,1,95.652,
01/01/2000,00:43:27.38,22.08,-55.51,-992.84,245.0,-778.75,-358.75,1,95.714,
01/01/2000,00:43:27.39,22.33,-55.63,-993.08,157.50,-647.50,-306.25,1,95.775,
01/01/2000,00:43:27.40,22.45,-55.51,-993.20,148.75,-630.0,-358.75,1,95.833,
01/01/2000,00:43:27.41,22.33,-55.63,-993.08,87.50,-778.75,-446.25,1,95.890,
01/01/2000,00:43:27.42,22.20,-55.75,-992.59,166.25,-647.50,-306.25,1,95.946,
01/01/2000,00:43:27.43,22.33,-55.88,-992.59,175.0,-752.50,-402.50,1,94.737,
01/01/2000,00:43:27.44,22.45,-56.00,-992.71,87.50,-577.50,-420.0,1,96.053,
01/01/2000,00:43:27.46,22.33,-55.75,-992.84,-8.75,-743.75,-323.75,1,94.872,
01/01/2000,00:43:27.47,22.20,-55.75,-992.59,122.50,-717.50,-437.50,1,94.937,
01/01/2000,00:43:27.48,22.33,-55.63,-992.35,122.50,-656.25,-306.25,1,95.0,
01/01/2000,00:43:27.49,22.33,-55.88,-992.59,227.50,-542.50,-332.50,1,95.062,
01/01/2000,00:43:27.50,22.45,-55.88,-992.96,236.25,-796.25,-315.0,1,95.122,
01/01/2000,00:43:27.51,22.57,-56.00,-992.84,236.25,-673.75,-358.75,1,95.181,
01/01/2000,00:43:27.52,22.69,-55.88,-992.84,131.25,-700.0,-332.50,1,95.238,
01/01/2000,00:43:27.53,22.45,-55.88,-992.71,131.25,-743.75,-271.25,1,95.294,
01/01/2000,00:43:27.54,22.45,-55.88,-992.84,87.50,-638.75,-288.75,1,95.349,
01/01/2000,00:43:27.55,22.33,-56.12,-992.96,175.0,-621.25,-358.75,1,95.402,
01/01/2000,00:43:27.56,22.20,-56.12,-992.96,122.50,-647.50,-253.75,1,95.455,
01/01/2000,00:43:27.57,21.96,-56.12,-992.84,306.25,-691.25,-411.25,1,95.506,
01/01/2000,00:43:27.58,22.08,-56.12,-992.71,236.25,-857.50,-437.50,1,95.556,
01/01/2000,00:43:27.59,22.33,-56.00,-992.84,192.50,-743.75,-271.25,1,95.604,
01/01/2000,00:43:27.60,22.33,-56.12,-993.08,236.25,-638.75,-516.25,1,94.624,
01/01/2000,00:43:27.61,22.08,-56.00,-993.32,148.75,-656.25,-358.75,1,94.681,
01/01/2000,00:43:27.62,22.08,-55.88,-993.08,148.75,-708.75,-358.75,1,94.737,
01/01/2000,00:43:27.63,22.20,-55.75,-992.96,52.50,-665.0,-332.50,1,94.792,
01/01/2000,00:43:27.64,22.33,-55.88,-992.71,192.50,-761.25,-332.50,1,94.845,
01/01/2000,00:43:27.65,22.20,-56.12,-993.08,210.0,-700.0,-358.75,1,94.898,
01/01/2000,00:43:27.67,22.20,-56.12,-993.20,78.75,-665.0,-393.75,1,94.949,
01/01/2000,00:43:27.68,22.20,-55.88,-993.08,78.75,-691.25,-227.50,1,95.0,
01/01/2000,00:43:27.69,22.33,-55.75,-992.96,183.75,-682.50,-358.75,1,95.050,
01/01/2000,00:43:27.70,22.33,-55.63,-992.84,157.50,-682.50,-227.50,1,95.098,
01/01/2000,00:43:27.71,22.33,-55.75,-992.84,227.50,-708.75,-306.25,1,95.146,
01/01/2000,00:43:27.72,22.45,-56.00,-992.96,105.0,-612.50,-420.0,1,94.286,
01/01/2000,00:43:27.73,22.45,-56.00,-992.96,52.50,-673.75,-332.50,1,94.340,
01/01/2000,00:43:27.74,22.33,-55.88,-992.84,148.75,-665.0,-210.0,1,94.393,
01/01/2000,00:43:27.75,22.08,-55.63,-992.84,113.75,-682.50,-376.25,1,94.444,
01/01/2000,00:43:27.76,22.08,-55.88,-992.96,236.25,-735.0,-280.0,1,94.495,
01/01/2000,00:43:27.77,22.20,-55.88,-992.84,78.75,-673.75,-315.0,1,94.545,
01/01/2000,00:43:27.78,22.20,-56.00,-992.96,210.0,-805.0,-402.50,1,94.595,
01/01/2000,00:43:27.79,22.20,-56.00,-992.71,175.0,-612.50,-385.0,1,94.643,
01/01/2000,00:43:27.80,22.20,-55.88,-992.59,218.75,-656.25,-350.0,1,94.690,
01/01/2000,00:43:27.82,22.33,-56.00,-992.71,201.25,-656.25,-236.25,1,94.737,
01/01/2000,00:43:27.83,22.20,-55.88,-992.84,201.25,-673.75,-323.75,1,94.783,
01/01/2000,00:43:27.84,22.45,-55.88,-992.84,157.50,-673.75,-271.25,1,94.828,
01/01/2000,00:43:27.85,22.45,-56.12,-992.84,148.75,-682.50,-306.25,1,94.872,
01/01/2000,00:43:27.86,22.45,-56.00,-992.84,157.50,-665.0,-297.50,1,94.915,
01/01/2000,00:43:27.87,22.33,-56.00,-992.59,131.25,-743.75,-341.25,1,94.958,
01/01/2000,00:43:27.88,22.33,-55.88,-992.71,183.75,-630.0,-385.0,1,95.0,
01/01/2000,00:43:27.89,22.20,-55.88,-992.84,218.75,-761.25,-227.50,1,95.041,
01/01/2000,00:43:27.90,22.20,-55.88,-992.84,157.50,-682.50,-341.25,1,95.082,
01/01/2000,00:43:27.91,22.20,-55.88,-992.59,78.75,-726.25,-367.50,1,95.122,
01/01/2000,00:43:27.92,22.33,-55.88,-992.59,201.25,-857.50,-385.0,1,95.161,
01/01/2000,00:43:27.93,22.33,-56.00,-992.84,245.0,-691.25,-280.0,1,95.200,
01/01/2000,00:43:27.94,22.33,-56.12,-992.84,131.25,-700.0,-367.50,1,95.238,
01/01/2000,00:43:27.95,22.33,-56.00,-992.84,157.50,-743.75,-411.25,1,94.531,
01/01/2000,00:43:27.96,22.33,-55.88,-992.84,78.75,-682.50,-350.0,1,94.574,
01/01/2000,00:43:27.97,22.20,-55.88,-992.71,236.25,-805.0,-367.50,1,94.615,
01/01/2000,00:43:27.98,22.20,-55.88,-992.84,192.50,-665.0,-280.0,1,94.656,
01/01/2000,00:43:27.99,22.20,-55.88,-992.71,61.25,-735.0,-350.0,1,94.697,
01/01/2000,00:43:28.00,22.20,-55.88,-992.71,236.25,-700.0,-323.75,1,94.737,
01/01/2000,00:43:28.02,22.20,-55.63,-992.84,113.75,-647.50,-393.75,1,94.776,
01/01/2000,00:43:28.03,22.20,-55.75,-992.84,148.75,-656.25,-402.50,1,94.815,
01/01/2000,00:43:28.04,22.20,-55.75,-992.71,262.50,-708.75,-341.25,1,94.853,
01/01/2000,00:43:28.05,22.20,-55.88,-992.71,105.0,-761.25,-385.0,1,94.891,
01/01/2000,00:43:28.06,22.20,-56.00,-992.71,52.50,-586.25,-323.75,1,94.928,
01/01/2000,00:43:28.07,22.33,-56.12,-992.84,148.75,-708.75,-367.50,1,94.964,
01/01/2000,00:43:28.08,22.33,-55.88,-992.84,140.0,-603.75,-210.0,1,95.0,
01/01/2000,00:43:28.09,22.20,-55.88,-992.59,26.25,-673.75,-262.50,1,95.035,
01/01/2000,00:43:28.10,22.08,-56.00,-992.59,17.50,-761.25,-376.25,1,95.070,
01/01/2000,00:43:28.11,22.08,-56.00,-992.84,131.25,-822.50,-315.0,1,95.105,
01/01/2000,00:43:28.12,22.20,-55.88,-992.84,297.50,-647.50,-323.75,1,95.139,
01/01/2000,00:43:28.13,22.20,-55.75,-992.59,26.25,-612.50,-245.0,1,95.172,
01/01/2000,00:43:28.14,22.08,-55.88,-992.59,131.25,-638.75,-297.50,1,95.205,
01/01/2000,00:43:28.15,21.96,-55.75,-992.59,70.0,-621.25,-297.50,1,95.238,
01/01/2000,00:43:28.17,21.96,-55.88,-992.47,140.0,-656.25,-411.25,1,94.631,
01/01/2000,00:43:28.18,22.20,-56.00,-992.71,35.0,-673.75,-332.50,1,94.667,
01/01/2000,00:43:28.19,22.08,-56.00,-992.59,175.0,-621.25,-428.75,1,94.702,
01/01/2000,00:43:28.20,22.20,-55.88,-992.47,192.50,-700.0,-323.75,1,94.737,
01/01/2000,00:43:28.21,22.20,-55.88,-992.35,78.75,-630.0,-323.75,1,94.771,
01/01/2000,00:43:28.22,22.33,-55.63,-992.47,253.75,-638.75,-306.25,1,94.805,
01/01/2000,00:43:28.23,22.33,-55.88,-992.47,113.75,-603.75,-385.0,1,94.231,
01/01/2000,00:43:28.24,22.20,-55.88,-992.35,210.0,-717.50,-262.50,1,94.268,
01/01/2000,00:43:28.25,22.33,-55.75,-992.35,113.75,-682.50,-280.0,1,94.304,
01/01/2000,00:43:28.26,22.45,-55.75,-992.35,0.0,-761.25,-420.0,1,94.340,
01/01/2000,00:43:28.27,22.45,-55.75,-992.23,140.0,-761.25,-306.25,1,94.375,
01/01/2000,00:43:28.28,22.45,-55.75,-992.10,192.50,-673.75,-385.0,1,94.410,
01/01/2000,00:43:28.29,22.33,-55.88,-992.35,183.75,-621.25,-332.50,1,94.444,
01/01/2000,00:43:28.31,22.45,-55.63,-992.35,157.50,-700.0,-271.25,1,94.479,
01/01/2000,00:43:28.32,22.45,-55.63,-992.47,131.25,-752.50,-323.75,1,94.512,
01/01/2000,00:43:28.33,22.45,-55.51,-992.59,210.0,-647.50,-271.25,1,94.545,
01/01/2000,00:43:28.34,22.45,-55.63,-992.59,78.75,-656.25,-358.75,1,94.578,
01/01/2000,00:43:28.35,22.45,-55.63,-992.47,61.25,-586.25,-280.0,1,94.611,
01/01/2000,00:43:28.36,22.69,-55.88,-992.35,122.50,-735.0,-253.75,1,94.643,
01/01/2000,00:43:28.37,22.69,-55.88,-992.35,288.75,-630.0,-341.25,1,94.675,
01/01/2000,00:43:28.38,22.45,-55.75,-992.35,148.75,-735.0,-245.0,1,94.706,
01/01/2000,00:43:28.39,22.20,-55.63,-992.71,183.75,-717.50,-402.50,1,94.737,
01/01/2000,00:43:28.40,22.33,-55.63,-992.84,218.75,-761.25,-297.50,1,94.767,
01/01/2000,00:43:28.41,22.20,-55.63,-992.84,157.50,-682.50,-358.75,1,94.798,
01/01/2000,00:43:28.42,22.20,-55.75,-992.59,262.50,-682.50,-280.0,1,94.828,
01/01/2000,00:43:28.43,22.20,-55.75,-992.59,8.75,-717.50,-306.25,1,94.857,
01/01/2000,00:43:28.44,22.57,-55.63,-992.59,192.50,-770.0,-367.50,1,94.886,
01/01/2000,00:43:28.45,22.45,-55.63,-992.59,113.75,-647.50,-306.25,1,94.915,
01/01/2000,00:43:28.46,22.45,-55.51,-992.59,166.25,-638.75,-280.0,1,94.944,
01/01/2000,00:43:28.47,22.45,-55.63,-992.47,306.25,-595.0,-341.25,1,94.444,
01/01/2000,00:43:28.48,22.45,-55.63,-992.35,157.50,-796.25,-306.25,1,95.0,
01/01/2000,00:43:28.49,22.45,-55.63,-992.35,122.50,-708.75,-350.0,1,94.505,
01/01/2000,00:43:28.50,22.45,-55.88,-992.35,253.75,-691.25,-297.50,1,95.055,
01/01/2000,00:43:28.52,22.45,-55.75,-992.10,105.0,-682.50,-253.75,1,94.565,
01/01/2000,00:43:28.53,22.45,-55.75,-991.98,332.50,-700.0,-411.25,1,94.595,
01/01/2000,00:43:28.54,22.45,-55.63,-991.98,43.75,-603.75,-210.0,1,94.624,
01/01/2000,00:43:28.55,22.20,-55.88,-992.10,148.75,-682.50,-490.0,1,94.652,
01/01/2000,00:43:28.56,22.20,-55.88,-992.10,271.25,-761.25,-358.75,1,94.681,
01/01/2000,00:43:28.57,22.45,-55.63,-992.10,96.25,-647.50,-358.75,1,94.709,
01/01/2000,00:43:28.58,22.57,-55.63,-991.86,192.50,-665.0,-245.0,1,94.737,
01/01/2000,00:43:28.59,22.57,-55.63,-991.86,183.75,-603.75,-367.50,1,94.764,
01/01/2000,00:43:28.60,22.45,-55.88,-991.98,175.0,-656.25,-446.25,1,94.792,
01/01/2000,00:43:28.61,22.45,-55.63,-992.23,183.75,-665.0,-323.75,1,94.819,
01/01/2000,00:43:28.62,22.69,-55.63,-992.23,166.25,-647.50,-306.25,1,94.845,
01/01/2000,00:43:28.63,22.69,-55.39,-992.10,175.0,-691.25,-367.50,1,94.872,
01/01/2000,00:43:28.64,22.69,-55.63,-991.86,122.50,-630.0,-175.0,1,94.898,
01/01/2000,00:43:28.65,22.69,-56.00,-991.86,148.75,-787.50,-350.0,1,94.444,
01/01/2000,00:43:28.66,22.69,-56.00,-992.23,245.0,-708.75,-446.25,1,94.472,
01/01/2000,00:43:28.67,22.94,-55.88,-992.23,17.50,-665.0,-358.75,1,94.500,
01/01/2000,00:43:28.68,22.45,-55.63,-992.10,87.50,-638.75,-288.75,1,94.527,
01/01/2000,00:43:28.69,22.45,-55.63,-991.86,148.75,-805.0,-236.25,1,94.554,
01/01/2000,00:43:28.70,22.45,-55.75,-991.86,140.0,-673.75,-385.0,1,94.581,
01/01/2000,00:43:28.71,22.45,-55.75,-992.23,131.25,-621.25,-402.50,1,94.608,
01/01/2000,00:43:28.73,22.69,-55.88,-992.35,183.75,-603.75,-332.50,1,94.634,
01/01/2000,00:43:28.74,22.57,-55.51,-992.23,175.0,-656.25,-271.25,1,94.660,
01/01/2000,00:43:28.75,22.45,-55.51,-992.10,113.75,-752.50,-297.50,1,94.231,
01/01/2000,00:43:28.76,22.45,-55.63,-992.23,253.75,-735.0,-166.25,1,94.258,
01/01/2000,00:43:28.77,22.57,-55.88,-992.47,183.75,-665.0,-428.75,1,94.286,
01/01/2000,00:43:28.78,22.45,-55.88,-992.59,113.75,-647.50,-323.75,1,94.313,
01/01/2000,00:43:28.79,22.45,-55.63,-992.35,236.25,-638.75,-315.0,1,94.340,
01/01/2000,00:43:28.80,22.45,-55.63,-992.10,131.25,-700.0,-350.0,1,94.366,
01/01/2000,00:43:28.81,22.57,-55.63,-992.10,131.25,-682.50,-280.0,1,94.393,
01/01/2000,00:43:28.82,22.33,-55.88,-992.35,122.50,-717.50,-315.0,1,94.419,
01/01/2000,00:43:28.83,22.33,-55.88,-992.71,113.75,-726.25,-367.50,1,94.444,
01/01/2000,00:43:28.84,22.33,-55.88,-992.71,166.25,-743.75,-280.0,1,94.470,
01/01/2000,00:43:28.85,22.33,-55.75,-992.59,166.25,-822.50,-367.50,1,94.495,
01/01/2000,00:43:28.87,22.20,-55.63,-992.35,253.75,-805.0,-262.50,1,94.521,
01/01/2000,00:43:28.88,22.20,-55.51,-992.35,201.25,-770.0,-463.75,1,94.545,
01/01/2000,00:43:28.89,22.33,-55.63,-992.59,148.75,-708.75,-446.25,1,94.570,
01/01/2000,00:43:28.90,22.20,-55.75,-992.59,-52.50,-761.25,-315.0,1,94.595,
01/01/2000,00:43:28.91,22.08,-55.75,-992.59,140.0,-665.0,-463.75,1,94.619,
01/01/2000,00:43:28.92,22.08,-55.63,-992.47,78.75,-726.25,-367.50,1,94.643,
01/01/2000,00:43:28.93,22.20,-55.63,-992.35,280.0,-726.25,-332.50,1,94.667,
01/01/2000,00:43:28.94,22.45,-55.63,-992.47,332.50,-708.75,-350.0,1,94.690,
01/01/2000,00:43:28.95,22.33,-55.75,-992.59,192.50,-630.0,-271.25,1,94.714,
01/01/2000,00:43:28.96,22.20,-55.75,-992.59,157.50,-542.50,-332.50,1,94.737,
01/01/2000,00:43:28.97,22.45,-55.88,-992.47,166.25,-665.0,-332.50,1,94.760,
01/01/2000,00:43:28.98,22.69,-55.75,-992.10,113.75,-752.50,-315.0,1,94.783,
01/01/2000,00:43:28.99,22.57,-55.75,-992.23,175.0,-822.50,-358.75,1,94.805,
01/01/2000,00:43:29.00,21.96,-55.63,-992.84,253.75,-700.0,-210.0,1,94.828,
01/01/2000,00:43:29.01,21.96,-55.88,-993.08,183.75,-542.50,-402.50,1,94.850,
01/01/2000,00:43:29.02,22.69,-55.51,-992.35,315.0,-778.75,-367.50,1,94.872,
01/01/2000,00:43:29.03,22.94,-55.39,-991.62,-78.75,-778.75,-8.75,1,94.894,
01/01/2000,00:43:29.04,22.33,-56.49,-991.74,227.50,-787.50,-183.75,1,94.915,
01/01/2000,00:43:29.05,21.59,-56.61,-992.71,288.75,-700.0,-490.0,1,94.937,
01/01/2000,00:43:29.06,21.84,-56.36,-993.32,-8.75,-682.50,-743.75,1,94.958,
01/01/2000,00:43:29.08,22.57,-55.39,-992.84,218.75,-647.50,-358.75,1,94.583,
01/01/2000,00:43:29.09,22.45,-55.27,-991.98,122.50,-726.25,43.75,1,94.606,
01/01/2000,00:43:29.10,22.20,-56.12,-991.62,96.25,-778.75,-358.75,1,94.628,
01/01/2000,00:43:29.11,22.08,-56.61,-992.10,70.0,-726.25,-463.75,1,94.650,
01/01/2000,00:43:29.12,22.33,-56.49,-992.84,70.0,-717.50,-393.75,1,94.672,
01/01/2000,00:43:29.13,22.45,-56.49,-992.96,157.50,-673.75,-402.50,1,94.694,
01/01/2000,00:43:29.14,22.20,-55.88,-992.59,87.50,-647.50,-245.0,1,94.715,
01/01/2000,00:43:29.15,22.20,-55.63,-991.74,280.0,-691.25,-341.25,1,94.737,
01/01/2000,00:43:29.16,22.33,-55.75,-992.35,78.75,-735.0,-140.0,1,94.758,
01/01/2000,00:43:29.17,22.33,-56.36,-993.08,297.50,-630.0,-306.25,1,94.779,
01/01/2000,00:43:29.18,22.20,-56.61,-993.08,192.50,-700.0,-393.75,1,94.800,
01/01/2000,00:43:29.19,22.08,-56.24,-992.71,87.50,-708.75,-332.50,1,94.821,
01/01/2000,00:43:29.20,22.20,-55.88,-991.98,210.0,-647.50,-288.75,1,94.841,
01/01/2000,00:43:29.21,22.45,-55.75,-992.10,192.50,-752.50,-245.0,1,94.862,
01/01/2000,00:43:29.22,22.57,-56.12,-992.59,262.50,-621.25,-253.75,1,94.510,
01/01/2000,00:43:29.23,22.45,-56.36,-992.84,367.50,-735.0,-446.25,1,94.531,
01/01/2000,00:43:29.24,22.33,-56.36,-992.84,166.25,-656.25,-323.75,1,94.553,
01/01/2000,00:43:29.26,22.33,-56.00,-992.35,122.50,-612.50,-358.75,1,94.574,
01/01/2000,00:43:29.27,22.57,-55.63,-992.23,201.25,-673.75,-332.50,1,94.595,
01/01/2000,00:43:29.28,22.57,-55.75,-992.59,113.75,-673.75,-288.75,1,94.615,
01/01/2000,00:43:29.29,22.57,-56.00,-992.84,140.0,-743.75,-271.25,1,94.636,
01/01/2000,00:43:29.30,22.20,-56.00,-992.84,183.75,-630.0,-560.0,1,94.656,
01/01/2000,00:43:29.31,22.20,-55.63,-992.59,78.75,-726.25,-297.50,1,94.677,
01/01/2000,00:43:29.32,22.45,-55.51,-992.35,253.75,-665.0,-236.25,1,94.697,
01/01/2000,00:43:29.33,22.45,-55.63,-992.47,157.50,-717.50,-280.0,1,94.717,
01/01/2000,00:43:29.34,22.33,-56.00,-992.59,157.50,-717.50,-376.25,1,94.737,
01/01/2000,00:43:29.35,22.20,-56.12,-992.71,131.25,-770.0,-402.50,1,94.757,
01/01/2000,00:43:29.36,22.20,-55.88,-992.59,26.25,-717.50,-385.0,1,94.776,
01/01/2000,00:43:29.37,22.20,-55.63,-992.47,192.50,-673.75,-420.0,1,94.796,
01/01/2000,00:43:29.38,22.33,-55.39,-992.35,175.0,-630.0,-280.0,1,94.815,
01/01/2000,00:43:29.39,22.33,-55.63,-992.35,227.50,-726.25,-227.50,1,94.485,
01/01/2000,00:43:29.40,22.33,-55.88,-992.59,288.75,-708.75,-376.25,1,94.505,
01/01/2000,00:43:29.41,22.08,-56.12,-992.59,35.0,-612.50,-332.50,1,94.526,
01/01/2000,00:43:29.43,22.20,-55.88,-992.59,253.75,-735.0,-262.50,1,94.545,
01/01/2000,00:43:29.44,22.45,-55.63,-992.35,175.0,-717.50,-358.75,1,94.565,
01/01/2000,00:43:29.45,22.45,-55.88,-992.35,236.25,-665.0,-315.0,1,94.585,
01/01/2000,00:43:29.46,22.33,-56.12,-992.47,315.0,-560.0,-350.0,1,94.604,
01/01/2000,00:43:29.47,22.45,-56.12,-992.47,96.25,-656.25,-358.75,1,94.624,
01/01/2000,00:43:29.48,22.69,-56.00,-992.59,148.75,-796.25,-411.25,1,94.643,
01/01/2000,00:43:29.49,22.69,-55.88,-992.35,131.25,-630.0,-297.50,1,94.662,
01/01/2000,00:43:29.50,22.45,-55.88,-992.35,140.0,-638.75,-455.0,1,94.681,
01/01/2000,00:43:29.51,22.33,-55.75,-992.59,306.25,-735.0,-367.50,1,94.700,
01/01/2000,00:43:29.52,22.33,-55.63,-992.84,70.0,-743.75,-175.0,1,94.718,
01/01/2000,00:43:29.53,22.33,-55.88,-992.71,175.0,-621.25,-315.0,1,94.737,
01/01/2000,00:43:29.54,22.33,-55.75,-992.59,70.0,-691.25,-332.50,1,94.755,
01/01/2000,00:43:29.55,22.57,-55.63,-992.35,210.0,-700.0,-350.0,1,94.774,
01/01/2000,00:43:29.56,22.45,-55.51,-992.47,131.25,-770.0,-341.25,1,94.792,
01/01/2000,00:43:29.57,22.20,-55.63,-992.84,175.0,-656.25,-253.75,1,94.483,
01/01/2000,00:43:29.58,22.20,-55.51,-992.96,288.75,-691.25,-455.0,1,94.502,
01/01/2000,00:43:29.59,22.33,-55.51,-992.84,113.75,-743.75,-323.75,1,94.521,
01/01/2000,00:43:29.60,22.33,-55.51,-992.35,78.75,-603.75,-358.75,1,94.539,
01/01/2000,00:43:29.61,22.08,-55.88,-992.10,52.50,-665.0,-271.25,1,94.558,
01/01/2000,00:43:29.62,22.20,-55.88,-992.23,122.50,-717.50,-481.25,1,94.576,
01/01/2000,00:43:29.64,22.45,-55.63,-992.59,122.50,-577.50,-306.25,1,94.595,
01/01/2000,00:43:29.65,22.45,-55.51,-992.71,26.25,-726.25,-227.50,1,94.613,
01/01/2000,00:43:29.66,22.20,-55.63,-992.47,166.25,-656.25,-341.25,1,94.631,
01/01/2000,00:43:29.67,21.96,-55.63,-992.10,192.50,-796.25,-358.75,1,94.649,
01/01/2000,00:43:29.68,22.20,-55.75,-992.23,315.0,-726.25,-437.50,1,94.667,
01/01/2000,00:43:29.69,22.45,-55.75,-992.59,201.25,-778.75,-358.75,1,94.684,
01/01/2000,00:43:29.70,22.57,-55.75,-992.71,166.25,-647.50,-367.50,1,94.702,
01/01/2000,00:43:29.71,22.20,-55.63,-992.47,192.50,-708.75,-280.0,1,94.719,
01/01/2000,00:43:29.72,22.20,-55.75,-991.98,192.50,-603.75,-262.50,1,94.737,
01/01/2000,00:43:29.73,22.20,-55.88,-992.10,253.75,-787.50,-437.50,1,94.754,
01/01/2000,00:43:29.74,22.20,-55.88,-992.35,166.25,-638.75,-323.75,1,94.771,
01/01/2000,00:43:29.75,22.45,-55.88,-992.35,26.25,-761.25,-411.25,1,94.788,
01/01/2000,00:43:29.77,22.45,-55.63,-992.35,105.0,-761.25,-332.50,1,94.498,
01/01/2000,00:43:29.78,22.45,-55.75,-992.47,297.50,-656.25,-350.0,1,94.516,
01/01/2000,00:43:29.79,22.45,-55.51,-992.59,157.50,-673.75,-245.0,1,94.534,
01/01/2000,00:43:29.80,22.69,-55.63,-992.59,70.0,-700.0,-350.0,1,94.551,
01/01/2000,00:43:29.81,22.69,-55.88,-992.59,140.0,-525.0,-367.50,1,94.569,
01/01/2000,00:43:29.82,22.45,-55.88,-992.47,122.50,-603.75,-341.25,1,94.586,
01/01/2000,00:43:29.83,22.57,-56.00,-992.47,183.75,-621.25,-516.25,1,94.603,
01/01/2000,00:43:29.84,22.69,-55.88,-992.59,323.75,-691.25,-262.50,1,94.620,
01/01/2000,00:43:29.85,22.69,-55.63,-992.59,70.0,-691.25,-245.0,1,94.637,
01/01/2000,00:43:29.86,22.69,-56.12,-992.47,271.25,-717.50,-411.25,1,94.654,
01/01/2000,00:43:29.87,22.57,-56.12,-992.47,175.0,-630.0,-350.0,1,94.671,
01/01/2000,00:43:29.88,22.69,-56.36,-992.47,122.50,-638.75,-367.50,1,94.688,
01/01/2000,00:43:29.89,22.57,-56.12,-992.47,113.75,-752.50,-341.25,1,94.704,
01/01/2000,00:43:29.90,22.57,-56.12,-992.47,78.75,-656.25,-271.25,1,94.720,
01/01/2000,00:43:29.91,22.57,-56.12,-992.35,227.50,-708.75,-402.50,1,94.737,
01/01/2000,00:43:29.92,22.45,-56.00,-992.35,122.50,-761.25,-315.0,1,94.753,
01/01/2000,00:43:29.93,22.20,-56.12,-992.35,192.50,-735.0,-402.50,1,94.769,
01/01/2000,00:43:29.94,22.20,-56.00,-992.59,166.25,-673.75,-358.75,1,94.785,
01/01/2000,00:43:29.95,22.33,-55.88,-992.47,61.25,-665.0,-271.25,1,94.801,
01/01/2000,00:43:29.96,22.20,-56.00,-992.23,87.50,-700.0,-385.0,1,94.817,
01/01/2000,00:43:29.97,21.96,-55.88,-992.23,26.25,-682.50,-140.0,1,94.545,
01/01/2000,00:43:29.98,22.20,-56.12,-992.23,288.75,-761.25,-437.50,1,94.848,
01/01/2000,00:43:30.00,22.33,-56.00,-992.35,87.50,-682.50,-201.25,1,94.578,
01/01/2000,00:43:30.01,22.45,-56.00,-992.35,96.25,-743.75,-245.0,1,94.595,
01/01/2000,00:43:30.02,22.45,-55.88,-992.23,341.25,-822.50,-402.50,1,94.611,
01/01/2000,00:43:30.03,22.45,-55.75,-992.10,61.25,-700.0,-341.25,1,94.627,
01/01/2000,00:43:30.04,22.45,-55.88,-991.98,245.0,-665.0,-262.50,1,94.643,
01/01/2000,00:43:30.05,22.45,-55.88,-992.10,201.25,-726.25,-245.0,1,94.659,
01/01/2000,00:43:30.06,22.33,-55.88,-992.35,218.75,-717.50,-350.0,1,94.675,
01/01/2000,00:43:30.07,22.20,-55.63,-992.35,52.50,-586.25,-306.25,1,94.690,
01/01/2000,00:43:30.08,22.20,-55.51,-992.23,236.25,-700.0,-376.25,1,94.706,
01/01/2000,00:43:30.09,22.33,-55.51,-992.10,157.50,-822.50,-332.50,1,94.721,
01/01/2000,00:43:30.10,22.33,-55.51,-992.10,280.0,-665.0,-262.50,1,94.737,
01/01/2000,00:43:30.11,22.45,-55.63,-992.23,201.25,-770.0,-411.25,1,94.752,
01/01/2000,00:43:30.12,22.45,-55.88,-992.23,78.75,-665.0,-341.25,1,94.767,
01/01/2000,00:43:30.13,22.45,-55.88,-992.10,175.0,-595.0,-323.75,1,94.509,
01/01/2000,00:43:30.14,22.45,-55.63,-992.35,78.75,-717.50,-306.25,1,94.524,
01/01/2000,00:43:30.15,22.45,-55.63,-992.35,148.75,-630.0,-315.0,1,94.540,
01/01/2000,00:43:30.16,22.57,-55.75,-992.35,148.75,-673.75,-253.75,1,94.556,
01/01/2000,00:43:30.17,22.69,-55.63,-992.23,148.75,-691.25,-297.50,1,94.571,
01/01/2000,00:43:30.18,22.69,-55.75,-991.98,236.25,-708.75,-341.25,1,94.587,
01/01/2000,00:43:30.19,22.69,-55.63,-992.10,96.25,-673.75,-393.75,1,94.602,
01/01/2000,00:43:30.21,22.69,-55.63,-992.35,52.50,-700.0,-315.0,1,94.618,
01/01/2000,00:43:30.22,22.69,-55.75,-992.47,210.0,-665.0,-288.75,1,94.633,
01/01/2000,00:43:30.23,22.45,-55.75,-992.59,218.75,-822.50,-288.75,1,94.648,
01/01/2000,00:43:30.24,22.69,-55.63,-992.35,166.25,-726.25,-288.75,1,94.663,
01/01/2000,00:43:30.25,22.57,-55.88,-992.10,166.25,-778.75,-437.50,1,94.678,
01/01/2000,00:43:30.26,22.45,-55.63,-992.10,-8.75,-603.75,-262.50,1,94.693,
01/01/2000,00:43:30.28,22.45,-56.00,-992.35,87.50,-647.50,-420.0,1,94.444,
01/01/2000,00:43:30.29,22.20,-55.75,-992.59,157.50,-743.75,-315.0,1,94.460,
01/01/2000,00:43:30.30,22.33,-56.00,-992.35,175.0,-630.0,-350.0,1,94.475,
01/01/2000,00:43:30.31,21.96,-55.63,-992.35,166.25,-586.25,-262.50,1,94.490,
01/01/2000,00:43:30.32,22.20,-55.88,-992.10,26.25,-752.50,-288.75,1,94.505,
01/01/2000,00:43:30.33,22.69,-56.24,-991.98,306.25,-682.50,-481.25,1,94.521,
01/01/2000,00:43:30.34,22.45,-56.12,-991.98,-17.50,-708.75,-358.75,1,94.536,
01/01/2000,00:43:30.35,22.33,-56.49,-992.10,210.0,-735.0,-516.25,1,94.550,
01/01/2000,00:43:30.36,22.08,-56.12,-992.35,201.25,-603.75,-402.50,1,94.565,
01/01/2000,00:43:30.37,22.20,-55.75,-992.23,0.0,-770.0,-288.75,1,94.580,
01/01/2000,00:43:30.38,22.69,-55.88,-991.98,227.50,-665.0,-341.25,1,94.595,
01/01/2000,00:43:30.39,22.45,-55.63,-991.86,0.0,-586.25,-148.75,1,94.609,
01/01/2000,00:43:30.40,22.45,-56.12,-992.10,166.25,-735.0,-341.25,1,94.624,
01/01/2000,00:43:30.41,22.20,-56.12,-992.35,332.50,-691.25,-446.25,1,94.638,
01/01/2000,00:43:30.42,22.33,-55.88,-992.35,105.0,-700.0,-358.75,1,94.652,
01/01/2000,00:43:30.43,22.45,-55.75,-992.23,280.0,-673.75,-341.25,1,94.667,
01/01/2000,00:43:30.44,22.20,-55.51,-992.23,78.75,-603.75,-280.0,1,94.681,
01/01/2000,00:43:30.45,22.20,-55.63,-992.10,140.0,-638.75,-420.0,1,94.695,
01/01/2000,00:43:30.46,22.33,-55.88,-992.10,280.0,-743.75,-236.25,1,94.709,
01/01/2000,00:43:30.47,22.08,-55.75,-992.23,122.50,-673.75,-393.75,1,94.723,
01/01/2000,00:43:30.48,22.08,-55.63,-991.98,157.50,-761.25,-402.50,1,94.488,
01/01/2000,00:43:30.49,22.08,-55.39,-991.98,148.75,-656.25,-358.75,1,94.503,
01/01/2000,00:43:30.50,22.33,-55.63,-991.98,140.0,-656.25,-350.0,1,94.517,
01/01/2000,00:43:30.51,22.45,-55.75,-992.10,166.25,-691.25,-376.25,1,94.531,
01/01/2000,00:43:30.52,22.45,-55.75,-992.35,271.25,-603.75,-332.50,1,94.545,
01/01/2000,00:43:30.53,22.57,-55.88,-992.35,253.75,-700.0,-420.0,1,94.560,
01/01/2000,00:43:30.54,22.33,-55.63,-992.35,122.50,-700.0,-315.0,1,94.574,
01/01/2000,00:43:30.56,22.33,-55.63,-992.35,122.50,-682.50,-236.25,1,94.588,
01/01/2000,00:43:30.57,22.45,-55.63,-992.47,253.75,-822.50,-297.50,1,94.602,
01/01/2000,00:43:30.58,22.57,-55.63,-992.47,105.0,-743.75,-192.50,1,94.615,
01/01/2000,00:43:30.59,22.57,-55.75,-992.47,96.25,-700.0,-393.75,1,94.629,
01/01/2000,00:43:30.60,22.45,-55.75,-992.47,218.75,-647.50,-288.75,1,94.643,
01/01/2000,00:43:30.61,22.45,-55.63,-992.35,210.0,-682.50,-411.25,1,94.656,
01/01/2000,00:43:30.62,22.45,-55.51,-992.35,192.50,-630.0,-236.25,1,94.670,
01/01/2000,00:43:30.63,22.57,-55.51,-992.35,8.75,-708.75,-280.0,1,94.684,
01/01/2000,00:43:30.64,22.45,-55.75,-992.23,131.25,-752.50,-376.25,1,94.458,
01/01/2000,00:43:30.65,22.33,-55.88,-992.10,157.50,-691.25,-341.25,1,94.710,
01/01/2000,00:43:30.66,22.33,-55.51,-992.10,105.0,-770.0,-402.50,1,94.486,
01/01/2000,00:43:30.67,22.33,-55.51,-992.10,113.75,-770.0,-332.50,1,94.500,
01/01/2000,00:43:30.68,22.45,-55.39,-992.35,0.0,-761.25,-236.25,1,94.514,
01/01/2000,00:43:30.70,22.57,-55.51,-992.47,157.50,-507.50,-350.0,1,94.527,
01/01/2000,00:43:30.71,22.20,-55.88,-992.47,140.0,-673.75,-262.50,1,94.541,
01/01/2000,00:43:30.72,22.20,-55.75,-992.23,-8.75,-708.75,-306.25,1,94.554,
01/01/2000,00:43:30.73,22.33,-55.88,-992.23,236.25,-735.0,-332.50,1,94.568,
01/01/2000,00:43:30.74,22.45,-55.51,-992.35,131.25,-700.0,-280.0,1,94.581,
01/01/2000,00:43:30.75,22.69,-55.63,-992.47,236.25,-612.50,-280.0,1,94.595,
01/01/2000,00:43:30.76,22.33,-55.75,-992.35,166.25,-717.50,-367.50,1,94.608,
01/01/2000,00:43:30.77,22.45,-55.88,-991.86,96.25,-735.0,-315.0,1,94.621,
01/01/2000,00:43:30.78,22.69,-55.63,-991.86,288.75,-691.25,-411.25,1,94.404,
01/01/2000,00:43:30.79,22.45,-55.63,-992.10,61.25,-665.0,-201.25,1,94.417,
01/01/2000,00:43:30.80,22.33,-55.88,-992.10,323.75,-726.25,-402.50,1,94.431,
01/01/2000,00:43:30.81,22.08,-55.63,-991.98,315.0,-638.75,-271.25,1,94.444,
01/01/2000,00:43:30.82,22.33,-55.63,-991.86,192.50,-682.50,-358.75,1,94.458,
01/01/2000,00:43:30.83,22.33,-55.63,-992.10,323.75,-656.25,-323.75,1,94.471,
01/01/2000,00:43:30.85,22.45,-55.63,-992.10,140.0,-770.0,-245.0,1,94.484,
01/01/2000,00:43:30.86,22.33,-55.88,-992.10,218.75,-682.50,-446.25,1,94.498,
01/01/2000,00:43:30.87,22.20,-55.75,-992.23,96.25,-630.0,-227.50,1,94.511,
01/01/2000,00:43:30.88,22.20,-55.75,-992.35,271.25,-673.75,-463.75,1,94.524,
01/01/2000,00:43:30.89,22.20,-55.63,-992.35,236.25,-647.50,-280.0,1,94.537,
01/01/2000,00:43:30.90,22.33,-55.39,-992.23,175.0,-743.75,-280.0,1,94.550,
01/01/2000,00:43:30.91,22.45,-55.51,-992.35,245.0,-673.75,-201.25,1,94.563,
01/01/2000,00:43:30.92,22.33,-55.88,-992.35,210.0,-822.50,-446.25,1,94.575,
01/01/2000,00:43:30.93,22.20,-55.75,-992.59,183.75,-647.50,-306.25,1,94.588,
01/01/2000,00:43:30.94,22.45,-55.63,-992.59,122.50,-647.50,-393.75,1,94.601,
01/01/2000,00:43:30.95,22.33,-55.39,-992.47,78.75,-752.50,-262.50,1,94.614,
01/01/2000,00:43:30.96,22.45,-55.63,-992.59,183.75,-647.50,-385.0,1,94.626,
01/01/2000,00:43:30.97,22.20,-55.75,-992.59,166.25,-761.25,-341.25,1,94.639,
01/01/2000,00:43:30.98,22.20,-55.75,-992.71,113.75,-787.50,-323.75,1,94.651,
01/01/2000,00:43:30.99,22.33,-55.75,-992.59,236.25,-761.25,-393.75,1,94.664,
01/01/2000,00:43:31.00,22.45,-55.63,-992.59,105.0,-682.50,-306.25,1,94.676,
01/01/2000,00:43:31.01,22.33,-55.51,-992.59,201.25,-682.50,-341.25,1,94.688,
01/01/2000,00:43:31.02,22.20,-55.51,-992.59,166.25,-770.0,-280.0,1,94.700,
01/01/2000,00:43:31.03,22.33,-55.39,-992.59,227.50,-691.25,-420.0,1,94.713,
01/01/2000,00:43:31.04,22.20,-55.63,-992.71,306.25,-735.0,-437.50,1,94.508,
01/01/2000,00:43:31.05,22.33,-55.63,-992.59,52.50,-630.0,-288.75,1,94.521,
01/01/2000,00:43:31.06,22.45,-55.51,-992.35,210.0,-735.0,-332.50,1,94.533,
01/01/2000,00:43:31.07,22.45,-55.63,-992.23,210.0,-708.75,-341.25,1,94.545,
01/01/2000,00:43:31.08,22.45,-55.51,-992.35,122.50,-743.75,-323.75,1,94.558,
01/01/2000,00:43:31.09,22.69,-55.63,-992.59,61.25,-647.50,-280.0,1,94.570,
01/01/2000,00:43:31.10,22.69,-55.51,-992.71,140.0,-673.75,-306.25,1,94.582,
01/01/2000,00:43:31.12,22.57,-55.51,-992.35,70.0,-656.25,-323.75,1,94.595,
01/01/2000,00:43:31.13,22.45,-55.75,-992.23,210.0,-700.0,-402.50,1,94.607,
01/01/2000,00:43:31.14,22.33,-55.63,-992.35,105.0,-612.50,-402.50,1,94.619,
01/01/2000,00:43:31.15,22.57,-55.63,-992.59,148.75,-638.75,-393.75,1,94.631,
01/01/2000,00:43:31.16,22.45,-55.88,-992.59,253.75,-612.50,-385.0,1,94.643,
01/01/2000,00:43:31.17,22.33,-55.63,-992.35,8.75,-735.0,-271.25,1,94.655,
01/01/2000,00:43:31.18,22.33,-55.88,-992.47,166.25,-682.50,-446.25,1,94.667,
01/01/2000,00:43:31.19,22.33,-55.88,-992.59,183.75,-726.25,-262.50,1,94.678,
01/01/2000,00:43:31.20,22.33,-55.88,-992.71,61.25,-691.25,-393.75,1,94.690,
01/01/2000,00:43:31.21,22.57,-56.00,-992.71,96.25,-682.50,-358.75,1,94.702,
01/01/2000,00:43:31.22,22.81,-55.88,-992.59,96.25,-691.25,-341.25,1,94.714,
01/01/2000,00:43:31.23,22.81,-55.88,-992.35,96.25,-726.25,-271.25,1,94.725,
01/01/2000,00:43:31.24,22.45,-55.88,-992.35,96.25,-770.0,-393.75,1,94.737,
01/01/2000,00:43:31.26,22.20,-55.88,-992.59,131.25,-770.0,-402.50,1,94.541,
01/01/2000,00:43:31.27,22.33,-55.63,-992.71,288.75,-647.50,-297.50,1,94.553,
01/01/2000,00:43:31.28,22.57,-55.63,-992.71,105.0,-665.0,-306.25,1,94.565,
01/01/2000,00:43:31.29,22.45,-56.00,-992.10,26.25,-708.75,-358.75,1,94.372,
01/01/2000,00:43:31.30,22.33,-56.12,-992.10,166.25,-700.0,-455.0,1,94.384,
01/01/2000,00:43:31.31,22.45,-56.12,-992.47,78.75,-822.50,-402.50,1,94.397,
01/01/2000,00:43:31.32,22.45,-55.75,-992.71,140.0,-770.0,-332.50,1,94.409,
01/01/2000,00:43:31.33,22.33,-55.63,-992.59,78.75,-691.25,-341.25,1,94.421,
01/01/2000,00:43:31.34,22.20,-55.63,-992.23,105.0,-656.25,-393.75,1,94.433,
01/01/2000,00:43:31.35,22.33,-56.00,-992.10,183.75,-638.75,-288.75,1,94.444,
01/01/2000,00:43:31.36,22.45,-56.00,-992.35,78.75,-516.25,-385.0,1,94.456,
01/01/2000,00:43:31.37,22.45,-56.12,-992.47,166.25,-717.50,-332.50,1,94.468,
01/01/2000,00:43:31.39,22.45,-55.88,-992.47,227.50,-656.25,-288.75,1,94.480,
01/01/2000,00:43:31.40,22.20,-55.51,-992.47,87.50,-647.50,-393.75,1,94.492,
01/01/2000,00:43:31.41,22.20,-55.39,-992.35,210.0,-612.50,-271.25,1,94.503,
01/01/2000,00:43:31.42,22.45,-55.39,-992.23,96.25,-665.0,-280.0,1,94.515,
01/01/2000,00:43:31.43,22.33,-55.63,-992.35,183.75,-700.0,-376.25,1,94.526,
01/01/2000,00:43:31.44,22.33,-55.75,-992.35,113.75,-638.75,-350.0,1,94.538,
01/01/2000,00:43:31.45,22.33,-55.75,-992.35,87.50,-752.50,-402.50,1,94.549,
01/01/2000,00:43:31.46,22.45,-55.39,-992.35,-26.25,-700.0,-367.50,1,94.561,
01/01/2000,00:43:31.47,22.20,-55.39,-992.59,288.75,-761.25,-306.25,1,94.572,
01/01/2000,00:43:31.48,22.45,-55.27,-992.59,122.50,-665.0,-341.25,1,94.583,
01/01/2000,00:43:31.49,22.81,-55.63,-992.35,166.25,-717.50,-437.50,1,94.595,
01/01/2000,00:43:31.50,22.45,-55.88,-992.35,87.50,-612.50,-280.0,1,94.606,
01/01/2000,00:43:31.51,22.20,-55.88,-992.35,105.0,-691.25,-358.75,1,94.617,
01/01/2000,00:43:31.52,22.20,-55.88,-992.59,96.25,-577.50,-358.75,1,94.628,
01/01/2000,00:43:31.53,22.45,-55.27,-992.84,52.50,-673.75,-332.50,1,94.639,
01/01/2000,00:43:31.54,22.57,-55.39,-992.47,262.50,-498.75,-253.75,1,94.456,
01/01/2000,00:43:31.55,22.45,-55.75,-992.23,306.25,-770.0,-201.25,1,94.467,
01/01/2000,00:43:31.56,22.45,-55.88,-992.10,43.75,-665.0,-455.0,1,94.479,
01/01/2000,00:43:31.57,22.45,-56.12,-992.23,262.50,-752.50,-350.0,1,94.490,
01/01/2000,00:43:31.58,22.57,-55.75,-992.59,183.75,-691.25,-280.0,1,94.501,
01/01/2000,00:43:31.59,22.45,-55.51,-992.59,192.50,-752.50,-350.0,1,94.512,
01/01/2000,00:43:31.60,22.33,-55.27,-992.35,87.50,-726.25,-297.50,1,94.523,
01/01/2000,00:43:31.62,22.20,-55.51,-991.98,70.0,-656.25,-411.25,1,94.534,
01/01/2000,00:43:31.63,22.33,-55.63,-992.10,236.25,-726.25,-271.25,1,94.545,
01/01/2000,00:43:31.64,22.45,-55.63,-992.35,192.50,-673.75,-280.0,1,94.556,
01/01/2000,00:43:31.65,22.45,-55.88,-992.47,236.25,-612.50,-402.50,1,94.567,
01/01/2000,00:43:31.66,22.20,-55.75,-992.35,148.75,-595.0,-332.50,1,94.578,
01/01/2000,00:43:31.67,22.20,-55.63,-992.35,113.75,-778.75,-332.50,1,94.589,
01/01/2000,00:43:31.68,22.33,-55.75,-992.47,175.0,-700.0,-288.75,1,94.411,
01/01/2000,00:43:31.69,22.45,-55.88,-992.47,96.25,-682.50,-315.0,1,94.422,
01/01/2000,00:43:31.70,22.33,-55.88,-992.35,183.75,-630.0,-446.25,1,94.433,
01/01/2000,00:43:31.71,22.20,-55.88,-991.98,210.0,-647.50,-367.50,1,94.444,
01/01/2000,00:43:31.72,22.20,-55.75,-991.98,166.25,-630.0,-385.0,1,94.455,
01/01/2000,00:43:31.73,22.20,-55.75,-992.35,183.75,-787.50,-367.50,1,94.466,
01/01/2000,00:43:31.74,22.33,-55.75,-992.59,122.50,-778.75,-350.0,1,94.477,
01/01/2000,00:43:31.76,22.33,-55.88,-992.59,253.75,-787.50,-332.50,1,94.488,
01/01/2000,00:43:31.77,22.20,-56.00,-992.35,61.25,-700.0,-315.0,1,94.499,
01/01/2000,00:43:31.78,21.96,-56.00,-992.35,306.25,-708.75,-498.75,1,94.510,
01/01/2000,00:43:31.79,22.57,-55.51,-992.35,78.75,-647.50,-472.50,1,94.521,
01/01/2000,00:43:31.80,22.69,-55.63,-992.10,52.50,-752.50,-315.0,1,94.531,
01/01/2000,00:43:31.81,22.08,-56.00,-992.10,175.0,-673.75,-192.50,1,94.542,
01/01/2000,00:43:31.82,21.96,-56.36,-992.35,96.25,-752.50,-586.25,1,94.553,
01/01/2000,00:43:31.83,22.33,-56.24,-992.59,332.50,-726.25,-481.25,1,94.380,
01/01/2000,00:43:31.84,22.81,-55.88,-992.71,105.0,-717.50,-70.0,1,94.391,
01/01/2000,00:43:31.85,22.57,-55.88,-992.10,96.25,-691.25,-192.50,1,94.402,
01/01/2000,00:43:31.86,22.20,-56.24,-991.86,210.0,-708.75,-315.0,1,94.412,
01/01/2000,00:43:31.87,22.20,-56.24,-992.10,131.25,-813.75,-498.75,1,94.423,
01/01/2000,00:43:31.88,22.57,-56.12,-992.47,122.50,-665.0,-350.0,1,94.434,
01/01/2000,00:43:31.89,22.69,-55.88,-992.84,113.75,-656.25,-367.50,1,94.444,
01/01/2000,00:43:31.90,22.57,-55.75,-992.59,96.25,-761.25,-245.0,1,94.455,
01/01/2000,00:43:31.91,22.20,-55.88,-992.10,201.25,-787.50,-297.50,1,94.466,
01/01/2000,00:43:31.92,22.33,-55.88,-991.86,175.0,-717.50,-245.0,1,94.476,
01/01/2000,00:43:31.93,22.57,-56.00,-992.59,122.50,-568.75,-455.0,1,94.487,
01/01/2000,00:43:31.94,22.69,-56.12,-992.96,157.50,-726.25,-253.75,1,94.497,
01/01/2000,00:43:31.95,22.69,-55.88,-992.84,157.50,-647.50,-463.75,1,94.508,
01/01/2000,00:43:31.97,22.45,-55.63,-992.10,96.25,-708.75,-332.50,1,94.518,
01/01/2000,00:43:31.98,22.33,-55.63,-992.10,157.50,-778.75,-367.50,1,94.528,
01/01/2000,00:43:31.99,22.45,-55.63,-992.47,227.50,-691.25,-323.75,1,94.539,
01/01/2000,00:43:32.00,22.57,-55.75,-992.71,280.0,-708.75,-306.25,1,94.549,
01/01/2000,00:43:32.01,22.69,-55.88,-992.59,52.50,-778.75,-411.25,1,94.559,
01/01/2000,00:43:32.02,22.33,-55.88,-992.10,183.75,-700.0,-332.50,1,94.569,
01/01/2000,00:43:32.03,22.20,-55.63,-992.10,183.75,-656.25,-385.0,1,94.579,
01/01/2000,00:43:32.04,22.45,-55.63,-992.71,140.0,-595.0,-367.50,1,94.590,
01/01/2000,00:43:32.05,22.81,-55.63,-993.08,192.50,-735.0,-253.75,1,94.600,
01/01/2000,00:43:32.06,22.69,-55.75,-993.08,96.25,-612.50,-402.50,1,94.610,
01/01/2000,00:43:32.07,22.45,-55.88,-992.71,87.50,-735.0,-341.25,1,94.620,
01/01/2000,00:43:32.08,22.45,-55.88,-992.59,218.75,-665.0,-516.25,1,94.630,
01/01/2000,00:43:32.09,22.69,-55.63,-992.71,210.0,-682.50,-323.75,1,94.640,
01/01/2000,00:43:32.10,22.57,-55.51,-992.71,26.25,-761.25,-271.25,1,94.475,
01/01/2000,00:43:32.11,22.33,-55.88,-992.84,52.50,-700.0,-253.75,1,94.485,
01/01/2000,00:43:32.12,22.20,-56.00,-992.71,122.50,-665.0,-428.75,1,94.495,
01/01/2000,00:43:32.13,22.69,-56.00,-992.84,140.0,-752.50,-341.25,1,94.505,
01/01/2000,00:43:32.14,22.94,-55.88,-992.84,210.0,-761.25,-306.25,1,94.516,
01/01/2000,00:43:32.15,22.94,-55.75,-992.71,175.0,-665.0,-253.75,1,94.526,
01/01/2000,00:43:32.16,22.57,-55.88,-992.47,87.50,-673.75,-297.50,1,94.536,
01/01/2000,00:43:32.18,22.20,-55.88,-992.47,43.75,-647.50,-306.25,1,94.545,
01/01/2000,00:43:32.19,22.20,-55.75,-992.84,122.50,-621.25,-358.75,1,94.555,
01/01/2000,00:43:32.20,22.45,-55.51,-993.32,96.25,-743.75,-148.75,1,94.565,
01/01/2000,00:43:32.21,22.69,-55.51,-993.08,175.0,-726.25,-280.0,1,94.575,
01/01/2000,00:43:32.22,22.33,-55.63,-992.84,218.75,-630.0,-288.75,1,94.585,
01/01/2000,00:43:32.23,22.20,-55.88,-992.59,253.75,-708.75,-402.50,1,94.595,
01/01/2000,00:43:32.24,22.20,-55.75,-992.71,218.75,-735.0,-420.0,1,94.604,
01/01/2000,00:43:32.25,22.33,-55.51,-992.71,210.0,-665.0,-297.50,1,94.614,
01/01/2000,00:43:32.26,22.33,-55.39,-992.47,245.0,-612.50,-297.50,1,94.624,
01/01/2000,00:43:32.27,22.08,-55.51,-992.35,78.75,-682.50,-385.0,1,94.633,
01/01/2000,00:43:32.28,22.20,-55.88,-992.35,280.0,-638.75,-315.0,1,94.474,
01/01/2000,00:43:32.29,22.45,-56.00,-992.59,210.0,-708.75,-358.75,1,94.652,
01/01/2000,00:43:32.30,22.69,-56.12,-992.96,192.50,-630.0,-323.75,1,94.494,
01/01/2000,00:43:32.32,22.33,-55.75,-992.35,140.0,-752.50,-236.25,1,94.504,
01/01/2000,00:43:32.33,22.20,-55.63,-992.10,131.25,-621.25,-358.75,1,94.513,
01/01/2000,00:43:32.34,22.33,-55.63,-992.35,148.75,-700.0,-297.50,1,94.523,
01/01/2000,00:43:32.35,22.45,-55.75,-992.59,280.0,-700.0,-288.75,1,94.533,
01/01/2000,00:43:32.36,22.45,-56.12,-992.47,157.50,-735.0,-332.50,1,94.542,
01/01/2000,00:43:32.37,22.20,-56.24,-992.35,148.75,-726.25,-323.75,1,94.552,
01/01/2000,00:43:32.38,22.20,-56.24,-992.23,140.0,-656.25,-358.75,1,94.561,
01/01/2000,00:43:32.39,22.20,-55.88,-992.23,113.75,-630.0,-315.0,1,94.406,
01/01/2000,00:43:32.40,22.45,-55.75,-992.59,157.50,-752.50,-288.75,1,94.415,
01/01/2000,00:43:32.41,22.45,-55.88,-992.59,157.50,-717.50,-201.25,1,94.425,
01/01/2000,00:43:32.42,22.20,-56.00,-992.47,166.25,-647.50,-341.25,1,94.435,
01/01/2000,00:43:32.43,22.08,-56.00,-992.35,183.75,-735.0,-437.50,1,94.444,
01/01/2000,00:43:32.44,22.45,-55.88,-992.47,175.0,-630.0,-323.75,1,94.454,
01/01/2000,00:43:32.45,22.57,-55.63,-992.35,183.75,-665.0,-288.75,1,94.464,
01/01/2000,00:43:32.46,22.45,-55.75,-992.35,192.50,-735.0,-218.75,1,94.473,
01/01/2000,00:43:32.47,22.20,-55.88,-992.10,113.75,-700.0,-358.75,1,94.483,
01/01/2000,00:43:32.48,22.20,-55.75,-991.98,78.75,-770.0,-350.0,1,94.492,
01/01/2000,00:43:32.49,22.33,-55.63,-991.86,157.50,-665.0,-358.75,1,94.502,
01/01/2000,00:43:32.50,22.45,-55.51,-992.10,140.0,-708.75,-315.0,1,94.511,
01/01/2000,00:43:32.51,22.45,-55.63,-992.23,70.0,-665.0,-332.50,1,94.521,
01/01/2000,00:43:32.53,22.20,-55.75,-992.23,148.75,-673.75,-402.50,1,94.530,
01/01/2000,00:43:32.54,22.20,-55.63,-992.23,201.25,-735.0,-288.75,1,94.539,
01/01/2000,00:43:32.55,22.33,-55.63,-992.10,122.50,-656.25,-420.0,1,94.549,
01/01/2000,00:43:32.56,22.45,-55.63,-992.10,227.50,-717.50,-210.0,1,94.558,
01/01/2000,00:43:32.57,22.45,-55.51,-992.10,201.25,-743.75,-201.25,1,94.567,
01/01/2000,00:43:32.58,22.33,-55.63,-991.98,166.25,-778.75,-367.50,1,94.576,
01/01/2000,00:43:32.59,22.20,-55.63,-992.10,113.75,-551.25,-367.50,1,94.585,
01/01/2000,00:43:32.60,22.33,-55.51,-992.35,210.0,-612.50,-341.25,1,94.595,
01/01/2000,00:43:32.61,22.33,-55.39,-992.59,175.0,-656.25,-288.75,1,94.444,
01/01/2000,00:43:32.62,22.45,-55.39,-992.47,341.25,-603.75,-245.0,1,94.454,
01/01/2000,00:43:32.63,22.20,-55.63,-992.47,218.75,-682.50,-376.25,1,94.463,
01/01/2000,00:43:32.64,22.20,-55.75,-992.35,227.50,-647.50,-323.75,1,94.472,
01/01/2000,00:43:32.65,22.45,-55.75,-992.47,113.75,-708.75,-411.25,1,94.482,
01/01/2000,00:43:32.67,22.33,-55.63,-992.47,183.75,-708.75,-437.50,1,94.491,
01/01/2000,00:43:32.68,22.20,-55.63,-992.35,157.50,-612.50,-341.25,1,94.500,
01/01/2000,00:43:32.69,22.08,-55.63,-992.23,166.25,-665.0,-297.50,1,94.509,
01/01/2000,00:43:32.70,21.96,-55.39,-992.47,43.75,-761.25,-323.75,1,94.518,
01/01/2000,00:43:32.71,22.20,-55.39,-992.59,201.25,-665.0,-367.50,1,94.527,
01/01/2000,00:43:32.72,22.33,-55.39,-992.35,271.25,-673.75,-455.0,1,94.536,
01/01/2000,00:43:32.73,22.20,-55.51,-992.10,78.75,-665.0,-253.75,1,94.545,
01/01/2000,00:43:32.74,22.20,-55.63,-992.10,70.0,-761.25,-437.50,1,94.554,
01/01/2000,00:43:32.75,22.20,-55.51,-992.47,218.75,-735.0,-350.0,1,94.563,
01/01/2000,00:43:32.76,22.45,-55.14,-992.84,236.25,-708.75,-253.75,1,94.572,
01/01/2000,00:43:32.77,22.45,-55.14,-992.84,271.25,-673.75,-367.50,1,94.581,
01/01/2000,00:43:32.78,22.20,-55.39,-992.47,131.25,-796.25,-297.50,1,94.590,
01/01/2000,00:43:32.79,22.20,-55.63,-992.10,70.0,-735.0,-498.75,1,94.599,
01/01/2000,00:43:32.80,22.33,-55.63,-992.10,87.50,-735.0,-323.75,1,94.608,
01/01/2000,00:43:32.81,22.45,-55.63,-992.35,192.50,-700.0,-297.50,1,94.463,
01/01/2000,00:43:32.82,22.45,-55.39,-992.59,192.50,-691.25,-323.75,1,94.472,
01/01/2000,00:43:32.84,22.33,-55.39,-992.47,218.75,-717.50,-315.0,1,94.481,
01/01/2000,00:43:32.85,22.45,-55.39,-992.47,166.25,-612.50,-350.0,1,94.489,
01/01/2000,00:43:32.86,22.57,-55.39,-992.47,61.25,-700.0,-315.0,1,94.498,
01/01/2000,00:43:32.87,22.57,-55.51,-992.35,35.0,-647.50,-306.25,1,94.507,
01/01/2000,00:43:32.88,22.45,-55.63,-992.35,157.50,-743.75,-332.50,1,94.516,
01/01/2000,00:43:32.89,22.33,-55.51,-992.35,271.25,-761.25,-315.0,1,94.525,
01/01/2000,00:43:32.90,22.20,-55.39,-992.59,131.25,-656.25,-332.50,1,94.534,
01/01/2000,00:43:32.91,22.20,-55.39,-992.71,96.25,-621.25,-385.0,1,94.543,
01/01/2000,00:43:32.92,22.45,-55.51,-992.71,288.75,-726.25,-297.50,1,94.551,
01/01/2000,00:43:32.93,22.45,-55.75,-992.47,236.25,-656.25,-376.25,1,94.560,
01/01/2000,00:43:32.94,22.33,-55.75,-992.23,192.50,-656.25,-376.25,1,94.569,
01/01/2000,00:43:32.95,22.20,-55.63,-992.23,122.50,-848.75,-358.75,1,94.427,
01/01/2000,00:43:32.96,22.33,-55.51,-992.23,131.25,-673.75,-358.75,1,94.436,
01/01/2000,00:43:32.97,22.20,-55.27,-992.35,262.50,-743.75,-288.75,1,94.444,
01/01/2000,00:43:32.98,22.33,-55.39,-992.35,288.75,-796.25,-323.75,1,94.453,
01/01/2000,00:43:32.99,22.20,-55.63,-992.23,175.0,-796.25,-350.0,1,94.462,
01/01/2000,00:43:33.00,22.20,-55.63,-992.23,61.25,-682.50,-280.0,1,94.471,
01/01/2000,00:43:33.01,22.33,-55.63,-992.23,271.25,-656.25,-350.0,1,94.479,
01/01/2000,00:43:33.03,22.20,-55.39,-992.10,183.75,-717.50,-323.75,1,94.488,
01/01/2000,00:43:33.04,22.08,-55.39,-992.10,175.0,-665.0,-297.50,1,94.497,
01/01/2000,00:43:33.05,22.08,-55.39,-992.10,96.25,-700.0,-297.50,1,94.505,
01/01/2000,00:43:33.06,22.08,-55.63,-992.10,271.25,-726.25,-315.0,1,94.514,
01/01/2000,00:43:33.07,22.45,-55.88,-992.10,87.50,-603.75,-367.50,1,94.523,
01/01/2000,00:43:33.08,22.33,-55.88,-992.10,157.50,-673.75,-358.75,1,94.531,
01/01/2000,00:43:33.09,22.33,-55.75,-992.10,236.25,-691.25,-288.75,1,94.540,
01/01/2000,00:43:33.10,22.33,-55.63,-991.98,236.25,-700.0,-376.25,1,94.548,
01/01/2000,00:43:33.11,22.45,-55.51,-992.10,175.0,-735.0,-280.0,1,94.557,
01/01/2000,00:43:33.12,22.45,-55.51,-992.10,192.50,-743.75,-358.75,1,94.565,
01/01/2000,00:43:33.13,22.45,-55.63,-992.23,148.75,-726.25,-385.0,1,94.574,
01/01/2000,00:43:33.14,22.33,-55.75,-991.98,52.50,-630.0,-297.50,1,94.582,
01/01/2000,00:43:33.15,22.20,-55.88,-991.98,253.75,-743.75,-385.0,1,94.590,
01/01/2000,00:43:33.16,22.20,-55.63,-992.10,210.0,-673.75,-280.0,1,94.453,
01/01/2000,00:43:33.17,22.20,-55.63,-992.10,113.75,-621.25,-393.75,1,94.462,
01/01/2000,00:43:33.18,22.20,-55.63,-992.10,140.0,-665.0,-201.25,1,94.470,
01/01/2000,00:43:33.19,21.96,-55.75,-992.10,96.25,-691.25,-437.50,1,94.479,
01/01/2000,00:43:33.20,22.08,-55.75,-991.98,253.75,-700.0,-358.75,1,94.487,
01/01/2000,00:43:33.21,22.20,-55.63,-991.86,175.0,-638.75,-350.0,1,94.495,
01/01/2000,00:43:33.22,22.33,-55.63,-991.98,52.50,-638.75,-236.25,1,94.504,
01/01/2000,00:43:33.24,22.20,-55.75,-992.10,166.25,-752.50,-306.25,1,94.512,
01/01/2000,00:43:33.25,22.20,-55.63,-992.10,148.75,-708.75,-253.75,1,94.521,
01/01/2000,00:43:33.26,22.33,-55.63,-992.10,192.50,-603.75,-385.0,1,94.529,
01/01/2000,00:43:33.27,22.45,-55.63,-992.23,201.25,-586.25,-315.0,1,94.537,
01/01/2000,00:43:33.28,22.33,-55.63,-992.35,245.0,-673.75,-437.50,1,94.545,
01/01/2000,00:43:33.29,22.33,-55.63,-992.35,96.25,-665.0,-183.75,1,94.554,
01/01/2000,00:43:33.30,22.20,-55.63,-992.59,87.50,-595.0,-393.75,1,94.419,
01/01/2000,00:43:33.31,22.08,-55.39,-992.71,288.75,-638.75,-315.0,1,94.428,
01/01/2000,00:43:33.32,22.20,-55.51,-992.71,271.25,-805.0,-288.75,1,94.436,
01/01/2000,00:43:33.33,22.20,-55.51,-992.71,297.50,-665.0,-428.75,1,94.444,
01/01/2000,00:43:33.35,22.20,-55.63,-992.47,148.75,-700.0,-227.50,1,94.453,
01/01/2000,00:43:33.36,22.20,-55.63,-992.35,122.50,-708.75,-411.25,1,94.461,
01/01/2000,00:43:33.37,22.08,-55.39,-992.35,201.25,-708.75,-262.50,1,94.469,
01/01/2000,00:43:33.38,22.33,-55.51,-992.47,315.0,-752.50,-306.25,1,94.478,
01/01/2000,00:43:33.39,22.20,-55.39,-992.59,227.50,-726.25,-271.25,1,94.486,
01/01/2000,00:43:33.40,22.20,-55.75,-992.35,183.75,-673.75,-411.25,1,94.494,
01/01/2000,00:43:33.41,22.20,-55.63,-992.10,148.75,-726.25,-166.25,1,94.502,
01/01/2000,00:43:33.42,22.33,-55.51,-992.10,122.50,-735.0,-358.75,1,94.510,
01/01/2000,00:43:33.43,22.45,-55.51,-991.98,253.75,-717.50,-376.25,1,94.519,
01/01/2000,00:43:33.44,22.20,-55.51,-992.10,218.75,-691.25,-358.75,1,94.527,
01/01/2000,00:43:33.45,22.20,-55.63,-992.10,105.0,-638.75,-236.25,1,94.535,
01/01/2000,00:43:33.46,22.20,-55.75,-992.35,210.0,-673.75,-385.0,1,94.543,
01/01/2000,00:43:33.47,22.20,-55.63,-992.35,148.75,-761.25,-253.75,1,94.551,
01/01/2000,00:43:33.48,22.33,-55.63,-992.23,245.0,-735.0,-315.0,1,94.559,
01/01/2000,00:43:33.49,22.20,-55.63,-992.10,122.50,-813.75,-262.50,1,94.567,
01/01/2000,00:43:33.50,22.33,-55.51,-991.98,288.75,-778.75,-437.50,1,94.575,
01/01/2000,00:43:33.51,22.20,-55.63,-992.10,192.50,-665.0,-420.0,1,94.444,
01/01/2000,00:43:33.52,22.20,-55.39,-992.23,78.75,-735.0,-306.25,1,94.453,
01/01/2000,00:43:33.54,22.33,-55.63,-992.23,192.50,-656.25,-420.0,1,94.461,
01/01/2000,00:43:33.54,22.45,-55.39,-992.23,140.0,-665.0,-245.0,1,94.469,
01/01/2000,00:43:33.56,22.57,-55.39,-992.10,131.25,-717.50,-306.25,1,94.477,
01/01/2000,00:43:33.57,22.57,-55.63,-991.98,175.0,-665.0,-420.0,1,94.485,
01/01/2000,00:43:33.58,22.45,-55.51,-992.23,210.0,-673.75,-393.75,1,94.493,
01/01/2000,00:43:33.59,22.57,-55.75,-992.23,131.25,-796.25,-455.0,1,94.501,
01/01/2000,00:43:33.60,22.45,-55.27,-991.98,166.25,-691.25,-332.50,1,94.509,
01/01/2000,00:43:33.61,22.57,-55.39,-991.86,113.75,-647.50,-297.50,1,94.517,
01/01/2000,00:43:33.62,22.45,-55.63,-991.86,157.50,-700.0,-166.25,1,94.524,
01/01/2000,00:43:33.63,22.33,-55.75,-992.10,96.25,-778.75,-437.50,1,94.532,
01/01/2000,00:43:33.64,22.57,-55.88,-992.10,70.0,-726.25,-385.0,1,94.540,
01/01/2000,00:43:33.65,22.45,-55.63,-992.10,105.0,-726.25,-350.0,1,94.548,
01/01/2000,00:43:33.66,22.33,-55.51,-991.98,297.50,-612.50,-411.25,1,94.421,
01/01/2000,00:43:33.67,22.33,-55.39,-991.98,166.25,-691.25,-332.50,1,94.429,
01/01/2000,00:43:33.68,22.45,-55.39,-992.10,52.50,-656.25,-218.75,1,94.437,
01/01/2000,00:43:33.69,22.57,-55.63,-992.35,236.25,-717.50,-420.0,1,94.444,
01/01/2000,00:43:33.70,22.45,-55.88,-992.23,210.0,-717.50,-245.0,1,94.452,
01/01/2000,00:43:33.71,22.45,-55.88,-991.98,122.50,-621.25,-481.25,1,94.460,
01/01/2000,00:43:33.73,22.45,-55.39,-991.86,96.25,-726.25,-245.0,1,94.468,
01/01/2000,00:43:33.74,22.45,-55.39,-992.10,183.75,-805.0,-297.50,1,94.476,
01/01/2000,00:43:33.75,22.57,-55.39,-992.23,175.0,-638.75,-315.0,1,94.484,
01/01/2000,00:43:33.76,22.45,-55.75,-992.10,122.50,-638.75,-428.75,1,94.492,
01/01/2000,00:43:33.77,22.57,-56.00,-991.98,166.25,-673.75,-420.0,1,94.499,
01/01/2000,00:43:33.78,22.57,-55.88,-991.86,157.50,-831.25,-297.50,1,94.507,
01/01/2000,00:43:33.79,22.69,-55.75,-991.86,236.25,-630.0,-332.50,1,94.515,
01/01/2000,00:43:33.80,22.45,-55.63,-991.86,105.0,-700.0,-463.75,1,94.522,
01/01/2000,00:43:33.81,22.20,-55.51,-991.86,148.75,-682.50,-201.25,1,94.530,
01/01/2000,00:43:33.82,22.20,-55.63,-991.98,61.25,-612.50,-358.75,1,94.538,
01/01/2000,00:43:33.83,22.45,-55.63,-991.98,210.0,-656.25,-253.75,1,94.545,
01/01/2000,00:43:33.84,22.69,-55.75,-991.98,271.25,-665.0,-402.50,1,94.553,
01/01/2000,00:43:33.86,22.57,-55.63,-991.86,157.50,-577.50,-341.25,1,94.429,
01/01/2000,00:43:33.87,22.45,-55.75,-991.98,245.0,-708.75,-393.75,1,94.437,
01/01/2000,00:43:33.88,22.57,-55.63,-992.10,122.50,-638.75,-350.0,1,94.444,
01/01/2000,00:43:33.89,22.81,-55.63,-991.98,175.0,-717.50,-271.25,1,94.452,
01/01/2000,00:43:33.90,22.81,-55.75,-991.74,140.0,-831.25,-306.25,1,94.460,
01/01/2000,00:43:33.91,22.69,-55.88,-991.62,78.75,-586.25,-323.75,1,94.467,
01/01/2000,00:43:33.92,22.69,-56.24,-991.74,113.75,-673.75,-315.0,1,94.475,
01/01/2000,00:43:33.93,22.69,-55.88,-991.98,166.25,-708.75,-463.75,1,94.483,
01/01/2000,00:43:33.94,22.81,-56.00,-992.23,113.75,-673.75,-358.75,1,94.490,
01/01/2000,00:43:33.95,22.69,-55.75,-992.10,175.0,-586.25,-341.25,1,94.498,
01/01/2000,00:43:33.96,22.69,-55.75,-991.86,8.75,-612.50,-315.0,1,94.505,
01/01/2000,00:43:33.97,22.69,-55.88,-991.86,157.50,-726.25,-297.50,1,94.513,
01/01/2000,00:43:33.98,22.69,-55.75,-992.10,245.0,-743.75,-245.0,1,94.521,
01/01/2000,00:43:33.99,22.69,-55.75,-992.35,227.50,-665.0,-402.50,1,94.528,
01/01/2000,00:43:34.00,22.45,-55.75,-992.10,175.0,-612.50,-262.50,1,94.536,
01/01/2000,00:43:34.01,22.45,-55.39,-991.98,218.75,-691.25,-350.0,1,94.414,
01/01/2000,00:43:34.02,22.45,-55.51,-992.10,306.25,-621.25,-288.75,1,94.422,
01/01/2000,00:43:34.03,22.45,-55.63,-991.98,148.75,-568.75,-262.50,1,94.429,
01/01/2000,00:43:34.04,22.69,-56.00,-991.86,140.0,-708.75,-402.50,1,94.437,
01/01/2000,00:43:34.05,22.57,-56.00,-991.86,166.25,-726.25,-332.50,1,94.444,
01/01/2000,00:43:34.06,22.45,-55.75,-991.86,218.75,-875.0,-376.25,1,94.452,
01/01/2000,00:43:34.08,22.57,-55.63,-992.10,70.0,-735.0,-183.75,1,94.459,
01/01/2000,00:43:34.09,22.69,-55.88,-992.10,70.0,-647.50,-315.0,1,94.467,
01/01/2000,00:43:34.10,22.57,-56.00,-991.98,192.50,-656.25,-245.0,1,94.474,
01/01/2000,00:43:34.11,22.45,-56.12,-991.86,131.25,-682.50,-280.0,1,94.482,
01/01/2000,00:43:34.12,22.45,-56.00,-991.86,113.75,-708.75,-323.75,1,94.489,
01/01/2000,00:43:34.13,22.45,-55.75,-991.98,157.50,-638.75,-411.25,1,94.497,
01/01/2000,00:43:34.14,22.45,-55.63,-992.10,113.75,-700.0,-297.50,1,94.504,
01/01/2000,00:43:34.15,22.45,-55.51,-992.35,236.25,-612.50,-315.0,1,94.511,
01/01/2000,00:43:34.16,22.45,-55.63,-992.47,105.0,-621.25,-367.50,1,94.519,
01/01/2000,00:43:34.17,22.57,-55.63,-992.47,201.25,-595.0,-358.75,1,94.526,
01/01/2000,00:43:34.18,22.69,-55.75,-992.35,70.0,-621.25,-367.50,1,94.533,
01/01/2000,00:43:34.19,22.69,-55.75,-992.10,157.50,-691.25,-288.75,1,94.541,
01/01/2000,00:43:34.20,22.69,-55.75,-991.98,192.50,-665.0,-358.75,1,94.422,
01/01/2000,00:43:34.21,22.45,-55.75,-992.10,87.50,-568.75,-358.75,1,94.555,
01/01/2000,00:43:34.23,22.45,-55.51,-992.35,402.50,-560.0,-507.50,1,94.437,
01/01/2000,00:43:34.24,22.20,-55.39,-992.23,70.0,-673.75,-595.0,1,94.444,
01/01/2000,00:43:34.25,23.18,-55.39,-991.98,87.50,-752.50,-323.75,1,94.452,
01/01/2000,00:43:34.26,22.94,-55.88,-991.62,245.0,-770.0,245.0,1,94.459,
01/01/2000,00:43:34.27,22.20,-56.36,-991.62,17.50,-621.25,-393.75,1,94.466,
01/01/2000,00:43:34.28,22.08,-56.61,-991.98,297.50,-796.25,-630.0,1,94.474,
01/01/2000,00:43:34.29,22.20,-55.63,-992.47,297.50,-708.75,-297.50,1,94.481,
01/01/2000,00:43:34.30,22.57,-54.90,-992.23,227.50,-665.0,-245.0,1,94.488,
01/01/2000,00:43:34.31,22.33,-55.27,-991.86,227.50,-595.0,-210.0,1,94.495,
01/01/2000,00:43:34.32,22.45,-55.27,-991.49,-35.0,-700.0,-376.25,1,94.503,
01/01/2000,00:43:34.33,22.33,-56.12,-991.98,332.50,-717.50,-385.0,1,94.510,
01/01/2000,00:43:34.34,22.45,-56.00,-992.10,78.75,-726.25,-376.25,1,94.517,
01/01/2000,00:43:34.35,22.45,-55.88,-992.10,288.75,-770.0,-367.50,1,94.524,
01/01/2000,00:43:34.37,22.20,-55.27,-991.86,227.50,-665.0,-367.50,1,94.408,
01/01/2000,00:43:34.38,22.20,-55.51,-991.86,218.75,-673.75,-157.50,1,94.416,
01/01/2000,00:43:34.39,22.45,-55.51,-992.35,96.25,-682.50,-341.25,1,94.423,
01/01/2000,00:43:34.40,22.57,-55.88,-992.59,87.50,-560.0,-236.25,1,94.430,
01/01/2000,00:43:34.41,22.69,-56.00,-992.35,122.50,-612.50,-385.0,1,94.437,
01/01/2000,00:43:34.42,22.45,-55.88,-992.10,43.75,-743.75,-376.25,1,94.444,
01/01/2000,00:43:34.43,22.45,-55.63,-991.86,210.0,-595.0,-341.25,1,94.452,
01/01/2000,00:43:34.44,22.45,-55.39,-991.98,35.0,-612.50,-411.25,1,94.459,
01/01/2000,00:43:34.45,22.45,-55.39,-991.98,166.25,-656.25,-245.0,1,94.466,
01/01/2000,00:43:34.46,22.69,-55.63,-992.10,52.50,-621.25,-210.0,1,94.473,
01/01/2000,00:43:34.47,22.45,-55.88,-991.86,113.75,-778.75,-271.25,1,94.480,
01/01/2000,00:43:34.48,22.33,-55.88,-991.86,70.0,-673.75,-411.25,1,94.487,
01/01/2000,00:43:34.49,22.20,-55.88,-991.98,227.50,-805.0,-367.50,1,94.494,
01/01/2000,00:43:34.50,22.57,-55.63,-992.35,61.25,-656.25,-201.25,1,94.501,
01/01/2000,00:43:34.51,22.45,-55.63,-992.47,245.0,-700.0,-341.25,1,94.388,
01/01/2000,00:43:34.52,22.33,-55.51,-992.35,183.75,-621.25,-245.0,1,94.515,
01/01/2000,00:43:34.53,22.33,-55.63,-991.86,113.75,-647.50,-341.25,1,94.402,
01/01/2000,00:43:34.54,22.45,-55.75,-991.98,78.75,-778.75,-315.0,1,94.409,
01/01/2000,00:43:34.55,22.57,-55.75,-992.35,148.75,-647.50,-350.0,1,94.416,
01/01/2000,00:43:34.56,22.45,-55.88,-992.35,323.75,-735.0,-341.25,1,94.423,
01/01/2000,00:43:34.57,22.45,-55.63,-992.23,148.75,-691.25,-288.75,1,94.430,
01/01/2000,00:43:34.58,22.20,-55.39,-992.10,227.50,-726.25,-262.50,1,94.437,
01/01/2000,00:43:34.59,22.20,-55.51,-991.98,201.25,-647.50,-323.75,1,94.444,
01/01/2000,00:43:34.60,22.45,-55.51,-991.86,35.0,-595.0,-271.25,1,94.451,
01/01/2000,00:43:34.61,22.45,-55.88,-991.62,175.0,-752.50,-367.50,1,94.458,
01/01/2000,00:43:34.62,22.20,-55.75,-991.74,210.0,-700.0,-245.0,1,94.465,
01/01/2000,00:43:34.63,22.20,-55.63,-991.62,262.50,-551.25,-358.75,1,94.472,
01/01/2000,00:43:34.65,22.33,-55.39,-991.86,306.25,-761.25,-315.0,1,94.479,
01/01/2000,00:43:34.66,22.45,-55.14,-992.10,122.50,-752.50,-350.0,1,94.486,
01/01/2000,00:43:34.67,22.45,-55.39,-992.10,78.75,-700.0,-358.75,1,94.493,
01/01/2000,00:43:34.68,22.45,-55.39,-991.86,148.75,-691.25,-385.0,1,94.500,
01/01/2000,00:43:34.69,22.33,-55.63,-991.86,148.75,-717.50,-350.0,1,94.507,
01/01/2000,00:43:34.70,22.45,-55.51,-991.86,201.25,-743.75,-288.75,1,94.514,
01/01/2000,00:43:34.71,22.45,-55.51,-992.10,35.0,-638.75,-280.0,1,94.521,
01/01/2000,00:43:34.72,22.45,-55.63,-992.23,113.75,-752.50,-437.50,1,94.410,
01/01/2000,00:43:34.73,22.45,-55.63,-992.23,306.25,-752.50,-253.75,1,94.534,
01/01/2000,00:43:34.74,22.33,-55.63,-992.23,78.75,-612.50,-323.75,1,94.424,
01/01/2000,00:43:34.75,22.33,-55.88,-992.35,122.50,-647.50,-358.75,1,94.548,
01/01/2000,00:43:34.76,22.45,-55.63,-992.47,140.0,-700.0,-420.0,1,94.438,
01/01/2000,00:43:34.77,22.69,-55.63,-992.35,131.25,-682.50,-323.75,1,94.444,
01/01/2000,00:43:34.79,22.45,-55.51,-992.10,17.50,-638.75,-367.50,1,94.451,
01/01/2000,00:43:34.80,22.33,-55.63,-992.35,52.50,-717.50,-315.0,1,94.458,
01/01/2000,00:43:34.81,22.45,-55.88,-992.35,113.75,-717.50,-428.75,1,94.465,
01/01/2000,00:43:34.82,22.45,-55.75,-992.47,70.0,-752.50,-315.0,1,94.472,
01/01/2000,00:43:34.83,22.45,-55.75,-992.35,262.50,-726.25,-227.50,1,94.479,
01/01/2000,00:43:34.84,22.33,-55.88,-992.10,175.0,-691.25,-332.50,1,94.485,
01/01/2000,00:43:34.85,22.33,-55.88,-992.23,122.50,-673.75,-262.50,1,94.492,
01/01/2000,00:43:34.86,22.20,-55.75,-992.59,105.0,-682.50,-323.75,1,94.499,
01/01/2000,00:43:34.87,22.20,-55.63,-992.59,131.25,-726.25,-402.50,1,94.390,
01/01/2000,00:43:34.89,22.33,-55.63,-992.47,192.50,-700.0,-315.0,1,94.397,
01/01/2000,00:43:34.90,22.20,-55.63,-992.35,157.50,-638.75,-376.25,1,94.404,
01/01/2000,00:43:34.91,22.45,-55.75,-992.35,297.50,-586.25,-245.0,1,94.411,
01/01/2000,00:43:34.92,22.45,-55.75,-992.59,227.50,-665.0,-420.0,1,94.417,
01/01/2000,00:43:34.93,22.45,-55.63,-992.47,113.75,-752.50,-148.75,1,94.424,
01/01/2000,00:43:34.94,22.33,-55.75,-992.23,183.75,-700.0,-446.25,1,94.431,
01/01/2000,00:43:34.95,22.20,-55.63,-992.10,70.0,-621.25,-306.25,1,94.438,
01/01/2000,00:43:34.96,22.33,-55.88,-992.35,122.50,-735.0,-393.75,1,94.444,
01/01/2000,00:43:34.97,22.45,-55.63,-992.23,96.25,-700.0,-376.25,1,94.451,
01/01/2000,00:43:34.98,22.33,-56.00,-992.23,288.75,-726.25,-271.25,1,94.458,
01/01/2000,00:43:34.99,22.20,-55.88,-992.10,131.25,-647.50,-280.0,1,94.465,
01/01/2000,00:43:35.00,22.08,-55.88,-992.10,183.75,-822.50,-385.0,1,94.471,
01/01/2000,00:43:35.01,22.20,-55.63,-992.10,131.25,-700.0,-201.25,1,94.478,
01/01/2000,00:43:35.02,22.45,-55.39,-992.10,35.0,-717.50,-262.50,1,94.484,
01/01/2000,00:43:35.03,22.45,-55.88,-991.86,192.50,-612.50,-297.50,1,94.491,
01/01/2000,00:43:35.04,22.45,-56.00,-991.86,166.25,-717.50,-428.75,1,94.498,
01/01/2000,00:43:35.05,22.20,-56.12,-991.98,245.0,-787.50,-428.75,1,94.504,
01/01/2000,00:43:35.06,22.45,-55.88,-991.98,210.0,-726.25,-402.50,1,94.511,
01/01/2000,00:43:35.07,22.45,-55.51,-992.10,52.50,-761.25,-323.75,1,94.405,
01/01/2000,00:43:35.08,22.45,-55.63,-992.10,253.75,-673.75,-288.75,1,94.411,
01/01/2000,00:43:35.09,22.20,-55.63,-991.98,280.0,-682.50,-236.25,1,94.418,
01/01/2000,00:43:35.10,22.33,-55.75,-991.86,26.25,-586.25,-393.75,1,94.425,
01/01/2000,00:43:35.11,22.57,-55.88,-992.10,280.0,-910.0,-297.50,1,94.431,
01/01/2000,00:43:35.12,22.69,-55.63,-992.23,87.50,-700.0,-341.25,1,94.438,
01/01/2000,00:43:35.14,22.69,-55.39,-992.10,245.0,-743.75,-323.75,1,94.444,
01/01/2000,00:43:35.15,22.45,-55.39,-992.10,131.25,-647.50,-210.0,1,94.451,
01/01/2000,00:43:35.16,22.57,-55.51,-992.10,183.75,-717.50,-245.0,1,94.458,
01/01/2000,00:43:35.17,22.69,-55.63,-992.10,227.50,-665.0,-385.0,1,94.464,
01/01/2000,00:43:35.18,22.69,-55.51,-992.35,122.50,-691.25,-376.25,1,94.471,
01/01/2000,00:43:35.19,22.69,-55.51,-992.35,227.50,-700.0,-350.0,1,94.477,
01/01/2000,00:43:35.20,22.57,-55.39,-992.10,140.0,-647.50,-498.75,1,94.484,
01/01/2000,00:43:35.21,22.57,-55.14,-991.86,140.0,-717.50,-227.50,1,94.490,
01/01/2000,00:43:35.22,22.69,-55.14,-991.86,280.0,-700.0,-315.0,1,94.496,
01/01/2000,00:43:35.23,22.69,-55.14,-991.86,323.75,-647.50,-323.75,1,94.503,
01/01/2000,00:43:35.24,22.69,-55.39,-991.86,157.50,-743.75,-402.50,1,94.509,
01/01/2000,00:43:35.25,22.57,-55.51,-991.86,131.25,-735.0,-420.0,1,94.516,
01/01/2000,00:43:35.26,22.45,-55.63,-992.10,271.25,-638.75,-332.50,1,94.522,
01/01/2000,00:43:35.27,22.45,-55.63,-992.23,113.75,-726.25,-393.75,1,94.529,
01/01/2000,00:43:35.28,22.45,-55.88,-992.35,201.25,-656.25,-280.0,1,94.425,
01/01/2000,00:43:35.29,22.33,-55.88,-992.35,113.75,-787.50,-262.50,1,94.432,
01/01/2000,00:43:35.30,22.20,-55.88,-992.23,105.0,-743.75,-358.75,1,94.438,
01/01/2000,00:43:35.31,22.20,-55.75,-992.35,122.50,-708.75,-297.50,1,94.444,
01/01/2000,00:43:35.32,22.33,-55.63,-992.35,201.25,-647.50,-437.50,1,94.451,
01/01/2000,00:43:35.33,22.45,-55.63,-992.47,87.50,-603.75,-236.25,1,94.457,
01/01/2000,00:43:35.35,22.45,-55.75,-992.35,201.25,-586.25,-341.25,1,94.464,
01/01/2000,00:43:35.36,22.33,-55.88,-992.47,253.75,-708.75,-411.25,1,94.470,
01/01/2000,00:43:35.37,22.33,-55.88,-992.35,122.50,-630.0,-420.0,1,94.476,
01/01/2000,00:43:35.38,22.20,-55.88,-992.10,131.25,-726.25,-376.25,1,94.374,
01/01/2000,00:43:35.39,22.08,-56.00,-992.10,148.75,-647.50,-428.75,1,94.381,
01/01/2000,00:43:35.40,21.96,-56.12,-992.23,166.25,-700.0,-393.75,1,94.387,
01/01/2000,00:43:35.41,22.20,-55.88,-992.23,227.50,-691.25,-376.25,1,94.394,
01/01/2000,00:43:35.42,22.33,-55.75,-992.23,157.50,-647.50,-350.0,1,94.400,
01/01/2000,00:43:35.44,22.20,-55.88,-992.23,245.0,-586.25,-306.25,1,94.406,
01/01/2000,00:43:35.45,22.20,-55.88,-992.35,148.75,-630.0,-323.75,1,94.413,
01/01/2000,00:43:35.46,22.33,-55.88,-992.47,122.50,-752.50,-367.50,1,94.419,
01/01/2000,00:43:35.47,22.45,-55.75,-992.59,140.0,-691.25,-402.50,1,94.425,
01/01/2000,00:43:35.48,22.45,-55.75,-992.47,175.0,-726.25,-393.75,1,94.432,
01/01/2000,00:43:35.49,22.33,-56.00,-992.23,271.25,-691.25,-306.25,1,94.438,
01/01/2000,00:43:35.50,22.20,-56.12,-992.23,122.50,-805.0,-332.50,1,94.444,
01/01/2000,00:43:35.51,22.33,-55.88,-992.35,245.0,-708.75,-350.0,1,94.451,
01/01/2000,00:43:35.52,22.45,-55.88,-992.35,78.75,-796.25,-288.75,1,94.457,
01/01/2000,00:43:35.53,22.45,-55.75,-992.35,148.75,-630.0,-271.25,1,94.463,
01/01/2000,00:43:35.54,22.45,-55.75,-992.23,297.50,-752.50,-315.0,1,94.470,
01/01/2000,00:43:35.55,22.33,-55.88,-992.23,157.50,-630.0,-288.75,1,94.476,
01/01/2000,00:43:35.56,22.33,-55.88,-992.35,-8.75,-665.0,-288.75,1,94.482,
01/01/2000,00:43:35.57,22.33,-55.88,-992.35,183.75,-796.25,-428.75,1,94.488,
01/01/2000,00:43:35.58,22.20,-55.63,-992.35,253.75,-638.75,-253.75,1,94.494,
01/01/2000,00:43:35.59,22.20,-55.88,-992.35,113.75,-726.25,-297.50,1,94.501,
01/01/2000,00:43:35.60,22.20,-55.88,-992.35,271.25,-717.50,-393.75,1,94.507,
01/01/2000,00:43:35.61,22.20,-55.88,-992.59,166.25,-682.50,-350.0,1,94.513,
01/01/2000,00:43:35.62,22.20,-56.12,-992.59,166.25,-568.75,-332.50,1,94.519,
01/01/2000,00:43:35.63,22.20,-55.88,-992.47,96.25,-717.50,-332.50,1,94.420,
01/01/2000,00:43:35.64,22.33,-55.88,-992.47,183.75,-700.0,-420.0,1,94.426,
01/01/2000,00:43:35.65,22.33,-55.88,-992.59,192.50,-656.25,-262.50,1,94.432,
01/01/2000,00:43:35.66,22.20,-55.88,-992.84,87.50,-761.25,-323.75,1,94.438,
01/01/2000,00:43:35.67,22.20,-56.00,-992.84,35.0,-682.50,-253.75,1,94.444,
01/01/2000,00:43:35.68,22.20,-55.88,-992.84,105.0,-708.75,-428.75,1,94.451,
01/01/2000,00:43:35.70,22.33,-55.75,-992.35,148.75,-735.0,-315.0,1,94.457,
01/01/2000,00:43:35.71,22.20,-55.75,-992.35,192.50,-770.0,-358.75,1,94.463,
01/01/2000,00:43:35.72,22.20,-55.51,-992.59,96.25,-507.50,-297.50,1,94.469,
01/01/2000,00:43:35.73,22.20,-55.63,-992.84,70.0,-752.50,-420.0,1,94.475,
01/01/2000,00:43:35.74,22.33,-55.39,-992.84,175.0,-743.75,-350.0,1,94.481,
01/01/2000,00:43:35.75,22.45,-55.63,-992.84,192.50,-656.25,-253.75,1,94.487,
01/01/2000,00:43:35.76,22.45,-55.63,-992.71,122.50,-743.75,-236.25,1,94.493,
01/01/2000,00:43:35.77,22.45,-55.51,-992.59,140.0,-717.50,-280.0,1,94.499,
01/01/2000,00:43:35.78,22.45,-55.51,-992.84,87.50,-630.0,-402.50,1,94.505,
01/01/2000,00:43:35.79,22.57,-55.39,-992.96,245.0,-717.50,-402.50,1,94.512,
01/01/2000,00:43:35.80,22.57,-55.51,-992.96,140.0,-673.75,-393.75,1,94.518,
01/01/2000,00:43:35.81,22.57,-55.63,-992.59,253.75,-595.0,-341.25,1,94.524,
01/01/2000,00:43:35.82,22.45,-55.63,-992.35,131.25,-752.50,-411.25,1,94.530,
01/01/2000,00:43:35.83,22.57,-55.63,-992.35,183.75,-735.0,-341.25,1,94.536,
01/01/2000,00:43:35.84,22.45,-55.63,-992.84,245.0,-752.50,-358.75,1,94.438,
01/01/2000,00:43:35.85,22.45,-55.75,-992.84,183.75,-708.75,-253.75,1,94.444,
01/01/2000,00:43:35.86,22.45,-55.63,-992.47,131.25,-673.75,-341.25,1,94.450,
01/01/2000,00:43:35.87,22.57,-55.51,-992.10,78.75,-673.75,-288.75,1,94.457,
01/01/2000,00:43:35.88,22.57,-55.75,-991.98,210.0,-630.0,-315.0,1,94.463,
01/01/2000,00:43:35.90,22.45,-55.88,-992.35,166.25,-691.25,-446.25,1,94.469,
01/01/2000,00:43:35.91,22.33,-55.75,-992.71,306.25,-647.50,-253.75,1,94.372,
01/01/2000,00:43:35.92,22.45,-55.51,-992.59,70.0,-656.25,-297.50,1,94.378,
01/01/2000,00:43:35.93,22.57,-55.51,-992.10,271.25,-647.50,-288.75,1,94.384,
01/01/2000,00:43:35.94,22.57,-55.63,-991.98,70.0,-665.0,-227.50,1,94.391,
01/01/2000,00:43:35.95,22.69,-55.88,-991.98,122.50,-673.75,-420.0,1,94.397,
01/01/2000,00:43:35.96,22.57,-56.00,-992.10,227.50,-691.25,-323.75,1,94.403,
01/01/2000,00:43:35.97,22.57,-55.75,-992.23,105.0,-717.50,-262.50,1,94.409,
01/01/2000,00:43:35.99,22.45,-55.63,-992.10,253.75,-726.25,-437.50,1,94.415,
01/01/2000,00:43:36.00,22.45,-55.39,-991.86,8.75,-621.25,-227.50,1,94.421,
01/01/2000,00:43:36.01,22.45,-55.63,-991.86,157.50,-673.75,-323.75,1,94.427,
01/01/2000,00:43:36.02,22.45,-55.88,-992.23,218.75,-665.0,-297.50,1,94.433,
01/01/2000,00:43:36.03,22.45,-55.88,-992.35,131.25,-700.0,-358.75,1,94.438,
01/01/2000,00:43:36.04,22.45,-55.88,-992.35,245.0,-673.75,-306.25,1,94.444,
01/01/2000,00:43:36.05,22.45,-55.63,-991.98,122.50,-726.25,-411.25,1,94.450,
01/01/2000,00:43:36.06,22.20,-55.63,-991.86,253.75,-665.0,-262.50,1,94.456,
01/01/2000,00:43:36.07,22.20,-55.88,-991.98,17.50,-647.50,-323.75,1,94.462,
01/01/2000,00:43:36.08,22.20,-56.12,-992.23,43.75,-717.50,-393.75,1,94.468,
01/01/2000,00:43:36.09,22.20,-56.12,-992.23,210.0,-647.50,-297.50,1,94.474,
01/01/2000,00:43:36.10,22.20,-55.88,-991.98,131.25,-673.75,-323.75,1,94.480,
01/01/2000,00:43:36.11,22.20,-55.88,-991.86,122.50,-638.75,-315.0,1,94.486,
01/01/2000,00:43:36.12,22.45,-55.88,-992.10,105.0,-735.0,-367.50,1,94.392,
01/01/2000,00:43:36.13,22.57,-55.88,-992.35,175.0,-673.75,-428.75,1,94.397,
01/01/2000,00:43:36.14,22.45,-56.00,-992.35,96.25,-682.50,-297.50,1,94.403,
01/01/2000,00:43:36.15,22.45,-56.12,-992.23,140.0,-638.75,-463.75,1,94.409,
01/01/2000,00:43:36.16,22.33,-55.88,-992.23,122.50,-708.75,-288.75,1,94.415,
01/01/2000,00:43:36.17,22.45,-55.75,-992.35,96.25,-770.0,-297.50,1,94.421,
01/01/2000,00:43:36.18,22.57,-55.88,-992.59,175.0,-700.0,-288.75,1,94.427,
01/01/2000,00:43:36.20,22.45,-56.00,-992.47,148.75,-700.0,-376.25,1,94.433,
01/01/2000,00:43:36.21,22.45,-56.12,-992.35,175.0,-752.50,-332.50,1,94.439,
01/01/2000,00:43:36.22,22.45,-56.00,-992.35,78.75,-665.0,-271.25,1,94.444,
01/01/2000,00:43:36.23,22.45,-55.88,-992.35,192.50,-691.25,-262.50,1,94.450,
01/01/2000,00:43:36.24,22.45,-55.88,-992.10,61.25,-717.50,-323.75,1,94.456,
01/01/2000,00:43:36.25,22.20,-56.12,-992.10,87.50,-621.25,-297.50,1,94.462,
01/01/2000,00:43:36.26,22.20,-56.24,-992.10,306.25,-752.50,-297.50,1,94.468,
01/01/2000,00:43:36.27,22.45,-56.12,-992.23,306.25,-726.25,-393.75,1,94.473,
01/01/2000,00:43:36.28,22.57,-56.00,-992.10,148.75,-743.75,-227.50,1,94.381,
01/01/2000,00:43:36.29,22.57,-55.88,-991.98,140.0,-735.0,-455.0,1,94.485,
01/01/2000,00:43:36.30,22.33,-56.00,-991.86,113.75,-726.25,-253.75,1,94.393,
01/01/2000,00:43:36.31,22.33,-56.00,-991.86,227.50,-752.50,-376.25,1,94.398,
01/01/2000,00:43:36.32,22.57,-55.88,-991.86,245.0,-656.25,-376.25,1,94.404,
01/01/2000,00:43:36.34,22.57,-55.75,-991.86,192.50,-761.25,-271.25,1,94.410,
01/01/2000,00:43:36.35,22.57,-55.88,-991.86,236.25,-743.75,-428.75,1,94.416,
01/01/2000,00:43:36.36,22.45,-56.00,-991.86,218.75,-743.75,-323.75,1,94.421,
01/01/2000,00:43:36.37,22.45,-55.88,-991.86,288.75,-700.0,-411.25,1,94.427,
01/01/2000,00:43:36.38,22.45,-55.75,-991.86,183.75,-752.50,-385.0,1,94.433,
01/01/2000,00:43:36.39,22.33,-55.63,-991.86,236.25,-700.0,-288.75,1,94.439,
01/01/2000,00:43:36.40,22.20,-55.88,-991.86,218.75,-630.0,-323.75,1,94.347,
01/01/2000,00:43:36.42,22.33,-55.88,-991.74,201.25,-700.0,-341.25,1,94.353,
01/01/2000,00:43:36.43,22.33,-55.88,-991.86,297.50,-595.0,-323.75,1,94.359,
01/01/2000,00:43:36.44,22.45,-55.63,-992.10,140.0,-621.25,-376.25,1,94.365,
01/01/2000,00:43:36.45,22.33,-55.63,-992.10,148.75,-673.75,-376.25,1,94.371,
01/01/2000,00:43:36.46,22.20,-55.63,-992.23,166.25,-665.0,-315.0,1,94.376,
01/01/2000,00:43:36.47,22.33,-55.88,-992.10,227.50,-726.25,-420.0,1,94.382,
01/01/2000,00:43:36.48,22.45,-55.88,-992.10,157.50,-787.50,-350.0,1,94.388,
01/01/2000,00:43:36.49,22.45,-55.75,-991.98,113.75,-647.50,-306.25,1,94.393,
01/01/2000,00:43:36.50,22.45,-55.88,-991.86,148.75,-638.75,-358.75,1,94.399,
01/01/2000,00:43:36.51,22.33,-55.75,-991.86,218.75,-682.50,-385.0,1,94.405,
01/01/2000,00:43:36.52,22.20,-55.75,-991.98,210.0,-577.50,-385.0,1,94.411,
01/01/2000,00:43:36.53,22.45,-55.63,-992.10,183.75,-700.0,-393.75,1,94.416,
01/01/2000,00:43:36.54,22.45,-55.75,-992.10,140.0,-691.25,-306.25,1,94.422,
01/01/2000,00:43:36.55,22.45,-55.75,-992.23,166.25,-673.75,-385.0,1,94.428,
01/01/2000,00:43:36.56,22.45,-55.88,-992.10,166.25,-796.25,-315.0,1,94.433,
01/01/2000,00:43:36.57,22.57,-55.88,-992.10,96.25,-682.50,-323.75,1,94.439,
01/01/2000,00:43:36.58,22.81,-55.88,-992.35,280.0,-735.0,-271.25,1,94.444,
01/01/2000,00:43:36.59,22.69,-55.88,-992.35,-52.50,-638.75,-385.0,1,94.450,
01/01/2000,00:43:36.60,22.57,-55.88,-992.59,43.75,-638.75,-350.0,1,94.456,
01/01/2000,00:43:36.61,22.45,-55.63,-992.59,245.0,-708.75,-341.25,1,94.461,
01/01/2000,00:43:36.62,22.45,-55.75,-992.47,131.25,-735.0,-262.50,1,94.372,
01/01/2000,00:43:36.63,22.45,-55.75,-992.47,201.25,-673.75,-218.75,1,94.378,
01/01/2000,00:43:36.64,22.45,-55.88,-992.47,148.75,-647.50,-385.0,1,94.383,
01/01/2000,00:43:36.65,22.33,-55.88,-992.59,210.0,-735.0,-262.50,1,94.389,
01/01/2000,00:43:36.66,22.33,-55.88,-992.47,201.25,-700.0,-332.50,1,94.394,
01/01/2000,00:43:36.67,22.20,-55.75,-992.35,148.75,-612.50,-332.50,1,94.400,
01/01/2000,00:43:36.69,22.45,-55.51,-992.35,245.0,-656.25,-288.75,1,94.406,
01/01/2000,00:43:36.70,22.45,-55.63,-992.35,201.25,-595.0,-393.75,1,94.411,
01/01/2000,00:43:36.71,22.45,-55.63,-992.47,140.0,-717.50,-315.0,1,94.417,
01/01/2000,00:43:36.72,22.45,-55.75,-992.35,35.0,-621.25,-437.50,1,94.422,
01/01/2000,00:43:36.73,22.45,-55.63,-992.35,175.0,-743.75,-280.0,1,94.428,
01/01/2000,00:43:36.74,22.45,-55.51,-992.23,218.75,-612.50,-271.25,1,94.433,
01/01/2000,00:43:36.75,22.45,-55.63,-992.10,175.0,-621.25,-367.50,1,94.439,
01/01/2000,00:43:36.76,22.45,-55.51,-991.98,105.0,-516.25,-332.50,1,94.444,
01/01/2000,00:43:36.77,22.57,-55.75,-992.10,201.25,-673.75,-358.75,1,94.450,
01/01/2000,00:43:36.78,22.69,-55.63,-992.35,87.50,-665.0,-385.0,1,94.455,
01/01/2000,00:43:36.79,22.57,-55.88,-992.35,271.25,-761.25,-446.25,1,94.461,
01/01/2000,00:43:36.80,22.33,-55.88,-992.35,236.25,-665.0,-332.50,1,94.466,
01/01/2000,00:43:36.81,22.33,-55.63,-992.35,-17.50,-848.75,-332.50,1,94.472,
01/01/2000,00:43:36.82,22.33,-55.88,-992.35,148.75,-700.0,-227.50,1,94.477,
01/01/2000,00:43:36.83,22.45,-55.51,-992.59,201.25,-691.25,-341.25,1,94.390,
01/01/2000,00:43:36.84,22.45,-55.63,-992.47,157.50,-612.50,-332.50,1,94.395,
01/01/2000,00:43:36.85,22.45,-55.63,-992.23,113.75,-691.25,-332.50,1,94.401,
01/01/2000,00:43:36.86,22.33,-55.75,-992.10,175.0,-770.0,-358.75,1,94.406,
01/01/2000,00:43:36.87,22.45,-55.75,-992.23,166.25,-691.25,-341.25,1,94.412,
01/01/2000,00:43:36.89,22.57,-55.63,-992.47,113.75,-726.25,-227.50,1,94.417,
01/01/2000,00:43:36.90,22.45,-55.51,-992.47,78.75,-735.0,-350.0,1,94.423,
01/01/2000,00:43:36.91,22.20,-55.63,-992.10,218.75,-665.0,-437.50,1,94.336,
01/01/2000,00:43:36.92,22.20,-55.63,-992.10,253.75,-595.0,-245.0,1,94.341,
01/01/2000,00:43:36.93,22.33,-55.63,-992.35,175.0,-708.75,-350.0,1,94.347,
01/01/2000,00:43:36.94,22.45,-55.51,-992.35,26.25,-621.25,-297.50,1,94.352,
01/01/2000,00:43:36.95,22.45,-55.63,-992.35,87.50,-726.25,-420.0,1,94.358,
01/01/2000,00:43:36.96,22.20,-55.51,-991.98,43.75,-700.0,-297.50,1,94.363,
01/01/2000,00:43:36.98,22.45,-55.51,-991.86,140.0,-752.50,-323.75,1,94.369,
01/01/2000,00:43:36.99,22.57,-55.63,-992.23,87.50,-743.75,-253.75,1,94.374,
01/01/2000,00:43:37.00,22.69,-55.63,-992.35,166.25,-708.75,-297.50,1,94.380,
01/01/2000,00:43:37.01,22.45,-55.88,-992.23,323.75,-595.0,-402.50,1,94.385,
01/01/2000,00:43:37.02,22.20,-55.75,-992.23,96.25,-638.75,-376.25,1,94.391,
01/01/2000,00:43:37.03,22.20,-55.63,-992.23,175.0,-708.75,-428.75,1,94.396,
01/01/2000,00:43:37.04,22.33,-55.63,-992.35,87.50,-673.75,-323.75,1,94.402,
01/01/2000,00:43:37.05,22.20,-55.75,-992.47,148.75,-638.75,-245.0,1,94.407,
01/01/2000,00:43:37.06,22.33,-55.88,-992.35,315.0,-638.75,-358.75,1,94.412,
01/01/2000,00:43:37.07,22.45,-55.88,-992.35,61.25,-595.0,-341.25,1,94.418,
01/01/2000,00:43:37.08,22.45,-55.75,-992.35,218.75,-647.50,-385.0,1,94.423,
01/01/2000,00:43:37.09,22.33,-55.63,-992.35,105.0,-700.0,-358.75,1,94.428,
01/01/2000,00:43:37.10,22.45,-55.75,-992.47,166.25,-708.75,-385.0,1,94.434,
01/01/2000,00:43:37.11,22.20,-55.75,-992.47,140.0,-735.0,-315.0,1,94.439,
01/01/2000,00:43:37.12,22.20,-55.63,-992.23,245.0,-717.50,-402.50,1,94.444,
01/01/2000,00:43:37.13,22.20,-55.63,-992.23,166.25,-796.25,-297.50,1,94.450,
01/01/2000,00:43:37.14,22.33,-55.63,-992.23,166.25,-796.25,-367.50,1,94.455,
01/01/2000,00:43:37.15,22.57,-55.63,-992.35,0.0,-691.25,-280.0,1,94.460,
01/01/2000,00:43:37.16,22.45,-55.63,-992.47,166.25,-665.0,-367.50,1,94.466,
01/01/2000,00:43:37.17,22.33,-55.51,-992.35,35.0,-717.50,-332.50,1,94.471,
01/01/2000,00:43:37.18,22.45,-55.63,-992.23,271.25,-726.25,-332.50,1,94.386,
01/01/2000,00:43:37.19,22.45,-55.63,-992.10,148.75,-603.75,-350.0,1,94.392,
01/01/2000,00:43:37.20,22.45,-55.75,-992.10,122.50,-708.75,-315.0,1,94.397,
01/01/2000,00:43:37.21,22.20,-55.75,-992.10,157.50,-752.50,-393.75,1,94.402,
01/01/2000,00:43:37.23,22.08,-55.63,-992.10,148.75,-743.75,-288.75,1,94.408,
01/01/2000,00:43:37.23,22.20,-55.51,-992.35,113.75,-691.25,-350.0,1,94.413,
01/01/2000,00:43:37.25,22.33,-55.63,-992.35,236.25,-656.25,-192.50,1,94.418,
01/01/2000,00:43:37.26,22.20,-55.75,-992.35,61.25,-778.75,-280.0,1,94.423,
01/01/2000,00:43:37.27,22.08,-55.88,-992.47,280.0,-726.25,-385.0,1,94.429,
01/01/2000,00:43:37.28,22.08,-55.75,-992.35,175.0,-717.50,-385.0,1,94.434,
01/01/2000,00:43:37.29,22.08,-55.63,-992.35,218.75,-726.25,-358.75,1,94.439,
01/01/2000,00:43:37.30,22.20,-55.51,-992.35,183.75,-691.25,-271.25,1,94.444,
01/01/2000,00:43:37.31,22.08,-55.39,-992.35,175.0,-691.25,-341.25,1,94.450,
01/01/2000,00:43:37.32,21.96,-55.63,-992.23,166.25,-752.50,-253.75,1,94.366,
01/01/2000,00:43:37.33,22.08,-55.51,-992.35,227.50,-761.25,-367.50,1,94.371,
01/01/2000,00:43:37.34,22.20,-55.51,-992.47,78.75,-673.75,-341.25,1,94.377,
01/01/2000,00:43:37.35,22.20,-55.63,-992.59,122.50,-770.0,-411.25,1,94.382,
01/01/2000,00:43:37.36,22.20,-55.39,-992.59,210.0,-761.25,-376.25,1,94.387,
01/01/2000,00:43:37.37,21.96,-55.51,-992.47,140.0,-770.0,-350.0,1,94.393,
01/01/2000,00:43:37.38,22.20,-55.51,-992.35,166.25,-665.0,-288.75,1,94.398,
01/01/2000,00:43:37.40,22.20,-55.63,-992.35,157.50,-691.25,-402.50,1,94.403,
01/01/2000,00:43:37.41,22.20,-55.63,-992.23,87.50,-621.25,-210.0,1,94.408,
01/01/2000,00:43:37.42,22.20,-55.63,-992.10,78.75,-717.50,-332.50,1,94.413,
01/01/2000,00:43:37.43,22.08,-55.51,-992.10,166.25,-761.25,-288.75,1,94.419,
01/01/2000,00:43:37.44,22.33,-55.51,-992.10,192.50,-717.50,-288.75,1,94.424,
01/01/2000,00:43:37.45,22.33,-55.63,-992.10,166.25,-726.25,-297.50,1,94.341,
01/01/2000,00:43:37.46,22.20,-55.63,-991.98,166.25,-708.75,-358.75,1,94.434,
01/01/2000,00:43:37.47,22.20,-55.75,-991.86,105.0,-656.25,-455.0,1,94.352,
01/01/2000,00:43:37.48,22.33,-55.51,-991.86,105.0,-682.50,-411.25,1,94.357,
01/01/2000,00:43:37.49,22.33,-55.51,-991.98,218.75,-770.0,-411.25,1,94.362,
01/01/2000,00:43:37.50,22.33,-55.75,-992.10,140.0,-752.50,-262.50,1,94.368,
01/01/2000,00:43:37.51,22.20,-55.88,-992.10,87.50,-638.75,-350.0,1,94.373,
01/01/2000,00:43:37.52,22.33,-55.63,-992.10,113.75,-752.50,-341.25,1,94.378,
01/01/2000,00:43:37.54,22.45,-55.75,-992.23,140.0,-691.25,-306.25,1,94.383,
01/01/2000,00:43:37.54,22.45,-55.88,-992.35,96.25,-638.75,-297.50,1,94.388,
01/01/2000,00:43:37.56,22.45,-55.88,-992.47,131.25,-691.25,-323.75,1,94.393,
01/01/2000,00:43:37.57,22.45,-56.00,-992.47,140.0,-708.75,-376.25,1,94.399,
01/01/2000,00:43:37.58,22.45,-56.00,-992.47,245.0,-621.25,-411.25,1,94.404,
01/01/2000,00:43:37.59,22.45,-55.75,-992.23,122.50,-717.50,-332.50,1,94.409,
01/01/2000,00:43:37.60,22.57,-55.75,-992.10,245.0,-770.0,-350.0,1,94.414,
01/01/2000,00:43:37.61,22.45,-55.75,-992.35,183.75,-708.75,-306.25,1,94.419,
01/01/2000,00:43:37.62,22.45,-55.75,-992.47,148.75,-595.0,-341.25,1,94.424,
01/01/2000,00:43:37.63,22.57,-55.63,-992.47,113.75,-787.50,-341.25,1,94.429,
01/01/2000,00:43:37.64,22.57,-55.75,-992.10,166.25,-787.50,-393.75,1,94.434,
01/01/2000,00:43:37.65,22.45,-55.63,-991.98,245.0,-770.0,-341.25,1,94.439,
01/01/2000,00:43:37.66,22.57,-55.63,-991.86,140.0,-726.25,-402.50,1,94.444,
01/01/2000,00:43:37.67,22.57,-55.63,-992.23,183.75,-743.75,-297.50,1,94.450,
01/01/2000,00:43:37.68,22.57,-55.63,-992.47,227.50,-682.50,-288.75,1,94.455,
01/01/2000,00:43:37.69,22.45,-55.63,-992.35,236.25,-638.75,-332.50,1,94.460,
01/01/2000,00:43:37.70,22.57,-55.63,-992.23,183.75,-708.75,-393.75,1,94.465,
01/01/2000,00:43:37.71,22.69,-55.63,-992.10,253.75,-726.25,-341.25,1,94.470,
01/01/2000,00:43:37.72,22.57,-55.63,-992.10,140.0,-743.75,-288.75,1,94.475,
01/01/2000,00:43:37.73,22.57,-55.75,-992.23,236.25,-743.75,-253.75,1,94.480,
01/01/2000,00:43:37.74,22.57,-55.75,-992.23,218.75,-735.0,-420.0,1,94.399,
01/01/2000,00:43:37.75,22.57,-55.63,-992.35,306.25,-708.75,-376.25,1,94.404,
01/01/2000,00:43:37.76,22.69,-55.51,-992.23,43.75,-603.75,-332.50,1,94.409,
01/01/2000,00:43:37.77,22.57,-55.63,-992.23,183.75,-743.75,-385.0,1,94.414,
01/01/2000,00:43:37.78,22.57,-55.88,-992.59,96.25,-708.75,-280.0,1,94.419,
01/01/2000,00:43:37.79,22.45,-55.88,-992.59,157.50,-665.0,-393.75,1,94.424,
01/01/2000,00:43:37.81,22.57,-55.75,-992.47,78.75,-708.75,-367.50,1,94.429,
01/01/2000,00:43:37.82,22.57,-55.75,-992.23,140.0,-726.25,-306.25,1,94.434,
01/01/2000,00:43:37.83,22.57,-55.75,-992.35,96.25,-673.75,-297.50,1,94.439,
01/01/2000,00:43:37.84,22.57,-55.88,-992.35,236.25,-612.50,-358.75,1,94.444,
01/01/2000,00:43:37.85,22.33,-56.12,-992.59,43.75,-673.75,-192.50,1,94.449,
01/01/2000,00:43:37.86,22.33,-56.00,-992.59,148.75,-726.25,-367.50,1,94.454,
01/01/2000,00:43:37.87,22.45,-55.75,-992.35,113.75,-726.25,-280.0,1,94.459,
01/01/2000,00:43:37.88,22.69,-55.63,-992.23,218.75,-857.50,-341.25,1,94.380,
01/01/2000,00:43:37.89,22.69,-55.63,-992.10,113.75,-682.50,-253.75,1,94.385,
01/01/2000,00:43:37.90,22.57,-55.88,-992.10,61.25,-647.50,-428.75,1,94.390,
01/01/2000,00:43:37.91,22.33,-56.00,-992.10,201.25,-743.75,-306.25,1,94.395,
01/01/2000,00:43:37.92,22.33,-55.88,-992.23,157.50,-673.75,-411.25,1,94.400,
01/01/2000,00:43:37.94,22.57,-55.75,-992.35,113.75,-717.50,-262.50,1,94.405,
01/01/2000,00:43:37.95,22.45,-55.88,-992.35,192.50,-708.75,-218.75,1,94.410,
01/01/2000,00:43:37.96,22.20,-56.12,-992.10,210.0,-752.50,-376.25,1,94.415,
01/01/2000,00:43:37.97,22.20,-56.12,-991.98,-70.0,-638.75,-288.75,1,94.420,
01/01/2000,00:43:37.98,22.45,-56.00,-991.86,157.50,-752.50,-411.25,1,94.425,
01/01/2000,00:43:37.99,22.45,-55.75,-991.86,183.75,-700.0,-332.50,1,94.430,
01/01/2000,00:43:38.00,22.20,-55.88,-992.10,157.50,-673.75,-227.50,1,94.435,
01/01/2000,00:43:38.01,22.33,-56.00,-992.23,245.0,-726.25,-288.75,1,94.440,
01/01/2000,00:43:38.02,22.20,-56.12,-992.23,253.75,-700.0,-402.50,1,94.444,
01/01/2000,00:43:38.03,22.20,-56.00,-992.10,96.25,-682.50,-297.50,1,94.449,
01/01/2000,00:43:38.04,22.45,-55.88,-992.10,280.0,-813.75,-402.50,1,94.454,
01/01/2000,00:43:38.05,22.69,-55.88,-992.23,131.25,-647.50,-271.25,1,94.459,
01/01/2000,00:43:38.06,22.57,-55.88,-992.35,175.0,-778.75,-192.50,1,94.464,
01/01/2000,00:43:38.07,22.45,-55.88,-992.35,105.0,-551.25,-385.0,1,94.469,
01/01/2000,00:43:38.08,22.20,-56.00,-992.10,192.50,-708.75,-481.25,1,94.474,
01/01/2000,00:43:38.10,22.69,-55.75,-991.98,148.75,-542.50,-367.50,1,94.396,
01/01/2000,00:43:38.11,22.81,-55.75,-992.10,140.0,-647.50,-323.75,1,94.401,
01/01/2000,00:43:38.12,22.69,-55.63,-992.10,43.75,-691.25,-227.50,1,94.406,
01/01/2000,00:43:38.13,22.57,-56.00,-992.10,183.75,-743.75,-367.50,1,94.410,
01/01/2000,00:43:38.14,22.45,-56.00,-992.23,192.50,-612.50,-323.75,1,94.415,
01/01/2000,00:43:38.15,22.45,-56.00,-992.47,8.75,-717.50,-367.50,1,94.420,
01/01/2000,00:43:38.16,22.69,-55.63,-992.35,157.50,-787.50,-306.25,1,94.425,
01/01/2000,00:43:38.17,22.57,-55.63,-991.98,113.75,-735.0,-350.0,1,94.430,
01/01/2000,00:43:38.18,22.33,-55.88,-991.98,131.25,-682.50,-385.0,1,94.435,
01/01/2000,00:43:38.19,22.33,-56.12,-992.23,253.75,-647.50,-437.50,1,94.440,
01/01/2000,00:43:38.20,22.45,-56.00,-992.47,52.50,-656.25,-385.0,1,94.444,
01/01/2000,00:43:38.21,22.69,-55.88,-992.59,148.75,-621.25,-288.75,1,94.449,
01/01/2000,00:43:38.22,22.57,-55.75,-992.35,280.0,-700.0,-245.0,1,94.454,
01/01/2000,00:43:38.23,22.45,-56.00,-992.10,157.50,-743.75,-323.75,1,94.377,
01/01/2000,00:43:38.24,22.57,-56.12,-992.10,262.50,-682.50,-341.25,1,94.382,
01/01/2000,00:43:38.25,22.57,-56.12,-992.23,175.0,-656.25,-402.50,1,94.387,
01/01/2000,00:43:38.26,22.57,-56.00,-992.10,122.50,-708.75,-393.75,1,94.392,
01/01/2000,00:43:38.27,22.45,-56.12,-991.62,131.25,-752.50,-332.50,1,94.397,
01/01/2000,00:43:38.28,22.33,-55.88,-991.49,87.50,-700.0,-323.75,1,94.401,
01/01/2000,00:43:38.29,22.57,-55.88,-991.86,70.0,-586.25,-297.50,1,94.406,
01/01/2000,00:43:38.31,22.69,-56.00,-992.23,218.75,-822.50,-201.25,1,94.411,
01/01/2000,00:43:38.32,22.45,-56.00,-992.10,183.75,-638.75,-332.50,1,94.416,
01/01/2000,00:43:38.33,22.45,-56.00,-992.10,166.25,-656.25,-367.50,1,94.421,
01/01/2000,00:43:38.34,22.33,-55.88,-991.86,166.25,-752.50,-376.25,1,94.425,
01/01/2000,00:43:38.35,22.45,-55.63,-992.10,166.25,-726.25,-350.0,1,94.430,
01/01/2000,00:43:38.36,22.45,-55.63,-992.35,201.25,-726.25,-166.25,1,94.435,
01/01/2000,00:43:38.37,22.45,-55.88,-992.23,8.75,-612.50,-350.0,1,94.440,
01/01/2000,00:43:38.38,22.20,-56.12,-991.74,175.0,-656.25,-376.25,1,94.444,
01/01/2000,00:43:38.39,22.08,-55.88,-991.86,183.75,-700.0,-393.75,1,94.449,
01/01/2000,00:43:38.40,22.33,-55.63,-991.98,192.50,-735.0,-253.75,1,94.454,
01/01/2000,00:43:38.41,22.57,-55.51,-992.35,113.75,-708.75,-280.0,1,94.459,
01/01/2000,00:43:38.42,22.45,-55.88,-992.35,78.75,-682.50,-201.25,1,94.463,
01/01/2000,00:43:38.43,22.20,-56.00,-992.23,157.50,-691.25,-402.50,1,94.468,
01/01/2000,00:43:38.45,22.08,-55.88,-991.98,26.25,-717.50,-463.75,1,94.393,
01/01/2000,00:43:38.46,22.20,-55.51,-992.35,105.0,-752.50,-227.50,1,94.397,
01/01/2000,00:43:38.47,22.45,-55.51,-992.35,183.75,-805.0,-315.0,1,94.402,
01/01/2000,00:43:38.48,22.33,-55.75,-992.23,280.0,-673.75,-297.50,1,94.407,
01/01/2000,00:43:38.49,22.20,-55.75,-991.86,157.50,-682.50,-455.0,1,94.412,
01/01/2000,00:43:38.50,22.20,-55.88,-991.74,157.50,-560.0,-376.25,1,94.416,
01/01/2000,00:43:38.51,22.45,-55.51,-991.86,280.0,-708.75,-271.25,1,94.421,
01/01/2000,00:43:38.52,22.69,-55.63,-992.23,157.50,-612.50,-288.75,1,94.426,
01/01/2000,00:43:38.53,22.45,-55.88,-992.35,148.75,-656.25,-367.50,1,94.351,
01/01/2000,00:43:38.54,22.20,-56.12,-992.23,148.75,-717.50,-332.50,1,94.356,
01/01/2000,00:43:38.55,22.20,-56.12,-992.10,157.50,-770.0,-402.50,1,94.360,
01/01/2000,00:43:38.56,22.45,-55.88,-992.10,218.75,-673.75,-297.50,1,94.365,
01/01/2000,00:43:38.57,22.45,-55.63,-992.10,227.50,-691.25,-385.0,1,94.370,
01/01/2000,00:43:38.58,22.33,-55.51,-992.10,113.75,-717.50,-262.50,1,94.374,
01/01/2000,00:43:38.59,22.08,-55.63,-992.23,131.25,-708.75,-411.25,1,94.379,
01/01/2000,00:43:38.60,22.33,-55.63,-992.35,175.0,-743.75,-411.25,1,94.384,
01/01/2000,00:43:38.61,22.94,-55.63,-992.59,210.0,-700.0,-306.25,1,94.389,
01/01/2000,00:43:38.62,22.94,-55.75,-992.71,61.25,-848.75,-262.50,1,94.393,
01/01/2000,00:43:38.63,22.69,-55.75,-992.47,210.0,-656.25,-376.25,1,94.398,
01/01/2000,00:43:38.64,22.57,-55.75,-992.10,210.0,-647.50,-376.25,1,94.403,
01/01/2000,00:43:38.66,22.69,-55.51,-992.23,271.25,-726.25,-358.75,1,94.407,
01/01/2000,00:43:38.67,22.81,-55.51,-992.35,210.0,-621.25,-210.0,1,94.412,
01/01/2000,00:43:38.68,22.69,-55.75,-992.23,192.50,-726.25,-367.50,1,94.417,
01/01/2000,00:43:38.69,22.33,-56.12,-991.98,218.75,-770.0,-385.0,1,94.421,
01/01/2000,00:43:38.70,22.33,-56.12,-991.98,183.75,-656.25,-481.25,1,94.426,
01/01/2000,00:43:38.71,22.45,-55.88,-992.10,227.50,-682.50,-323.75,1,94.431,
01/01/2000,00:43:38.72,22.69,-55.88,-992.23,157.50,-673.75,-280.0,1,94.435,
01/01/2000,00:43:38.73,22.69,-55.88,-992.10,70.0,-656.25,-306.25,1,94.440,
01/01/2000,00:43:38.74,22.33,-56.12,-991.98,166.25,-822.50,-280.0,1,94.444,
01/01/2000,00:43:38.75,22.45,-56.00,-992.10,148.75,-691.25,-367.50,1,94.449,
01/01/2000,00:43:38.76,22.45,-55.75,-992.35,218.75,-638.75,-253.75,1,94.376,
01/01/2000,00:43:38.77,22.69,-55.51,-992.47,17.50,-656.25,-245.0,1,94.458,
01/01/2000,00:43:38.78,22.69,-55.63,-992.59,122.50,-665.0,-245.0,1,94.385,
01/01/2000,00:43:38.80,22.57,-55.88,-992.35,210.0,-595.0,-463.75,1,94.389,
01/01/2000,00:43:38.81,22.57,-56.00,-992.10,175.0,-665.0,-280.0,1,94.394,
01/01/2000,00:43:38.82,22.69,-56.00,-992.23,201.25,-708.75,-350.0,1,94.399,
01/01/2000,00:43:38.83,22.81,-55.88,-992.23,96.25,-700.0,-323.75,1,94.403,
01/01/2000,00:43:38.84,22.57,-55.88,-992.10,175.0,-638.75,-280.0,1,94.408,
01/01/2000,00:43:38.85,22.45,-55.88,-991.98,218.75,-638.75,-332.50,1,94.412,
01/01/2000,00:43:38.86,22.45,-55.88,-992.10,157.50,-656.25,-385.0,1,94.417,
01/01/2000,00:43:38.87,22.94,-55.88,-992.35,131.25,-735.0,-306.25,1,94.422,
01/01/2000,00:43:38.88,22.94,-55.88,-992.35,253.75,-743.75,-358.75,1,94.426,
01/01/2000,00:43:38.89,22.57,-56.00,-992.10,105.0,-647.50,-245.0,1,94.431,
01/01/2000,00:43:38.90,22.33,-56.12,-991.98,245.0,-708.75,-306.25,1,94.435,
01/01/2000,00:43:38.91,22.45,-55.75,-992.10,166.25,-700.0,-306.25,1,94.440,
01/01/2000,00:43:38.92,22.69,-55.51,-992.23,87.50,-787.50,-341.25,1,94.444,
01/01/2000,00:43:38.93,22.69,-55.51,-992.35,218.75,-577.50,-367.50,1,94.449,
01/01/2000,00:43:38.94,22.45,-55.63,-992.23,105.0,-630.0,-332.50,1,94.377,
01/01/2000,00:43:38.96,22.69,-55.88,-991.98,183.75,-630.0,-411.25,1,94.381,
01/01/2000,00:43:38.97,22.69,-55.63,-992.10,218.75,-708.75,-271.25,1,94.386,
01/01/2000,00:43:38.98,22.69,-55.51,-991.98,140.0,-586.25,-376.25,1,94.390,
01/01/2000,00:43:38.99,22.69,-55.39,-992.10,245.0,-673.75,-271.25,1,94.395,
01/01/2000,00:43:39.00,22.45,-55.63,-992.10,131.25,-673.75,-271.25,1,94.399,
01/01/2000,00:43:39.01,22.45,-55.75,-991.98,183.75,-691.25,-350.0,1,94.404,
01/01/2000,00:43:39.02,22.45,-55.88,-992.10,140.0,-682.50,-358.75,1,94.408,
01/01/2000,00:43:39.03,22.33,-55.75,-992.23,175.0,-726.25,-280.0,1,94.413,
01/01/2000,00:43:39.04,22.33,-55.63,-992.23,297.50,-700.0,-332.50,1,94.417,
01/01/2000,00:43:39.05,22.45,-55.39,-992.35,350.0,-630.0,-358.75,1,94.422,
01/01/2000,00:43:39.06,22.45,-55.39,-992.47,43.75,-673.75,-201.25,1,94.426,
01/01/2000,00:43:39.07,22.45,-55.63,-992.35,122.50,-673.75,-288.75,1,94.431,
01/01/2000,00:43:39.08,22.57,-55.75,-992.23,17.50,-638.75,-332.50,1,94.435,
01/01/2000,00:43:39.09,22.45,-55.88,-992.23,105.0,-761.25,-323.75,1,94.364,
01/01/2000,00:43:39.10,22.57,-55.75,-992.10,175.0,-682.50,-350.0,1,94.368,
01/01/2000,00:43:39.11,22.45,-55.51,-992.23,122.50,-682.50,-376.25,1,94.373,
01/01/2000,00:43:39.12,22.45,-55.51,-992.23,87.50,-621.25,-306.25,1,94.378,
01/01/2000,00:43:39.13,22.45,-55.75,-992.23,96.25,-638.75,-411.25,1,94.382,
01/01/2000,00:43:39.14,22.45,-55.88,-992.10,183.75,-708.75,-341.25,1,94.387,
01/01/2000,00:43:39.16,22.45,-55.88,-992.10,122.50,-665.0,-341.25,1,94.391,
01/01/2000,00:43:39.17,22.33,-55.63,-992.10,262.50,-673.75,-280.0,1,94.396,
01/01/2000,00:43:39.18,22.45,-55.51,-992.10,227.50,-586.25,-297.50,1,94.400,
01/01/2000,00:43:39.19,22.45,-55.63,-992.35,61.25,-770.0,-332.50,1,94.404,
01/01/2000,00:43:39.20,22.33,-55.75,-992.47,148.75,-612.50,-376.25,1,94.409,
01/01/2000,00:43:39.21,22.33,-55.88,-992.35,253.75,-665.0,-280.0,1,94.413,
01/01/2000,00:43:39.22,22.20,-55.88,-992.35,148.75,-638.75,-385.0,1,94.418,
01/01/2000,00:43:39.23,22.33,-55.75,-992.59,105.0,-796.25,-183.75,1,94.422,
01/01/2000,00:43:39.24,22.33,-55.63,-992.47,201.25,-673.75,-323.75,1,94.427,
01/01/2000,00:43:39.25,22.33,-55.63,-992.47,148.75,-752.50,-288.75,1,94.431,
01/01/2000,00:43:39.26,22.20,-55.88,-992.35,105.0,-708.75,-323.75,1,94.436,
01/01/2000,00:43:39.27,22.08,-55.88,-992.35,140.0,-621.25,-358.75,1,94.440,
01/01/2000,00:43:39.28,22.33,-55.75,-992.35,280.0,-813.75,-350.0,1,94.444,
01/01/2000,00:43:39.29,22.69,-55.39,-992.59,245.0,-621.25,-148.75,1,94.374,
01/01/2000,00:43:39.30,22.69,-55.88,-992.59,236.25,-726.25,-358.75,1,94.378,
01/01/2000,00:43:39.31,22.08,-56.00,-992.35,218.75,-647.50,-393.75,1,94.383,
01/01/2000,00:43:39.32,21.96,-56.12,-992.23,288.75,-778.75,-437.50,1,94.387,
01/01/2000,00:43:39.33,22.45,-55.51,-992.10,96.25,-691.25,-551.25,1,94.392,
01/01/2000,00:43:39.34,22.81,-55.39,-992.35,201.25,-840.0,-122.50,1,94.396,
01/01/2000,00:43:39.35,22.33,-55.63,-992.23,148.75,-630.0,-131.25,1,94.401,
01/01/2000,00:43:39.37,22.08,-56.12,-992.10,175.0,-656.25,-455.0,1,94.405,
01/01/2000,00:43:39.38,22.20,-56.24,-992.35,87.50,-787.50,-393.75,1,94.409,
01/01/2000,00:43:39.39,22.45,-55.88,-992.59,70.0,-682.50,-350.0,1,94.414,
01/01/2000,00:43:39.40,22.45,-55.75,-992.84,201.25,-848.75,-358.75,1,94.418,
01/01/2000,00:43:39.41,22.45,-55.75,-992.35,253.75,-673.75,-262.50,1,94.423,
01/01/2000,00:43:39.42,22.08,-55.88,-992.10,218.75,-752.50,-323.75,1,94.427,
01/01/2000,00:43:39.43,22.08,-56.00,-992.35,210.0,-822.50,-420.0,1,94.357,
01/01/2000,00:43:39.44,22.20,-55.88,-992.59,96.25,-603.75,-271.25,1,94.362,
01/01/2000,00:43:39.45,22.20,-55.63,-992.47,236.25,-743.75,-376.25,1,94.366,
01/01/2000,00:43:39.47,22.08,-55.75,-991.98,183.75,-752.50,-376.25,1,94.371,
01/01/2000,00:43:39.48,21.96,-55.75,-991.98,236.25,-665.0,-332.50,1,94.375,
01/01/2000,00:43:39.49,22.08,-55.88,-992.23,175.0,-761.25,-376.25,1,94.379,
01/01/2000,00:43:39.50,22.20,-55.75,-992.35,131.25,-630.0,-350.0,1,94.384,
01/01/2000,00:43:39.51,22.20,-55.63,-992.35,131.25,-726.25,-385.0,1,94.388,
01/01/2000,00:43:39.52,22.08,-55.63,-992.23,210.0,-813.75,-297.50,1,94.393,
01/01/2000,00:43:39.53,22.20,-55.88,-992.10,113.75,-708.75,-455.0,1,94.397,
01/01/2000,00:43:39.54,22.33,-56.00,-992.23,43.75,-656.25,-367.50,1,94.401,
01/01/2000,00:43:39.55,22.45,-55.88,-992.35,192.50,-665.0,-315.0,1,94.406,
01/01/2000,00:43:39.56,22.45,-55.75,-992.23,26.25,-551.25,-306.25,1,94.410,
01/01/2000,00:43:39.57,22.20,-55.63,-991.86,218.75,-726.25,-358.75,1,94.414,
01/01/2000,00:43:39.58,22.20,-55.63,-992.10,122.50,-665.0,-227.50,1,94.419,
01/01/2000,00:43:39.59,22.45,-55.75,-992.35,148.75,-840.0,-402.50,1,94.423,
01/01/2000,00:43:39.60,22.45,-55.75,-992.47,227.50,-612.50,-332.50,1,94.427,
01/01/2000,00:43:39.61,22.57,-55.75,-992.35,87.50,-822.50,-315.0,1,94.432,
01/01/2000,00:43:39.62,22.45,-55.63,-992.10,227.50,-603.75,-297.50,1,94.436,
01/01/2000,00:43:39.63,22.33,-55.51,-991.98,70.0,-691.25,-280.0,1,94.440,
01/01/2000,00:43:39.64,22.57,-55.63,-992.23,393.75,-770.0,-402.50,1,94.372,
01/01/2000,00:43:39.65,22.45,-55.63,-992.35,271.25,-551.25,-280.0,1,94.376,
01/01/2000,00:43:39.66,22.20,-55.75,-992.23,245.0,-647.50,-411.25,1,94.380,
01/01/2000,00:43:39.67,21.96,-55.75,-992.10,35.0,-691.25,-411.25,1,94.385,
01/01/2000,00:43:39.68,21.96,-55.63,-992.10,192.50,-603.75,-376.25,1,94.389,
01/01/2000,00:43:39.69,22.20,-55.39,-992.35,236.25,-665.0,-341.25,1,94.393,
01/01/2000,00:43:39.71,22.20,-55.39,-992.59,376.25,-708.75,-315.0,1,94.398,
01/01/2000,00:43:39.72,22.20,-55.63,-992.35,192.50,-630.0,-262.50,1,94.402,
01/01/2000,00:43:39.73,22.20,-55.75,-992.10,87.50,-770.0,-376.25,1,94.406,
01/01/2000,00:43:39.74,22.45,-55.63,-991.98,113.75,-717.50,-341.25,1,94.410,
01/01/2000,00:43:39.75,22.45,-55.63,-992.10,280.0,-735.0,-428.75,1,94.415,
01/01/2000,00:43:39.76,22.45,-55.63,-992.35,61.25,-778.75,-306.25,1,94.419,
01/01/2000,00:43:39.77,22.45,-55.63,-992.35,192.50,-621.25,-280.0,1,94.423,
01/01/2000,00:43:39.78,22.33,-55.51,-992.10,113.75,-656.25,-297.50,1,94.427,
01/01/2000,00:43:39.79,22.57,-55.75,-992.10,140.0,-682.50,-306.25,1,94.360,
01/01/2000,00:43:39.80,22.69,-55.63,-991.98,218.75,-831.25,-367.50,1,94.364,
01/01/2000,00:43:39.81,22.81,-55.51,-992.10,218.75,-673.75,-385.0,1,94.368,
01/01/2000,00:43:39.82,22.57,-55.63,-992.10,17.50,-717.50,-393.75,1,94.373,
01/01/2000,00:43:39.83,22.45,-55.63,-991.98,218.75,-656.25,-323.75,1,94.377,
01/01/2000,00:43:39.84,22.57,-55.39,-991.86,131.25,-691.25,-315.0,1,94.381,
01/01/2000,00:43:39.86,22.81,-55.39,-991.74,201.25,-717.50,-376.25,1,94.385,
01/01/2000,00:43:39.87,22.57,-55.75,-991.74,105.0,-682.50,-236.25,1,94.390,
01/01/2000,00:43:39.88,22.45,-55.75,-991.74,122.50,-691.25,-358.75,1,94.394,
01/01/2000,00:43:39.89,22.45,-55.75,-991.74,183.75,-787.50,-358.75,1,94.398,
01/01/2000,00:43:39.90,22.57,-55.63,-991.74,236.25,-682.50,-402.50,1,94.402,
01/01/2000,00:43:39.91,22.57,-55.51,-991.86,192.50,-717.50,-350.0,1,94.407,
01/01/2000,00:43:39.92,22.57,-55.63,-991.86,96.25,-796.25,-367.50,1,94.411,
01/01/2000,00:43:39.93,22.45,-56.00,-991.86,210.0,-691.25,-262.50,1,94.415,
01/01/2000,00:43:39.94,22.45,-56.12,-991.86,17.50,-717.50,-288.75,1,94.419,
01/01/2000,00:43:39.95,22.57,-56.12,-992.10,227.50,-682.50,-446.25,1,94.424,
01/01/2000,00:43:39.96,22.45,-55.88,-991.98,262.50,-743.75,-420.0,1,94.428,
01/01/2000,00:43:39.98,22.57,-55.75,-991.74,183.75,-638.75,-280.0,1,94.361,
01/01/2000,00:43:39.99,22.45,-55.88,-991.74,131.25,-752.50,-297.50,1,94.365,
01/01/2000,00:43:40.00,22.45,-55.88,-991.86,113.75,-726.25,-323.75,1,94.369,
01/01/2000,00:43:40.01,22.45,-56.00,-991.62,113.75,-595.0,-323.75,1,94.374,
01/01/2000,00:43:40.02,22.45,-55.88,-991.62,245.0,-726.25,-332.50,1,94.378,
01/01/2000,00:43:40.03,22.57,-55.63,-991.74,105.0,-665.0,-297.50,1,94.382,
01/01/2000,00:43:40.04,22.69,-55.51,-991.62,105.0,-656.25,-350.0,1,94.386,
01/01/2000,00:43:40.05,22.69,-55.63,-991.86,175.0,-673.75,-350.0,1,94.390,
01/01/2000,00:43:40.06,22.69,-55.88,-991.74,201.25,-586.25,-393.75,1,94.395,
01/01/2000,00:43:40.07,22.45,-55.88,-991.74,140.0,-691.25,-411.25,1,94.399,
01/01/2000,00:43:40.08,22.45,-55.75,-991.74,140.0,-770.0,-315.0,1,94.403,
01/01/2000,00:43:40.09,22.45,-55.63,-991.86,157.50,-813.75,-323.75,1,94.407,
01/01/2000,00:43:40.10,22.45,-55.63,-991.98,157.50,-630.0,-253.75,1,94.411,
01/01/2000,00:43:40.11,22.33,-55.88,-991.98,140.0,-770.0,-455.0,1,94.415,
01/01/2000,00:43:40.12,22.33,-55.88,-992.10,227.50,-656.25,-350.0,1,94.420,
01/01/2000,00:43:40.13,22.45,-55.88,-991.98,297.50,-708.75,-315.0,1,94.424,
01/01/2000,00:43:40.14,22.57,-55.75,-991.86,166.25,-778.75,-288.75,1,94.358,
01/01/2000,00:43:40.15,22.45,-55.75,-991.74,87.50,-682.50,-455.0,1,94.362,
01/01/2000,00:43:40.16,22.45,-55.88,-991.86,157.50,-647.50,-201.25,1,94.366,
01/01/2000,00:43:40.17,22.45,-55.63,-992.10,218.75,-656.25,-323.75,1,94.370,
01/01/2000,00:43:40.18,22.45,-55.63,-992.10,148.75,-743.75,-306.25,1,94.375,
01/01/2000,00:43:40.19,22.45,-55.88,-992.10,201.25,-717.50,-245.0,1,94.379,
01/01/2000,00:43:40.21,22.57,-55.88,-992.23,113.75,-647.50,-385.0,1,94.383,
01/01/2000,00:43:40.22,22.57,-55.88,-992.35,122.50,-516.25,-323.75,1,94.387,
01/01/2000,00:43:40.23,22.69,-55.75,-992.23,26.25,-647.50,-332.50,1,94.391,
01/01/2000,00:43:40.24,22.69,-55.75,-992.10,175.0,-595.0,-323.75,1,94.395,
01/01/2000,00:43:40.25,22.69,-55.88,-991.86,201.25,-586.25,-341.25,1,94.399,
01/01/2000,00:43:40.26,22.45,-55.88,-991.86,245.0,-595.0,-393.75,1,94.404,
01/01/2000,00:43:40.27,22.45,-55.88,-991.98,148.75,-743.75,-315.0,1,94.408,
01/01/2000,00:43:40.28,22.33,-55.75,-992.23,148.75,-717.50,-367.50,1,94.412,
01/01/2000,00:43:40.29,22.33,-55.75,-992.10,17.50,-717.50,-341.25,1,94.416,
01/01/2000,00:43:40.30,22.45,-55.63,-991.86,218.75,-761.25,-332.50,1,94.420,
01/01/2000,00:43:40.31,22.45,-55.63,-991.86,210.0,-770.0,-350.0,1,94.424,
01/01/2000,00:43:40.32,22.45,-55.63,-992.10,140.0,-665.0,-297.50,1,94.428,
01/01/2000,00:43:40.33,22.45,-55.75,-992.35,175.0,-761.25,-341.25,1,94.432,
01/01/2000,00:43:40.34,22.45,-55.75,-992.35,236.25,-656.25,-288.75,1,94.436,
01/01/2000,00:43:40.35,22.33,-55.63,-992.10,148.75,-656.25,-367.50,1,94.371,
01/01/2000,00:43:40.37,22.45,-55.63,-992.10,140.0,-638.75,-393.75,1,94.375,
01/01/2000,00:43:40.38,22.57,-55.75,-992.10,210.0,-673.75,-350.0,1,94.380,
01/01/2000,00:43:40.39,22.57,-55.63,-992.10,253.75,-638.75,-358.75,1,94.384,
01/01/2000,00:43:40.40,22.57,-55.88,-992.23,210.0,-621.25,-350.0,1,94.388,
01/01/2000,00:43:40.41,22.69,-55.88,-992.35,52.50,-735.0,-280.0,1,94.392,
01/01/2000,00:43:40.42,22.69,-55.63,-992.23,166.25,-708.75,-367.50,1,94.396,
01/01/2000,00:43:40.43,22.69,-55.63,-992.23,131.25,-717.50,-315.0,1,94.400,
01/01/2000,00:43:40.44,22.81,-55.88,-992.23,122.50,-638.75,-350.0,1,94.404,
01/01/2000,00:43:40.45,22.69,-55.88,-992.35,166.25,-700.0,-358.75,1,94.408,
01/01/2000,00:43:40.46,22.69,-56.00,-992.35,341.25,-752.50,-297.50,1,94.412,
01/01/2000,00:43:40.47,22.69,-55.88,-992.35,96.25,-822.50,-306.25,1,94.416,
01/01/2000,00:43:40.49,22.57,-55.88,-992.23,297.50,-796.25,-236.25,1,94.352,
01/01/2000,00:43:40.50,22.57,-56.00,-992.35,210.0,-717.50,-385.0,1,94.356,
01/01/2000,00:43:40.51,22.57,-56.12,-992.23,315.0,-761.25,-428.75,1,94.360,
01/01/2000,00:43:40.52,22.45,-56.12,-992.10,183.75,-735.0,-350.0,1,94.364,
01/01/2000,00:43:40.53,22.57,-55.88,-992.10,113.75,-691.25,-227.50,1,94.368,
01/01/2000,00:43:40.54,22.57,-55.75,-991.98,236.25,-778.75,-315.0,1,94.372,
01/01/2000,00:43:40.55,22.69,-55.75,-992.35,131.25,-743.75,-262.50,1,94.376,
01/01/2000,00:43:40.56,22.45,-56.00,-992.35,148.75,-647.50,-358.75,1,94.380,
01/01/2000,00:43:40.57,22.45,-56.12,-992.35,218.75,-700.0,-358.75,1,94.317,
01/01/2000,00:43:40.58,22.57,-55.88,-992.10,288.75,-682.50,-332.50,1,94.321,
01/01/2000,00:43:40.59,22.57,-55.63,-992.10,131.25,-778.75,-341.25,1,94.325,
01/01/2000,00:43:40.60,22.69,-55.63,-992.10,262.50,-717.50,-385.0,1,94.329,
01/01/2000,00:43:40.61,22.57,-55.75,-992.10,236.25,-673.75,-341.25,1,94.333,
01/01/2000,00:43:40.62,22.45,-56.00,-992.10,78.75,-700.0,-385.0,1,94.337,
01/01/2000,00:43:40.64,22.45,-55.88,-992.10,218.75,-708.75,-350.0,1,94.341,
01/01/2000,00:43:40.65,22.81,-55.75,-992.10,140.0,-735.0,-420.0,1,94.345,
01/01/2000,00:43:40.66,22.69,-55.88,-992.10,210.0,-717.50,-367.50,1,94.349,
01/01/2000,00:43:40.67,22.69,-56.12,-992.10,332.50,-761.25,-288.75,1,94.353,
01/01/2000,00:43:40.68,22.57,-56.24,-992.10,201.25,-735.0,-446.25,1,94.357,
01/01/2000,00:43:40.69,22.57,-56.12,-992.35,131.25,-603.75,-323.75,1,94.361,
01/01/2000,00:43:40.70,22.69,-55.88,-992.59,70.0,-665.0,-332.50,1,94.365,
01/01/2000,00:43:40.71,22.81,-56.00,-992.47,271.25,-778.75,-271.25,1,94.369,
01/01/2000,00:43:40.72,22.69,-55.88,-992.35,201.25,-630.0,-420.0,1,94.373,
01/01/2000,00:43:40.73,22.69,-56.00,-992.47,192.50,-673.75,-262.50,1,94.377,
01/01/2000,00:43:40.74,22.69,-55.88,-992.47,131.25,-752.50,-315.0,1,94.381,
01/01/2000,00:43:40.75,22.69,-55.75,-992.47,166.25,-735.0,-350.0,1,94.385,
01/01/2000,00:43:40.76,22.94,-55.75,-992.35,131.25,-743.75,-332.50,1,94.389,
01/01/2000,00:43:40.77,22.94,-55.75,-992.23,175.0,-796.25,-288.75,1,94.393,
01/01/2000,00:43:40.78,22.81,-55.88,-992.35,175.0,-691.25,-367.50,1,94.330,
01/01/2000,00:43:40.79,22.69,-55.88,-992.47,166.25,-761.25,-341.25,1,94.334,
01/01/2000,00:43:40.81,22.81,-55.88,-992.35,35.0,-787.50,-376.25,1,94.338,
01/01/2000,00:43:40.81,22.81,-55.75,-992.10,201.25,-691.25,-315.0,1,94.342,
01/01/2000,00:43:40.83,22.57,-55.63,-992.10,218.75,-612.50,-358.75,1,94.346,
01/01/2000,00:43:40.84,22.45,-55.88,-992.23,140.0,-603.75,-227.50,1,94.350,
01/01/2000,00:43:40.85,22.45,-55.63,-992.35,113.75,-682.50,-393.75,1,94.354,
01/01/2000,00:43:40.86,22.57,-55.63,-992.35,201.25,-691.25,-402.50,1,94.358,
01/01/2000,00:43:40.87,22.45,-55.63,-992.23,218.75,-717.50,-245.0,1,94.362,
01/01/2000,00:43:40.88,22.33,-55.63,-992.23,140.0,-848.75,-393.75,1,94.366,
01/01/2000,00:43:40.89,22.45,-55.63,-992.35,210.0,-726.25,-341.25,1,94.370,
01/01/2000,00:43:40.90,22.69,-55.63,-992.35,78.75,-700.0,-367.50,1,94.374,
01/01/2000,00:43:40.91,22.69,-55.63,-992.23,175.0,-691.25,-192.50,1,94.378,
01/01/2000,00:43:40.92,22.57,-55.75,-991.98,245.0,-787.50,-463.75,1,94.316,
01/01/2000,00:43:40.93,22.45,-55.75,-991.98,61.25,-630.0,-306.25,1,94.320,
01/01/2000,00:43:40.94,22.45,-55.63,-992.23,122.50,-691.25,-297.50,1,94.324,
01/01/2000,00:43:40.95,22.45,-55.63,-992.47,183.75,-770.0,-245.0,1,94.328,
01/01/2000,00:43:40.96,22.33,-55.63,-992.59,105.0,-638.75,-297.50,1,94.332,
01/01/2000,00:43:40.97,22.45,-55.88,-992.23,-35.0,-761.25,-402.50,1,94.336,
01/01/2000,00:43:40.99,22.45,-55.63,-992.23,175.0,-621.25,-315.0,1,94.340,
01/01/2000,00:43:41.00,22.45,-55.63,-992.35,227.50,-752.50,-297.50,1,94.344,
01/01/2000,00:43:41.01,22.69,-55.51,-992.35,183.75,-612.50,-341.25,1,94.282,
01/01/2000,00:43:41.02,22.69,-55.63,-992.23,157.50,-735.0,-393.75,1,94.286,
01/01/2000,00:43:41.03,22.45,-55.88,-992.10,113.75,-717.50,-428.75,1,94.290,
01/01/2000,00:43:41.04,22.45,-55.88,-992.35,122.50,-682.50,-288.75,1,94.294,
01/01/2000,00:43:41.05,22.69,-55.88,-992.47,183.75,-673.75,-376.25,1,94.298,
01/01/2000,00:43:41.06,22.57,-55.75,-992.35,140.0,-700.0,-288.75,1,94.302,
01/01/2000,00:43:41.07,22.45,-55.88,-992.10,192.50,-743.75,-288.75,1,94.306,
01/01/2000,00:43:41.08,22.45,-55.88,-991.74,131.25,-717.50,-323.75,1,94.310,
01/01/2000,00:43:41.09,22.33,-55.75,-991.86,210.0,-673.75,-315.0,1,94.313,
01/01/2000,00:43:41.10,22.20,-55.75,-992.10,227.50,-691.25,-367.50,1,94.317,
01/01/2000,00:43:41.11,22.20,-55.51,-992.59,201.25,-656.25,-376.25,1,94.321,
01/01/2000,00:43:41.12,22.45,-55.63,-992.59,131.25,-656.25,-297.50,1,94.325,
01/01/2000,00:43:41.14,22.45,-55.63,-992.47,-8.75,-621.25,-306.25,1,94.329,
01/01/2000,00:43:41.15,22.20,-55.88,-992.10,140.0,-507.50,-358.75,1,94.333,
01/01/2000,00:43:41.16,22.33,-55.88,-992.10,280.0,-708.75,-393.75,1,94.337,
01/01/2000,00:43:41.17,22.45,-55.63,-992.35,210.0,-700.0,-332.50,1,94.341,
01/01/2000,00:43:41.18,22.45,-55.63,-992.47,105.0,-665.0,-350.0,1,94.345,
01/01/2000,00:43:41.19,22.20,-55.51,-992.35,166.25,-586.25,-341.25,1,94.349,
01/01/2000,00:43:41.20,22.20,-55.63,-992.10,175.0,-647.50,-358.75,1,94.353,
01/01/2000,00:43:41.21,22.45,-55.88,-992.10,183.75,-586.25,-323.75,1,94.357,
01/01/2000,00:43:41.22,22.45,-56.00,-992.35,183.75,-796.25,-297.50,1,94.360,
01/01/2000,00:43:41.23,22.20,-56.12,-992.23,122.50,-770.0,-358.75,1,94.364,
01/01/2000,00:43:41.24,22.20,-55.88,-992.23,78.75,-647.50,-297.50,1,94.368,
01/01/2000,00:43:41.25,22.20,-55.63,-991.98,253.75,-595.0,-315.0,1,94.372,
01/01/2000,00:43:41.26,22.33,-55.63,-991.98,113.75,-630.0,-350.0,1,94.376,
01/01/2000,00:43:41.27,22.45,-55.88,-992.23,105.0,-752.50,-236.25,1,94.315,
01/01/2000,00:43:41.28,22.45,-56.12,-992.35,140.0,-787.50,-463.75,1,94.319,
01/01/2000,00:43:41.29,22.45,-56.12,-992.35,157.50,-630.0,-358.75,1,94.323,
01/01/2000,00:43:41.30,22.45,-55.88,-992.10,236.25,-778.75,-411.25,1,94.327,
01/01/2000,00:43:41.31,22.45,-55.63,-991.98,253.75,-647.50,-271.25,1,94.331,
01/01/2000,00:43:41.32,22.45,-55.75,-991.98,227.50,-691.25,-280.0,1,94.334,
01/01/2000,00:43:41.33,22.33,-55.88,-991.98,166.25,-647.50,-323.75,1,94.338,
01/01/2000,00:43:41.35,22.33,-56.00,-992.10,236.25,-682.50,-332.50,1,94.342,
01/01/2000,00:43:41.36,22.33,-55.88,-992.10,227.50,-621.25,-297.50,1,94.346,
01/01/2000,00:43:41.37,22.33,-55.88,-992.10,157.50,-638.75,-332.50,1,94.350,
01/01/2000,00:43:41.38,22.33,-55.75,-992.10,148.75,-708.75,-280.0,1,94.354,
01/01/2000,00:43:41.39,22.20,-55.88,-992.23,96.25,-787.50,-271.25,1,94.358,
01/01/2000,00:43:41.40,22.20,-55.88,-992.10,140.0,-735.0,-323.75,1,94.361,
01/01/2000,00:43:41.41,22.33,-55.75,-992.23,166.25,-673.75,-341.25,1,94.365,
01/01/2000,00:43:41.42,22.33,-55.63,-992.23,218.75,-726.25,-358.75,1,94.369,
01/01/2000,00:43:41.43,22.45,-55.75,-992.10,157.50,-665.0,-367.50,1,94.373,
01/01/2000,00:43:41.44,22.45,-55.63,-992.10,140.0,-831.25,-306.25,1,94.377,
01/01/2000,00:43:41.45,22.69,-55.75,-992.10,210.0,-752.50,-323.75,1,94.381,
01/01/2000,00:43:41.46,22.69,-55.63,-992.10,253.75,-673.75,-367.50,1,94.384,
01/01/2000,00:43:41.47,22.69,-55.63,-992.10,183.75,-796.25,-297.50,1,94.388,
01/01/2000,00:43:41.49,22.69,-55.63,-992.10,52.50,-665.0,-245.0,1,94.328,
01/01/2000,00:43:41.50,22.45,-55.63,-992.10,201.25,-691.25,-288.75,1,94.332,
01/01/2000,00:43:41.51,22.45,-55.88,-992.23,148.75,-761.25,-411.25,1,94.336,
01/01/2000,00:43:41.52,22.45,-55.75,-992.10,140.0,-682.50,-253.75,1,94.340,
01/01/2000,00:43:41.53,22.33,-55.75,-991.86,43.75,-630.0,-420.0,1,94.343,
01/01/2000,00:43:41.54,22.33,-55.63,-991.98,113.75,-840.0,-280.0,1,94.347,
01/01/2000,00:43:41.55,22.45,-55.63,-991.98,183.75,-665.0,-306.25,1,94.351,
01/01/2000,00:43:41.56,22.45,-55.63,-991.86,280.0,-682.50,-341.25,1,94.291,
01/01/2000,00:43:41.57,22.57,-55.63,-992.10,183.75,-638.75,-358.75,1,94.295,
01/01/2000,00:43:41.58,22.45,-55.63,-992.10,96.25,-726.25,-367.50,1,94.299,
01/01/2000,00:43:41.59,22.57,-55.63,-991.98,210.0,-630.0,-341.25,1,94.303,
01/01/2000,00:43:41.60,22.45,-55.51,-991.98,166.25,-673.75,-393.75,1,94.307,
01/01/2000,00:43:41.61,22.45,-55.63,-992.10,297.50,-638.75,-341.25,1,94.311,
01/01/2000,00:43:41.62,22.33,-55.63,-992.10,140.0,-778.75,-420.0,1,94.314,
01/01/2000,00:43:41.63,22.45,-55.63,-992.10,166.25,-647.50,-297.50,1,94.318,
01/01/2000,00:43:41.64,22.33,-55.75,-992.10,157.50,-752.50,-306.25,1,94.322,
01/01/2000,00:43:41.65,22.45,-55.88,-992.23,113.75,-761.25,-420.0,1,94.326,
01/01/2000,00:43:41.66,22.45,-55.75,-992.23,131.25,-630.0,-288.75,1,94.330,
01/01/2000,00:43:41.67,22.57,-55.75,-992.10,148.75,-586.25,-236.25,1,94.333,
01/01/2000,00:43:41.68,22.45,-55.88,-992.10,70.0,-708.75,-350.0,1,94.337,
01/01/2000,00:43:41.70,22.45,-55.88,-992.10,105.0,-743.75,-253.75,1,94.341,
01/01/2000,00:43:41.71,22.45,-55.88,-991.86,96.25,-638.75,-358.75,1,94.345,
01/01/2000,00:43:41.72,22.45,-55.75,-991.98,78.75,-656.25,-350.0,1,94.348,
01/01/2000,00:43:41.73,22.33,-55.75,-992.10,271.25,-647.50,-402.50,1,94.352,
01/01/2000,00:43:41.74,22.33,-56.00,-992.23,166.25,-726.25,-341.25,1,94.356,
01/01/2000,00:43:41.75,22.33,-56.00,-992.23,288.75,-682.50,-323.75,1,94.360,
01/01/2000,00:43:41.76,22.33,-56.00,-992.10,201.25,-647.50,-315.0,1,94.363,
01/01/2000,00:43:41.77,22.20,-55.88,-992.10,78.75,-673.75,-402.50,1,94.367,
01/01/2000,00:43:41.78,22.20,-55.88,-992.10,192.50,-577.50,-341.25,1,94.371,
01/01/2000,00:43:41.79,22.08,-55.75,-992.10,148.75,-796.25,-350.0,1,94.375,
01/01/2000,00:43:41.80,22.20,-55.75,-992.23,253.75,-691.25,-358.75,1,94.378,
01/01/2000,00:43:41.81,22.20,-55.75,-992.35,192.50,-761.25,-271.25,1,94.382,
01/01/2000,00:43:41.82,22.20,-55.63,-992.35,140.0,-673.75,-341.25,1,94.386,
01/01/2000,00:43:41.83,22.33,-55.63,-992.47,61.25,-735.0,-402.50,1,94.327,
01/01/2000,00:43:41.84,22.33,-55.75,-992.35,52.50,-568.75,-437.50,1,94.331,
01/01/2000,00:43:41.85,22.45,-55.75,-992.35,218.75,-691.25,-402.50,1,94.335,
01/01/2000,00:43:41.86,22.45,-55.63,-992.35,105.0,-761.25,-376.25,1,94.338,
01/01/2000,00:43:41.87,22.33,-55.51,-992.35,157.50,-603.75,-288.75,1,94.342,
01/01/2000,00:43:41.88,22.20,-55.51,-992.35,201.25,-691.25,-288.75,1,94.346,
01/01/2000,00:43:41.89,22.33,-55.51,-992.23,183.75,-533.75,-218.75,1,94.350,
01/01/2000,00:43:41.91,22.33,-55.75,-992.35,183.75,-682.50,-411.25,1,94.353,
01/01/2000,00:43:41.92,22.33,-55.63,-992.35,183.75,-682.50,-280.0,1,94.357,
01/01/2000,00:43:41.93,22.33,-55.63,-992.23,166.25,-700.0,-376.25,1,94.361,
01/01/2000,00:43:41.94,22.33,-55.63,-992.23,183.75,-770.0,-315.0,1,94.364,
01/01/2000,00:43:41.95,22.33,-55.63,-992.10,148.75,-778.75,-350.0,1,94.368,
01/01/2000,00:43:41.96,22.45,-55.75,-992.35,210.0,-726.25,-411.25,1,94.372,
01/01/2000,00:43:41.97,22.45,-55.75,-992.35,183.75,-612.50,-192.50,1,94.375,
01/01/2000,00:43:41.98,22.33,-55.88,-992.23,236.25,-735.0,-385.0,1,94.379,
01/01/2000,00:43:41.99,22.33,-55.88,-992.10,192.50,-735.0,-323.75,1,94.383,
01/01/2000,00:43:42.00,22.33,-55.63,-992.23,218.75,-761.25,-367.50,1,94.386,
01/01/2000,00:43:42.02,22.20,-55.63,-992.23,148.75,-726.25,-218.75,1,94.329,
01/01/2000,00:43:42.03,22.33,-55.63,-992.23,140.0,-603.75,-402.50,1,94.332,
01/01/2000,00:43:42.04,22.33,-55.75,-992.23,140.0,-700.0,-385.0,1,94.336,
01/01/2000,00:43:42.05,22.20,-55.75,-992.10,253.75,-603.75,-385.0,1,94.340,
01/01/2000,00:43:42.06,22.33,-55.75,-992.10,253.75,-647.50,-402.50,1,94.343,
01/01/2000,00:43:42.07,22.45,-55.63,-992.35,280.0,-778.75,-332.50,1,94.347,
01/01/2000,00:43:42.08,22.45,-55.63,-992.59,271.25,-682.50,-271.25,1,94.351,
01/01/2000,00:43:42.09,22.45,-55.63,-992.59,227.50,-673.75,-323.75,1,94.354,
01/01/2000,00:43:42.10,22.45,-55.75,-992.35,96.25,-691.25,-280.0,1,94.358,
01/01/2000,00:43:42.11,22.45,-55.88,-992.10,122.50,-743.75,-393.75,1,94.362,
01/01/2000,00:43:42.12,22.45,-55.75,-992.10,113.75,-700.0,-315.0,1,94.365,
01/01/2000,00:43:42.13,22.45,-55.63,-992.23,131.25,-682.50,-437.50,1,94.369,
01/01/2000,00:43:42.14,22.45,-55.75,-992.35,227.50,-656.25,-376.25,1,94.373,
01/01/2000,00:43:42.15,22.45,-55.63,-992.47,210.0,-708.75,-306.25,1,94.376,
01/01/2000,00:43:42.16,22.45,-55.88,-992.47,227.50,-743.75,-297.50,1,94.380,
01/01/2000,00:43:42.17,22.57,-55.88,-992.47,271.25,-691.25,-271.25,1,94.383,
01/01/2000,00:43:42.18,22.69,-55.75,-992.35,87.50,-638.75,-402.50,1,94.326,
01/01/2000,00:43:42.19,22.45,-55.63,-992.23,183.75,-673.75,-306.25,1,94.330,
01/01/2000,00:43:42.20,22.45,-55.51,-992.23,315.0,-726.25,-376.25,1,94.334,
01/01/2000,00:43:42.21,22.45,-55.39,-992.35,96.25,-647.50,-315.0,1,94.337,
01/01/2000,00:43:42.22,22.33,-55.63,-992.23,87.50,-691.25,-402.50,1,94.341,
01/01/2000,00:43:42.23,22.33,-55.63,-992.10,61.25,-647.50,-297.50,1,94.344,
01/01/2000,00:43:42.24,22.33,-55.75,-991.98,183.75,-612.50,-367.50,1,94.348,
01/01/2000,00:43:42.26,22.33,-55.63,-992.10,201.25,-621.25,-297.50,1,94.352,
01/01/2000,00:43:42.27,22.33,-55.75,-992.10,201.25,-726.25,-323.75,1,94.355,
01/01/2000,00:43:42.28,22.33,-55.63,-992.10,183.75,-665.0,-306.25,1,94.359,
01/01/2000,00:43:42.29,22.45,-55.63,-992.35,113.75,-691.25,-332.50,1,94.363,
01/01/2000,00:43:42.30,22.45,-55.63,-992.23,131.25,-560.0,-262.50,1,94.366,
01/01/2000,00:43:42.31,22.20,-55.63,-992.23,210.0,-813.75,-236.25,1,94.370,
01/01/2000,00:43:42.32,22.20,-55.75,-992.35,17.50,-682.50,-350.0,1,94.373,
01/01/2000,00:43:42.33,22.20,-55.88,-992.35,52.50,-743.75,-315.0,1,94.377,
01/01/2000,00:43:42.34,22.33,-56.00,-992.35,210.0,-647.50,-350.0,1,94.320,
01/01/2000,00:43:42.35,22.20,-55.88,-992.10,148.75,-770.0,-315.0,1,94.384,
01/01/2000,00:43:42.36,22.33,-55.88,-992.10,192.50,-656.25,-297.50,1,94.328,
01/01/2000,00:43:42.37,22.45,-55.75,-992.35,201.25,-735.0,-402.50,1,94.331,
01/01/2000,00:43:42.38,22.45,-55.88,-992.35,122.50,-647.50,-437.50,1,94.335,
01/01/2000,00:43:42.40,22.45,-55.88,-992.59,105.0,-595.0,-481.25,1,94.338,
01/01/2000,00:43:42.41,22.45,-55.88,-992.35,140.0,-761.25,-367.50,1,94.342,
01/01/2000,00:43:42.42,22.45,-55.88,-992.35,26.25,-778.75,-332.50,1,94.346,
01/01/2000,00:43:42.43,22.45,-55.75,-992.35,175.0,-752.50,-280.0,1,94.349,
01/01/2000,00:43:42.44,22.45,-55.63,-992.35,262.50,-708.75,-315.0,1,94.353,
01/01/2000,00:43:42.45,22.45,-55.75,-992.35,140.0,-691.25,-376.25,1,94.356,
01/01/2000,00:43:42.46,22.33,-55.75,-992.23,122.50,-621.25,-420.0,1,94.360,
01/01/2000,00:43:42.47,22.45,-55.88,-992.35,210.0,-647.50,-472.50,1,94.364,
01/01/2000,00:43:42.48,22.57,-55.63,-992.35,96.25,-656.25,-358.75,1,94.367,
01/01/2000,00:43:42.49,22.45,-55.51,-992.47,341.25,-682.50,-341.25,1,94.371,
01/01/2000,00:43:42.50,22.45,-55.39,-992.35,227.50,-708.75,-262.50,1,94.374,
01/01/2000,00:43:42.51,22.33,-55.51,-992.35,271.25,-673.75,-332.50,1,94.378,
01/01/2000,00:43:42.52,22.45,-55.63,-992.47,253.75,-770.0,-350.0,1,94.322,
01/01/2000,00:43:42.54,22.33,-55.39,-992.35,210.0,-708.75,-332.50,1,94.325,
01/01/2000,00:43:42.55,22.20,-55.39,-992.35,87.50,-761.25,-306.25,1,94.329,
01/01/2000,00:43:42.56,22.20,-55.39,-992.35,105.0,-673.75,-428.75,1,94.332,
01/01/2000,00:43:42.57,22.33,-55.51,-992.47,201.25,-656.25,-288.75,1,94.336,
01/01/2000,00:43:42.58,22.20,-55.51,-992.35,271.25,-752.50,-385.0,1,94.340,
01/01/2000,00:43:42.59,22.33,-55.63,-992.10,140.0,-735.0,-376.25,1,94.343,
01/01/2000,00:43:42.60,22.20,-55.63,-991.98,166.25,-630.0,-402.50,1,94.347,
01/01/2000,00:43:42.61,22.20,-55.63,-991.98,105.0,-603.75,-297.50,1,94.350,
01/01/2000,00:43:42.62,22.33,-55.51,-992.10,183.75,-717.50,-271.25,1,94.354,
01/01/2000,00:43:42.63,22.33,-55.51,-992.35,43.75,-752.50,-358.75,1,94.357,
01/01/2000,00:43:42.64,22.33,-55.63,-992.47,288.75,-743.75,-306.25,1,94.361,
01/01/2000,00:43:42.65,22.20,-55.88,-992.35,140.0,-665.0,-315.0,1,94.364,
01/01/2000,00:43:42.66,22.33,-55.75,-992.10,96.25,-717.50,-315.0,1,94.368,
01/01/2000,00:43:42.67,22.20,-55.88,-992.10,122.50,-638.75,-376.25,1,94.371,
01/01/2000,00:43:42.68,22.20,-55.63,-992.35,227.50,-630.0,-297.50,1,94.316,
01/01/2000,00:43:42.69,22.08,-55.63,-992.10,175.0,-717.50,-385.0,1,94.320,
01/01/2000,00:43:42.70,21.96,-55.51,-992.10,122.50,-796.25,-253.75,1,94.323,
01/01/2000,00:43:42.71,21.96,-55.63,-991.98,131.25,-656.25,-341.25,1,94.327,
01/01/2000,00:43:42.72,22.20,-55.63,-991.98,245.0,-551.25,-288.75,1,94.330,
01/01/2000,00:43:42.73,22.33,-55.63,-992.10,140.0,-761.25,-402.50,1,94.334,
01/01/2000,00:43:42.75,22.33,-55.75,-992.10,166.25,-735.0,-341.25,1,94.337,
01/01/2000,00:43:42.76,22.08,-55.75,-992.10,245.0,-717.50,-358.75,1,94.341,
01/01/2000,00:43:42.77,22.20,-55.63,-992.23,35.0,-656.25,-306.25,1,94.344,
01/01/2000,00:43:42.78,22.33,-55.63,-992.10,227.50,-673.75,-358.75,1,94.348,
01/01/2000,00:43:42.79,22.33,-55.88,-991.98,183.75,-717.50,-350.0,1,94.351,
01/01/2000,00:43:42.80,22.08,-55.88,-991.74,157.50,-726.25,-402.50,1,94.355,
01/01/2000,00:43:42.81,22.08,-55.75,-991.74,175.0,-708.75,-210.0,1,94.358,
01/01/2000,00:43:42.82,22.20,-55.51,-992.10,105.0,-726.25,-385.0,1,94.362,
01/01/2000,00:43:42.83,22.33,-55.39,-992.10,218.75,-743.75,-271.25,1,94.365,
01/01/2000,00:43:42.84,22.45,-55.39,-992.10,0.0,-735.0,-262.50,1,94.369,
01/01/2000,00:43:42.85,22.45,-55.63,-991.86,157.50,-621.25,-323.75,1,94.372,
01/01/2000,00:43:42.86,22.33,-55.75,-991.86,175.0,-665.0,-253.75,1,94.376,
01/01/2000,00:43:42.87,22.33,-55.75,-991.98,78.75,-682.50,-385.0,1,94.379,
01/01/2000,00:43:42.88,22.57,-55.75,-992.10,166.25,-761.25,-271.25,1,94.383,
01/01/2000,00:43:42.90,22.45,-55.75,-992.10,218.75,-735.0,-428.75,1,94.328,
01/01/2000,00:43:42.90,22.20,-55.63,-992.10,43.75,-752.50,-297.50,1,94.331,
01/01/2000,00:43:42.92,22.20,-55.63,-992.10,113.75,-743.75,-376.25,1,94.335,
01/01/2000,00:43:42.92,22.33,-55.51,-992.10,332.50,-778.75,-358.75,1,94.338,
01/01/2000,00:43:42.94,22.45,-55.63,-992.10,8.75,-726.25,-402.50,1,94.342,
01/01/2000,00:43:42.95,22.33,-55.75,-992.10,210.0,-665.0,-393.75,1,94.345,
01/01/2000,00:43:42.96,22.33,-56.12,-991.86,96.25,-708.75,-455.0,1,94.349,
01/01/2000,00:43:42.97,22.57,-55.88,-992.10,8.75,-717.50,-175.0,1,94.352,
01/01/2000,00:43:42.98,22.57,-55.75,-991.86,192.50,-735.0,-437.50,1,94.356,
01/01/2000,00:43:42.99,22.33,-55.51,-991.86,96.25,-700.0,-227.50,1,94.359,
01/01/2000,00:43:43.00,22.20,-55.63,-991.74,201.25,-630.0,-393.75,1,94.363,
01/01/2000,00:43:43.01,22.08,-55.75,-991.86,183.75,-761.25,-367.50,1,94.366,
01/01/2000,00:43:43.02,22.33,-56.00,-992.10,105.0,-717.50,-288.75,1,94.370,
01/01/2000,00:43:43.04,22.33,-55.75,-992.10,122.50,-621.25,-402.50,1,94.315,
01/01/2000,00:43:43.05,22.33,-55.63,-991.86,183.75,-673.75,-297.50,1,94.319,
01/01/2000,00:43:43.06,22.33,-55.63,-991.86,122.50,-577.50,-420.0,1,94.322,
01/01/2000,00:43:43.07,22.45,-55.88,-992.10,183.75,-621.25,-367.50,1,94.326,
01/01/2000,00:43:43.08,22.45,-55.75,-992.10,201.25,-743.75,-437.50,1,94.329,
01/01/2000,00:43:43.09,22.45,-55.88,-991.98,218.75,-805.0,-341.25,1,94.333,
01/01/2000,00:43:43.10,22.45,-56.00,-991.86,157.50,-691.25,-455.0,1,94.336,
01/01/2000,00:43:43.11,22.57,-55.75,-992.10,87.50,-735.0,-350.0,1,94.340,
01/01/2000,00:43:43.12,22.69,-55.63,-992.10,175.0,-586.25,-288.75,1,94.343,
01/01/2000,00:43:43.13,22.69,-55.63,-992.10,122.50,-612.50,-245.0,1,94.347,
01/01/2000,00:43:43.14,22.45,-55.75,-991.86,218.75,-691.25,-428.75,1,94.350,
01/01/2000,00:43:43.15,22.20,-55.75,-991.49,140.0,-691.25,-437.50,1,94.353,
01/01/2000,00:43:43.16,22.20,-55.51,-991.62,157.50,-717.50,-367.50,1,94.357,
01/01/2000,00:43:43.17,22.57,-55.51,-991.86,201.25,-700.0,-262.50,1,94.360,
01/01/2000,00:43:43.18,22.69,-55.51,-992.23,183.75,-612.50,-271.25,1,94.364,
01/01/2000,00:43:43.19,22.57,-55.63,-992.10,253.75,-700.0,-315.0,1,94.367,
01/01/2000,00:43:43.20,22.45,-55.75,-991.86,122.50,-682.50,-376.25,1,94.370,
01/01/2000,00:43:43.21,22.57,-55.88,-991.62,87.50,-577.50,-297.50,1,94.374,
01/01/2000,00:43:43.22,22.45,-55.75,-991.62,96.25,-700.0,-385.0,1,94.320,
01/01/2000,00:43:43.23,22.45,-55.39,-991.86,35.0,-717.50,-315.0,1,94.381,
01/01/2000,00:43:43.24,22.45,-55.51,-991.98,148.75,-726.25,-367.50,1,94.327,
01/01/2000,00:43:43.25,22.45,-55.63,-991.98,-17.50,-682.50,-288.75,1,94.331,
01/01/2000,00:43:43.26,22.45,-55.75,-991.86,70.0,-682.50,-350.0,1,94.334,
01/01/2000,00:43:43.27,22.81,-55.63,-991.86,26.25,-805.0,-411.25,1,94.337,
01/01/2000,00:43:43.28,22.94,-55.63,-991.86,122.50,-656.25,-332.50,1,94.341,
01/01/2000,00:43:43.29,22.69,-55.63,-991.74,175.0,-638.75,-201.25,1,94.344,
01/01/2000,00:43:43.30,22.57,-55.88,-991.74,175.0,-726.25,-341.25,1,94.348,
01/01/2000,00:43:43.32,22.69,-55.88,-991.86,113.75,-708.75,-367.50,1,94.351,
01/01/2000,00:43:43.33,22.81,-55.63,-991.98,288.75,-691.25,-376.25,1,94.354,
01/01/2000,00:43:43.34,22.69,-55.63,-991.86,201.25,-595.0,-288.75,1,94.358,
01/01/2000,00:43:43.35,22.69,-55.75,-991.86,70.0,-717.50,-306.25,1,94.361,
01/01/2000,00:43:43.36,22.57,-55.88,-991.98,61.25,-735.0,-341.25,1,94.365,
01/01/2000,00:43:43.37,22.69,-55.75,-992.10,70.0,-673.75,-306.25,1,94.368,
01/01/2000,00:43:43.38,22.57,-55.51,-992.10,262.50,-691.25,-297.50,1,94.371,
01/01/2000,00:43:43.39,22.45,-55.39,-991.98,140.0,-682.50,-341.25,1,94.375,
