rtcDate,rtcTime,aX,aY,aZ,gX,gY,gZ,dataRdy,output_Hz,
01/01/2000,01:46:24.98,10.13,-69.91,-862.05,218.75,-638.75,-341.25,1,0.0,
01/01/2000,01:46:24.99,10.61,-72.22,-891.82,227.50,-726.25,-280.0,1,100.0,
01/01/2000,01:46:25.00,10.74,-73.20,-903.78,70.0,-673.75,-201.25,1,100.0,
01/01/2000,01:46:25.01,10.74,-74.66,-919.27,122.50,-577.50,-446.25,1,100.0,
01/01/2000,01:46:25.02,10.74,-75.40,-928.18,183.75,-770.0,-358.75,1,100.0,
01/01/2000,01:46:25.03,10.86,-75.88,-935.98,105.0,-630.0,-367.50,1,100.0,
01/01/2000,01:46:25.04,10.86,-76.25,-942.94,192.50,-638.75,-341.25,1,100.0,
01/01/2000,01:46:25.06,10.98,-76.86,-951.60,245.0,-647.50,-271.25,1,100.0,
01/01/2000,01:46:25.07,11.22,-77.47,-956.48,288.75,-673.75,-350.0,1,100.0,
01/01/2000,01:46:25.08,11.35,-77.96,-960.75,175.0,-656.25,-315.0,1,100.0,
01/01/2000,01:46:25.09,11.47,-78.45,-966.24,96.25,-691.25,-376.25,1,100.0,
01/01/2000,01:46:25.10,11.47,-78.81,-969.41,131.25,-656.25,-411.25,1,100.0,
01/01/2000,01:46:25.11,11.47,-78.81,-971.97,288.75,-630.0,-358.75,1,100.0,
01/01/2000,01:46:25.12,11.71,-78.81,-974.41,87.50,-638.75,-236.25,1,100.0,
01/01/2000,01:46:25.13,11.71,-79.06,-977.46,113.75,-761.25,-420.0,1,100.0,
01/01/2000,01:46:25.14,11.71,-79.30,-979.29,210.0,-603.75,-218.75,1,100.0,
01/01/2000,01:46:25.15,11.71,-79.54,-980.88,113.75,-743.75,-367.50,1,100.0,
01/01/2000,01:46:25.16,11.59,-79.67,-982.22,157.50,-612.50,-262.50,1,100.0,
01/01/2000,01:46:25.17,11.71,-79.67,-984.05,113.75,-726.25,-437.50,1,100.0,
01/01/2000,01:46:25.18,11.71,-79.67,-985.03,96.25,-761.25,-323.75,1,100.0,
01/01/2000,01:46:25.19,11.71,-79.79,-986.00,148.75,-656.25,-306.25,1,100.0,
01/01/2000,01:46:25.20,11.83,-79.79,-986.86,87.50,-682.50,-332.50,1,100.0,
01/01/2000,01:46:25.21,11.83,-80.28,-987.71,183.75,-778.75,-446.25,1,100.0,
01/01/2000,01:46:25.22,11.96,-80.28,-988.08,131.25,-647.50,-262.50,1,100.0,
01/01/2000,01:46:25.23,11.83,-80.28,-988.44,183.75,-638.75,-525.0,1,100.0,
01/01/2000,01:46:25.24,11.96,-80.15,-988.93,192.50,-708.75,-350.0,1,100.0,
01/01/2000,01:46:25.25,11.83,-80.15,-989.54,87.50,-638.75,-306.25,1,100.0,
01/01/2000,01:46:25.26,11.96,-80.15,-989.79,148.75,-673.75,-385.0,1,96.552,
01/01/2000,01:46:25.27,11.96,-80.40,-990.15,201.25,-665.0,-367.50,1,96.667,
01/01/2000,01:46:25.28,11.96,-80.52,-990.40,131.25,-805.0,-358.75,1,96.774,
01/01/2000,01:46:25.29,11.83,-80.52,-990.64,201.25,-717.50,-498.75,1,96.875,
01/01/2000,01:46:25.30,11.83,-80.52,-990.76,183.75,-708.75,-315.0,1,96.970,
01/01/2000,01:46:25.31,11.71,-80.52,-990.88,201.25,-726.25,-385.0,1,97.059,
01/01/2000,01:46:25.33,11.71,-80.28,-991.01,113.75,-647.50,-393.75,1,97.143,
01/01/2000,01:46:25.34,11.96,-80.40,-991.01,-17.50,-630.0,-402.50,1,97.222,
01/01/2000,01:46:25.35,11.96,-80.40,-991.01,52.50,-682.50,-428.75,1,97.297,
01/01/2000,01:46:25.36,11.96,-80.52,-991.01,253.75,-647.50,-402.50,1,97.368,
01/01/2000,01:46:25.37,11.96,-80.64,-991.25,96.25,-752.50,-376.25,1,97.436,
01/01/2000,01:46:25.38,11.83,-80.52,-991.62,78.75,-647.50,-393.75,1,97.500,
01/01/2000,01:46:25.39,11.71,-80.76,-991.74,166.25,-761.25,-306.25,1,97.561,
01/01/2000,01:46:25.40,11.71,-80.52,-991.86,0.0,-708.75,-218.75,1,97.619,
01/01/2000,01:46:25.41,11.71,-80.76,-991.98,122.50,-752.50,-385.0,1,97.674,
01/01/2000,01:46:25.42,11.71,-80.76,-991.98,253.75,-787.50,-376.25,1,97.727,
01/01/2000,01:46:25.43,11.71,-80.76,-991.86,192.50,-630.0,-253.75,1,97.778,
01/01/2000,01:46:25.44,11.71,-80.52,-992.10,52.50,-770.0,-367.50,1,97.826,
01/01/2000,01:46:25.45,11.71,-80.40,-992.10,96.25,-726.25,-315.0,1,97.872,
01/01/2000,01:46:25.46,11.59,-80.40,-992.10,166.25,-638.75,-420.0,1,97.917,
01/01/2000,01:46:25.47,11.71,-80.52,-991.98,166.25,-665.0,-306.25,1,96.0,
01/01/2000,01:46:25.48,11.71,-80.40,-991.86,96.25,-603.75,-376.25,1,96.078,
01/01/2000,01:46:25.49,11.71,-80.52,-991.86,78.75,-630.0,-463.75,1,96.154,
01/01/2000,01:46:25.51,11.83,-80.52,-991.86,157.50,-673.75,-385.0,1,96.226,
01/01/2000,01:46:25.52,11.83,-80.52,-991.86,113.75,-796.25,-236.25,1,96.296,
01/01/2000,01:46:25.53,11.83,-80.40,-991.98,210.0,-708.75,-315.0,1,96.364,
01/01/2000,01:46:25.54,11.71,-80.52,-992.10,245.0,-665.0,-402.50,1,96.429,
01/01/2000,01:46:25.55,11.71,-80.64,-991.98,157.50,-717.50,-358.75,1,96.491,
01/01/2000,01:46:25.56,11.71,-80.64,-991.98,70.0,-656.25,-507.50,1,96.552,
01/01/2000,01:46:25.57,11.47,-80.40,-991.86,218.75,-708.75,-236.25,1,96.610,
01/01/2000,01:46:25.58,11.71,-80.28,-991.98,140.0,-568.75,-455.0,1,96.667,
01/01/2000,01:46:25.59,11.59,-80.52,-991.86,192.50,-638.75,-280.0,1,96.721,
01/01/2000,01:46:25.60,11.71,-80.40,-991.98,140.0,-831.25,-358.75,1,96.774,
01/01/2000,01:46:25.61,11.71,-80.40,-991.86,157.50,-630.0,-323.75,1,95.313,
01/01/2000,01:46:25.62,11.83,-80.52,-991.86,131.25,-691.25,-280.0,1,95.385,
01/01/2000,01:46:25.63,11.96,-80.40,-991.98,131.25,-665.0,-271.25,1,95.455,
01/01/2000,01:46:25.64,11.71,-80.52,-991.86,157.50,-717.50,-481.25,1,95.522,
01/01/2000,01:46:25.65,11.71,-80.52,-991.98,288.75,-708.75,-236.25,1,95.588,
01/01/2000,01:46:25.66,11.96,-80.40,-991.86,78.75,-787.50,-411.25,1,95.652,
01/01/2000,01:46:25.67,11.83,-80.64,-991.86,218.75,-735.0,-122.50,1,95.714,
01/01/2000,01:46:25.69,11.71,-80.64,-991.86,96.25,-568.75,-315.0,1,95.775,
01/01/2000,01:46:25.70,11.71,-80.52,-991.86,61.25,-612.50,-455.0,1,95.833,
01/01/2000,01:46:25.71,11.59,-80.52,-991.98,262.50,-603.75,-253.75,1,95.890,
01/01/2000,01:46:25.72,11.71,-80.28,-991.98,122.50,-752.50,-472.50,1,95.946,
01/01/2000,01:46:25.73,11.47,-80.40,-991.86,227.50,-621.25,-227.50,1,96.0,
01/01/2000,01:46:25.74,11.59,-80.52,-991.86,210.0,-700.0,-402.50,1,96.053,
01/01/2000,01:46:25.75,11.71,-80.64,-991.74,227.50,-682.50,-472.50,1,96.104,
01/01/2000,01:46:25.76,11.71,-80.76,-991.74,166.25,-726.25,-341.25,1,96.154,
01/01/2000,01:46:25.77,11.71,-80.52,-991.62,113.75,-612.50,-350.0,1,96.203,
01/01/2000,01:46:25.78,11.71,-80.52,-991.62,271.25,-638.75,-262.50,1,96.250,
01/01/2000,01:46:25.79,11.83,-80.64,-991.62,113.75,-708.75,-280.0,1,96.296,
01/01/2000,01:46:25.80,11.71,-80.76,-991.62,105.0,-717.50,-437.50,1,96.341,
01/01/2000,01:46:25.81,11.96,-80.76,-991.37,131.25,-673.75,-332.50,1,96.386,
01/01/2000,01:46:25.83,11.96,-80.52,-991.37,70.0,-735.0,-315.0,1,95.294,
01/01/2000,01:46:25.84,11.96,-80.40,-991.37,271.25,-560.0,-280.0,1,95.349,
01/01/2000,01:46:25.85,11.96,-80.28,-991.49,113.75,-682.50,-455.0,1,95.402,
01/01/2000,01:46:25.86,11.96,-80.40,-991.37,280.0,-603.75,-332.50,1,95.455,
01/01/2000,01:46:25.87,11.96,-80.52,-991.37,87.50,-700.0,-332.50,1,95.506,
01/01/2000,01:46:25.88,11.96,-80.40,-991.37,175.0,-656.25,-297.50,1,95.556,
01/01/2000,01:46:25.89,11.96,-80.28,-991.49,0.0,-630.0,-332.50,1,95.604,
01/01/2000,01:46:25.90,12.08,-80.28,-991.62,166.25,-726.25,-393.75,1,95.652,
01/01/2000,01:46:25.91,11.96,-80.28,-991.37,122.50,-647.50,-315.0,1,95.699,
01/01/2000,01:46:25.92,11.96,-80.52,-991.25,175.0,-665.0,-332.50,1,95.745,
01/01/2000,01:46:25.93,11.96,-80.64,-991.13,105.0,-586.25,-367.50,1,95.789,
01/01/2000,01:46:25.94,11.96,-80.40,-991.13,210.0,-700.0,-358.75,1,95.833,
01/01/2000,01:46:25.95,12.08,-80.28,-991.37,122.50,-665.0,-350.0,1,95.876,
01/01/2000,01:46:25.96,11.96,-80.40,-991.49,245.0,-700.0,-341.25,1,94.949,
01/01/2000,01:46:25.97,11.71,-80.76,-991.49,122.50,-595.0,-323.75,1,95.0,
01/01/2000,01:46:25.98,11.71,-80.76,-991.37,175.0,-656.25,-420.0,1,95.050,
01/01/2000,01:46:25.99,11.83,-80.52,-991.37,157.50,-630.0,-288.75,1,95.098,
01/01/2000,01:46:26.00,11.96,-80.64,-991.62,105.0,-612.50,-315.0,1,95.146,
01/01/2000,01:46:26.02,11.47,-80.89,-991.62,192.50,-752.50,-358.75,1,95.192,
01/01/2000,01:46:26.03,11.47,-80.89,-991.62,210.0,-682.50,-297.50,1,95.238,
01/01/2000,01:46:26.04,11.59,-80.76,-991.37,-26.25,-551.25,-472.50,1,95.283,
01/01/2000,01:46:26.05,11.71,-80.64,-991.37,131.25,-752.50,-297.50,1,95.327,
01/01/2000,01:46:26.06,11.59,-80.64,-991.13,105.0,-743.75,-455.0,1,95.370,
01/01/2000,01:46:26.07,11.47,-80.76,-990.88,166.25,-735.0,-245.0,1,95.413,
01/01/2000,01:46:26.08,11.22,-80.76,-990.88,192.50,-717.50,-288.75,1,95.455,
01/01/2000,01:46:26.09,11.35,-80.64,-991.01,166.25,-638.75,-358.75,1,95.495,
01/01/2000,01:46:26.10,11.59,-80.52,-991.01,271.25,-665.0,-376.25,1,95.536,
01/01/2000,01:46:26.11,11.83,-80.52,-991.01,315.0,-595.0,-341.25,1,95.575,
01/01/2000,01:46:26.12,11.71,-80.76,-990.88,131.25,-603.75,-411.25,1,95.614,
01/01/2000,01:46:26.13,11.59,-80.76,-990.88,113.75,-726.25,-490.0,1,95.652,
01/01/2000,01:46:26.14,11.59,-80.89,-990.88,122.50,-630.0,-350.0,1,94.872,
01/01/2000,01:46:26.15,11.83,-80.64,-991.01,175.0,-708.75,-358.75,1,94.915,
01/01/2000,01:46:26.16,11.71,-80.76,-990.88,148.75,-586.25,-288.75,1,94.958,
01/01/2000,01:46:26.18,11.59,-80.76,-990.64,157.50,-647.50,-341.25,1,95.0,
01/01/2000,01:46:26.19,11.47,-80.76,-990.64,131.25,-770.0,-420.0,1,95.041,
01/01/2000,01:46:26.20,11.47,-80.76,-990.88,131.25,-621.25,-183.75,1,95.082,
01/01/2000,01:46:26.21,10.98,-80.76,-991.37,385.0,-568.75,-420.0,1,95.122,
01/01/2000,01:46:26.22,11.71,-80.03,-991.01,-175.0,-673.75,-673.75,1,95.161,
01/01/2000,01:46:26.23,12.20,-80.15,-990.40,463.75,-726.25,-175.0,1,95.200,
01/01/2000,01:46:26.24,12.44,-80.28,-989.91,-17.50,-682.50,-175.0,1,95.238,
01/01/2000,01:46:26.25,11.71,-80.76,-990.27,-8.75,-647.50,-446.25,1,95.276,
01/01/2000,01:46:26.26,10.98,-81.50,-991.13,385.0,-647.50,-761.25,1,95.313,
01/01/2000,01:46:26.27,11.10,-80.52,-991.98,-78.75,-665.0,-481.25,1,95.349,
01/01/2000,01:46:26.28,11.35,-79.91,-991.74,315.0,-647.50,-323.75,1,95.385,
01/01/2000,01:46:26.29,11.83,-79.67,-991.13,61.25,-691.25,-218.75,1,95.420,
01/01/2000,01:46:26.30,11.83,-79.91,-990.52,87.50,-630.0,-140.0,1,95.455,
01/01/2000,01:46:26.31,11.47,-81.01,-990.88,288.75,-516.25,-122.50,1,95.489,
01/01/2000,01:46:26.32,11.71,-81.25,-991.98,43.75,-708.75,-533.75,1,94.815,
01/01/2000,01:46:26.33,12.08,-80.52,-991.86,140.0,-708.75,-498.75,1,94.853,
01/01/2000,01:46:26.34,11.96,-80.15,-991.13,148.75,-691.25,-192.50,1,94.891,
01/01/2000,01:46:26.35,11.96,-79.67,-990.40,52.50,-752.50,-306.25,1,94.928,
01/01/2000,01:46:26.36,11.71,-80.28,-990.27,350.0,-673.75,-227.50,1,94.964,
01/01/2000,01:46:26.37,11.83,-80.89,-991.37,52.50,-586.25,-455.0,1,95.0,
01/01/2000,01:46:26.39,11.83,-80.89,-991.62,183.75,-621.25,-577.50,1,95.035,
01/01/2000,01:46:26.40,11.71,-80.52,-991.13,183.75,-568.75,-315.0,1,95.070,
01/01/2000,01:46:26.41,11.96,-80.03,-990.40,166.25,-691.25,-358.75,1,95.105,
01/01/2000,01:46:26.42,11.83,-80.03,-990.27,315.0,-682.50,-236.25,1,95.139,
01/01/2000,01:46:26.43,11.83,-80.28,-991.13,236.25,-726.25,-201.25,1,95.172,
01/01/2000,01:46:26.44,11.83,-80.76,-991.49,201.25,-647.50,-358.75,1,95.205,
01/01/2000,01:46:26.45,11.71,-80.89,-991.37,70.0,-752.50,-446.25,1,95.238,
01/01/2000,01:46:26.46,11.59,-80.40,-990.52,288.75,-717.50,-437.50,1,95.270,
01/01/2000,01:46:26.47,11.59,-80.28,-990.27,192.50,-752.50,-385.0,1,95.302,
01/01/2000,01:46:26.48,11.71,-80.15,-990.64,192.50,-691.25,-245.0,1,95.333,
01/01/2000,01:46:26.49,11.71,-80.76,-991.25,105.0,-595.0,-323.75,1,94.737,
01/01/2000,01:46:26.50,11.71,-80.76,-991.25,148.75,-726.25,-402.50,1,95.395,
01/01/2000,01:46:26.51,11.71,-80.76,-990.88,8.75,-638.75,-358.75,1,94.805,
01/01/2000,01:46:26.53,11.83,-80.28,-990.52,61.25,-621.25,-280.0,1,94.839,
01/01/2000,01:46:26.54,11.71,-80.28,-990.88,201.25,-603.75,-393.75,1,94.872,
01/01/2000,01:46:26.55,11.71,-80.52,-991.13,262.50,-638.75,-402.50,1,94.904,
01/01/2000,01:46:26.56,11.47,-80.52,-991.13,166.25,-612.50,-393.75,1,94.937,
01/01/2000,01:46:26.57,11.47,-80.52,-990.88,70.0,-621.25,-507.50,1,94.969,
01/01/2000,01:46:26.58,11.59,-80.15,-990.88,122.50,-682.50,-288.75,1,95.0,
01/01/2000,01:46:26.59,11.96,-80.03,-990.88,201.25,-735.0,-253.75,1,95.031,
01/01/2000,01:46:26.60,11.71,-80.28,-991.13,253.75,-717.50,-297.50,1,94.479,
01/01/2000,01:46:26.61,11.47,-80.40,-991.25,78.75,-735.0,-385.0,1,94.512,
01/01/2000,01:46:26.62,11.59,-80.40,-991.01,245.0,-691.25,-420.0,1,94.545,
01/01/2000,01:46:26.63,11.71,-80.03,-991.01,227.50,-647.50,-332.50,1,94.578,
01/01/2000,01:46:26.64,11.96,-79.91,-990.88,201.25,-735.0,-262.50,1,94.611,
01/01/2000,01:46:26.65,11.83,-80.15,-991.01,-8.75,-647.50,-61.25,1,94.643,
01/01/2000,01:46:26.66,11.71,-80.28,-990.88,148.75,-735.0,-481.25,1,94.675,
01/01/2000,01:46:26.67,11.47,-80.52,-991.01,183.75,-560.0,-455.0,1,94.706,
01/01/2000,01:46:26.68,11.59,-80.40,-990.88,96.25,-603.75,-455.0,1,94.737,
01/01/2000,01:46:26.69,11.96,-80.03,-990.88,113.75,-743.75,-315.0,1,94.767,
01/01/2000,01:46:26.71,11.96,-80.15,-990.64,105.0,-630.0,-280.0,1,94.798,
01/01/2000,01:46:26.71,11.83,-80.40,-990.64,175.0,-691.25,-402.50,1,94.828,
01/01/2000,01:46:26.73,11.59,-80.76,-990.76,201.25,-638.75,-297.50,1,94.857,
01/01/2000,01:46:26.74,11.71,-80.64,-991.01,262.50,-691.25,-350.0,1,94.886,
01/01/2000,01:46:26.75,11.83,-80.28,-991.13,358.75,-726.25,-341.25,1,94.915,
01/01/2000,01:46:26.76,11.96,-80.03,-990.88,113.75,-612.50,-210.0,1,94.944,
01/01/2000,01:46:26.77,11.59,-80.28,-990.64,210.0,-735.0,-280.0,1,94.972,
01/01/2000,01:46:26.78,11.59,-80.40,-990.76,183.75,-647.50,-341.25,1,95.0,
01/01/2000,01:46:26.79,11.71,-80.52,-991.01,175.0,-717.50,-385.0,1,95.028,
01/01/2000,01:46:26.80,11.83,-80.52,-991.13,122.50,-682.50,-385.0,1,95.055,
01/01/2000,01:46:26.81,11.83,-80.28,-990.76,113.75,-700.0,-271.25,1,94.565,
01/01/2000,01:46:26.82,11.71,-80.40,-990.64,166.25,-673.75,-350.0,1,94.595,
01/01/2000,01:46:26.83,11.71,-80.28,-991.01,157.50,-761.25,-341.25,1,94.624,
01/01/2000,01:46:26.84,11.71,-80.40,-991.25,148.75,-708.75,-428.75,1,94.652,
01/01/2000,01:46:26.85,11.83,-80.40,-991.25,315.0,-665.0,-341.25,1,94.681,
01/01/2000,01:46:26.86,11.83,-80.28,-991.01,192.50,-770.0,-428.75,1,94.709,
01/01/2000,01:46:26.87,11.83,-80.28,-990.76,201.25,-630.0,-350.0,1,94.737,
01/01/2000,01:46:26.89,11.71,-80.28,-991.13,253.75,-621.25,-358.75,1,94.764,
01/01/2000,01:46:26.90,11.96,-80.40,-991.25,166.25,-568.75,-341.25,1,94.792,
01/01/2000,01:46:26.91,11.96,-80.52,-991.13,70.0,-612.50,-332.50,1,94.819,
01/01/2000,01:46:26.92,11.96,-80.28,-990.88,183.75,-708.75,-297.50,1,94.845,
01/01/2000,01:46:26.93,11.71,-80.28,-990.64,96.25,-612.50,-446.25,1,94.872,
01/01/2000,01:46:26.94,11.71,-80.28,-990.76,113.75,-708.75,-323.75,1,94.898,
01/01/2000,01:46:26.95,11.71,-80.28,-991.13,175.0,-638.75,-332.50,1,94.924,
01/01/2000,01:46:26.96,11.71,-80.28,-991.13,8.75,-743.75,-385.0,1,94.949,
01/01/2000,01:46:26.97,11.59,-80.28,-991.01,192.50,-682.50,-402.50,1,94.975,
01/01/2000,01:46:26.98,11.47,-80.28,-990.76,113.75,-752.50,-393.75,1,95.0,
01/01/2000,01:46:26.99,11.47,-80.52,-990.76,175.0,-743.75,-245.0,1,95.025,
01/01/2000,01:46:27.00,11.71,-80.52,-991.13,105.0,-682.50,-402.50,1,95.050,
01/01/2000,01:46:27.01,11.71,-80.52,-991.25,96.25,-673.75,-297.50,1,95.074,
01/01/2000,01:46:27.02,11.59,-80.52,-990.88,131.25,-743.75,-350.0,1,94.634,
01/01/2000,01:46:27.04,11.47,-80.52,-990.52,166.25,-603.75,-280.0,1,94.660,
01/01/2000,01:46:27.05,11.59,-80.52,-990.76,148.75,-630.0,-358.75,1,94.686,
01/01/2000,01:46:27.06,11.71,-80.40,-991.13,201.25,-761.25,-376.25,1,94.712,
01/01/2000,01:46:27.07,11.83,-80.64,-991.25,87.50,-708.75,-253.75,1,94.737,
01/01/2000,01:46:27.08,11.59,-80.52,-990.88,192.50,-647.50,-455.0,1,94.762,
01/01/2000,01:46:27.09,11.35,-80.40,-990.64,8.75,-595.0,-350.0,1,94.787,
01/01/2000,01:46:27.10,11.59,-80.15,-990.64,148.75,-813.75,-437.50,1,94.811,
01/01/2000,01:46:27.11,11.71,-80.28,-990.88,218.75,-743.75,-271.25,1,94.836,
01/01/2000,01:46:27.12,11.71,-80.28,-990.76,210.0,-656.25,-201.25,1,94.860,
01/01/2000,01:46:27.13,11.59,-80.40,-990.52,166.25,-682.50,-481.25,1,94.884,
01/01/2000,01:46:27.14,11.59,-80.52,-990.52,315.0,-673.75,-306.25,1,94.470,
01/01/2000,01:46:27.15,11.83,-80.28,-990.64,70.0,-638.75,-420.0,1,94.495,
01/01/2000,01:46:27.16,11.96,-80.40,-990.88,70.0,-778.75,-271.25,1,94.521,
01/01/2000,01:46:27.17,11.71,-80.28,-990.64,140.0,-761.25,-393.75,1,94.545,
01/01/2000,01:46:27.18,11.59,-80.40,-990.76,105.0,-787.50,-323.75,1,94.570,
01/01/2000,01:46:27.19,11.71,-80.40,-990.76,61.25,-717.50,-315.0,1,94.595,
01/01/2000,01:46:27.20,11.71,-80.40,-990.88,253.75,-700.0,-393.75,1,94.619,
01/01/2000,01:46:27.21,11.71,-80.40,-990.88,35.0,-691.25,-332.50,1,94.643,
01/01/2000,01:46:27.22,11.59,-80.40,-990.76,61.25,-621.25,-315.0,1,94.667,
01/01/2000,01:46:27.23,11.59,-80.28,-990.76,166.25,-700.0,-341.25,1,94.690,
01/01/2000,01:46:27.24,11.71,-80.28,-990.88,175.0,-638.75,-306.25,1,94.714,
01/01/2000,01:46:27.25,11.83,-80.28,-990.88,175.0,-665.0,-367.50,1,94.737,
01/01/2000,01:46:27.27,11.83,-80.40,-990.88,227.50,-735.0,-306.25,1,94.760,
01/01/2000,01:46:27.27,11.83,-80.40,-990.88,70.0,-752.50,-411.25,1,94.783,
01/01/2000,01:46:27.29,11.71,-80.28,-990.88,96.25,-708.75,-297.50,1,94.805,
01/01/2000,01:46:27.30,11.71,-80.28,-990.88,227.50,-770.0,-297.50,1,94.828,
01/01/2000,01:46:27.31,11.96,-80.28,-991.01,201.25,-708.75,-402.50,1,94.850,
01/01/2000,01:46:27.32,11.83,-80.28,-991.01,175.0,-595.0,-323.75,1,94.872,
01/01/2000,01:46:27.33,10.49,-80.52,-991.49,105.0,-551.25,-70.0,1,94.894,
01/01/2000,01:46:27.34,11.22,-80.28,-991.37,-87.50,-778.75,-1461.25,1,94.915,
01/01/2000,01:46:27.35,13.66,-79.91,-990.03,131.25,-857.50,-656.25,1,94.937,
01/01/2000,01:46:27.36,12.81,-80.52,-989.91,262.50,-822.50,1120.0,1,94.958,
01/01/2000,01:46:27.37,9.76,-81.62,-991.37,245.0,-568.75,332.50,1,94.583,
01/01/2000,01:46:27.38,10.49,-81.01,-992.23,113.75,-638.75,-2196.25,1,94.606,
01/01/2000,01:46:27.39,11.96,-79.91,-992.10,218.75,-735.0,-1443.75,1,94.628,
01/01/2000,01:46:27.40,12.20,-79.30,-990.76,-70.0,-551.25,1645.0,1,94.650,
01/01/2000,01:46:27.41,11.71,-79.79,-989.54,210.0,-525.0,1837.50,1,94.672,
01/01/2000,01:46:27.42,11.47,-80.76,-989.66,157.50,-700.0,-446.25,1,94.694,
01/01/2000,01:46:27.43,11.35,-81.62,-990.76,428.75,-726.25,-1898.75,1,94.715,
01/01/2000,01:46:27.45,11.59,-81.25,-992.23,87.50,-560.0,-525.0,1,94.737,
01/01/2000,01:46:27.46,12.20,-80.28,-991.74,157.50,-682.50,280.0,1,94.758,
01/01/2000,01:46:27.47,11.96,-79.67,-989.91,341.25,-656.25,35.0,1,94.779,
01/01/2000,01:46:27.48,11.47,-79.79,-989.54,70.0,-752.50,-332.50,1,94.800,
01/01/2000,01:46:27.49,11.47,-80.52,-990.40,516.25,-682.50,-420.0,1,94.821,
01/01/2000,01:46:27.50,11.83,-80.89,-991.86,183.75,-673.75,-420.0,1,94.841,
01/01/2000,01:46:27.51,12.08,-80.64,-992.23,35.0,-568.75,-367.50,1,94.862,
01/01/2000,01:46:27.52,11.83,-80.40,-990.27,332.50,-752.50,-350.0,1,94.882,
01/01/2000,01:46:27.53,11.83,-79.67,-989.54,192.50,-787.50,-437.50,1,94.902,
01/01/2000,01:46:27.55,11.96,-80.28,-990.88,253.75,-752.50,-288.75,1,94.553,
01/01/2000,01:46:27.56,11.83,-80.76,-992.10,17.50,-673.75,-385.0,1,94.574,
01/01/2000,01:46:27.57,11.96,-80.76,-991.62,131.25,-665.0,-455.0,1,94.595,
01/01/2000,01:46:27.58,11.59,-80.40,-990.64,245.0,-743.75,-420.0,1,94.615,
01/01/2000,01:46:27.59,11.59,-80.03,-990.15,175.0,-647.50,-437.50,1,94.636,
01/01/2000,01:46:27.60,11.83,-79.91,-990.64,157.50,-805.0,-218.75,1,94.656,
01/01/2000,01:46:27.61,12.20,-80.28,-991.62,78.75,-822.50,-122.50,1,94.677,
01/01/2000,01:46:27.62,11.83,-80.64,-991.86,52.50,-630.0,-253.75,1,94.697,
01/01/2000,01:46:27.63,11.47,-80.76,-991.37,210.0,-743.75,-525.0,1,94.717,
01/01/2000,01:46:27.64,11.71,-80.15,-990.64,245.0,-708.75,-673.75,1,94.737,
01/01/2000,01:46:27.65,12.20,-79.91,-990.40,96.25,-682.50,-166.25,1,94.757,
01/01/2000,01:46:27.66,12.32,-80.03,-991.13,166.25,-691.25,-35.0,1,94.776,
01/01/2000,01:46:27.67,12.20,-80.28,-991.62,140.0,-761.25,-306.25,1,94.796,
01/01/2000,01:46:27.68,11.83,-80.76,-991.37,78.75,-717.50,-542.50,1,94.815,
01/01/2000,01:46:27.69,11.71,-80.52,-991.13,140.0,-761.25,-367.50,1,94.834,
01/01/2000,01:46:27.70,11.83,-80.15,-990.88,131.25,-752.50,-358.75,1,94.853,
01/01/2000,01:46:27.71,12.20,-79.79,-990.76,-43.75,-682.50,-227.50,1,94.872,
01/01/2000,01:46:27.72,12.32,-80.03,-991.01,-35.0,-691.25,-148.75,1,94.891,
01/01/2000,01:46:27.73,11.71,-80.76,-991.13,183.75,-778.75,-271.25,1,94.909,
01/01/2000,01:46:27.74,11.47,-80.76,-991.01,218.75,-621.25,-542.50,1,94.928,
01/01/2000,01:46:27.75,11.71,-80.76,-990.76,236.25,-717.50,-586.25,1,94.946,
01/01/2000,01:46:27.76,12.08,-80.28,-990.64,201.25,-726.25,-376.25,1,94.624,
01/01/2000,01:46:27.77,11.96,-80.40,-990.64,166.25,-726.25,0.0,1,94.982,
01/01/2000,01:46:27.78,11.71,-80.40,-990.76,157.50,-708.75,-227.50,1,94.662,
01/01/2000,01:46:27.80,11.71,-80.52,-991.13,157.50,-647.50,-577.50,1,94.681,
01/01/2000,01:46:27.81,11.83,-80.64,-991.25,236.25,-682.50,-481.25,1,94.700,
01/01/2000,01:46:27.82,11.96,-80.40,-991.13,122.50,-735.0,-183.75,1,94.718,
01/01/2000,01:46:27.83,11.96,-80.40,-990.76,210.0,-717.50,-271.25,1,94.737,
01/01/2000,01:46:27.84,11.83,-80.52,-990.64,140.0,-726.25,-323.75,1,94.755,
01/01/2000,01:46:27.85,11.71,-80.64,-990.76,166.25,-630.0,-428.75,1,94.774,
01/01/2000,01:46:27.86,11.71,-80.64,-991.13,166.25,-682.50,-402.50,1,94.792,
01/01/2000,01:46:27.87,11.83,-80.40,-991.25,122.50,-665.0,-428.75,1,94.810,
01/01/2000,01:46:27.88,11.83,-80.28,-990.64,148.75,-735.0,-271.25,1,94.828,
01/01/2000,01:46:27.89,11.83,-80.40,-990.52,113.75,-700.0,-306.25,1,94.845,
01/01/2000,01:46:27.90,11.83,-80.64,-990.88,105.0,-726.25,-323.75,1,94.863,
01/01/2000,01:46:27.91,11.71,-80.76,-991.25,253.75,-577.50,-43.75,1,94.881,
01/01/2000,01:46:27.92,11.10,-81.01,-991.62,525.0,-472.50,-533.75,1,94.898,
01/01/2000,01:46:27.93,11.47,-80.52,-991.37,-192.50,-586.25,-673.75,1,94.915,
01/01/2000,01:46:27.94,13.30,-79.54,-990.15,-175.0,-761.25,-262.50,1,94.613,
01/01/2000,01:46:27.95,12.57,-80.64,-989.66,472.50,-866.25,463.75,1,94.631,
01/01/2000,01:46:27.96,11.59,-81.01,-990.15,-96.25,-603.75,-376.25,1,94.649,
01/01/2000,01:46:27.97,10.74,-81.74,-991.13,481.25,-673.75,-1338.75,1,94.667,
01/01/2000,01:46:27.98,11.71,-80.64,-991.74,-43.75,-665.0,-1023.75,1,94.684,
01/01/2000,01:46:27.99,12.20,-79.67,-991.13,70.0,-621.25,-35.0,1,94.702,
01/01/2000,01:46:28.01,11.83,-79.91,-989.66,288.75,-840.0,726.25,1,94.719,
01/01/2000,01:46:28.02,11.71,-80.40,-989.79,0.0,-708.75,-358.75,1,94.737,
01/01/2000,01:46:28.03,11.47,-81.50,-990.64,393.75,-586.25,-770.0,1,94.754,
01/01/2000,01:46:28.04,11.71,-81.25,-991.86,122.50,-665.0,-708.75,1,94.771,
01/01/2000,01:46:28.05,12.20,-80.03,-990.88,-78.75,-708.75,-315.0,1,94.481,
01/01/2000,01:46:28.06,11.96,-79.91,-989.91,253.75,-700.0,-113.75,1,94.498,
01/01/2000,01:46:28.07,11.83,-79.79,-989.66,455.0,-656.25,-358.75,1,94.516,
01/01/2000,01:46:28.08,11.83,-80.64,-990.76,140.0,-691.25,-332.50,1,94.534,
01/01/2000,01:46:28.10,11.96,-81.25,-991.62,183.75,-735.0,-411.25,1,94.551,
01/01/2000,01:46:28.10,11.83,-81.01,-991.62,26.25,-770.0,-437.50,1,94.569,
01/01/2000,01:46:28.12,11.96,-80.28,-990.27,183.75,-778.75,-437.50,1,94.586,
01/01/2000,01:46:28.13,11.96,-80.03,-989.79,52.50,-805.0,-210.0,1,94.603,
01/01/2000,01:46:28.14,11.83,-80.03,-990.40,210.0,-761.25,-262.50,1,94.620,
01/01/2000,01:46:28.15,11.71,-80.28,-991.13,96.25,-717.50,-297.50,1,94.637,
01/01/2000,01:46:28.16,11.71,-80.64,-991.74,78.75,-682.50,-472.50,1,94.654,
01/01/2000,01:46:28.17,11.71,-80.52,-991.13,140.0,-682.50,-402.50,1,94.671,
01/01/2000,01:46:28.18,11.71,-80.28,-990.40,376.25,-647.50,-306.25,1,94.688,
01/01/2000,01:46:28.19,11.96,-80.03,-990.15,253.75,-612.50,-358.75,1,94.704,
01/01/2000,01:46:28.20,12.08,-80.40,-991.13,201.25,-665.0,-201.25,1,94.720,
01/01/2000,01:46:28.21,11.83,-80.76,-991.49,43.75,-665.0,-350.0,1,94.737,
01/01/2000,01:46:28.22,11.47,-80.64,-991.37,253.75,-612.50,-490.0,1,94.753,
01/01/2000,01:46:28.23,11.47,-80.28,-990.88,183.75,-761.25,-332.50,1,94.769,
01/01/2000,01:46:28.24,11.71,-79.91,-990.64,315.0,-708.75,-350.0,1,94.785,
01/01/2000,01:46:28.25,11.83,-80.03,-990.76,131.25,-761.25,-218.75,1,94.801,
01/01/2000,01:46:28.26,11.71,-80.52,-991.37,61.25,-551.25,-332.50,1,94.817,
01/01/2000,01:46:28.27,11.47,-80.76,-991.49,192.50,-638.75,-420.0,1,94.833,
01/01/2000,01:46:28.28,11.22,-80.52,-991.37,140.0,-603.75,-507.50,1,94.848,
01/01/2000,01:46:28.29,11.47,-80.03,-990.88,271.25,-595.0,-341.25,1,94.578,
01/01/2000,01:46:28.30,11.71,-79.79,-990.64,105.0,-770.0,-201.25,1,94.595,
01/01/2000,01:46:28.31,11.71,-80.15,-991.01,148.75,-630.0,-393.75,1,94.611,
01/01/2000,01:46:28.32,11.59,-80.52,-991.13,43.75,-568.75,-437.50,1,94.627,
01/01/2000,01:46:28.33,11.47,-80.76,-991.25,183.75,-691.25,-490.0,1,94.643,
01/01/2000,01:46:28.35,11.59,-80.52,-991.01,70.0,-691.25,-472.50,1,94.659,
01/01/2000,01:46:28.35,11.71,-80.15,-990.88,105.0,-735.0,-236.25,1,94.675,
01/01/2000,01:46:28.37,11.83,-80.15,-991.01,245.0,-735.0,-210.0,1,94.690,
01/01/2000,01:46:28.38,11.59,-80.52,-991.37,297.50,-560.0,-367.50,1,94.706,
01/01/2000,01:46:28.39,11.59,-80.64,-991.37,332.50,-595.0,-463.75,1,94.721,
01/01/2000,01:46:28.40,11.59,-80.52,-991.49,218.75,-621.25,-332.50,1,94.737,
01/01/2000,01:46:28.41,11.71,-80.40,-991.37,148.75,-691.25,-271.25,1,94.752,
01/01/2000,01:46:28.42,11.83,-80.28,-991.01,218.75,-796.25,-332.50,1,94.767,
01/01/2000,01:46:28.43,11.47,-80.52,-991.13,245.0,-595.0,-393.75,1,94.509,
01/01/2000,01:46:28.44,11.35,-80.64,-991.37,148.75,-691.25,-358.75,1,94.524,
01/01/2000,01:46:28.45,11.47,-80.52,-991.62,183.75,-717.50,-402.50,1,94.540,
01/01/2000,01:46:28.46,11.59,-80.28,-991.62,35.0,-647.50,-350.0,1,94.556,
01/01/2000,01:46:28.47,11.71,-80.03,-991.25,157.50,-621.25,-288.75,1,94.571,
01/01/2000,01:46:28.48,11.96,-80.28,-990.88,140.0,-656.25,-323.75,1,94.587,
01/01/2000,01:46:28.49,11.83,-80.52,-991.01,210.0,-665.0,-323.75,1,94.602,
01/01/2000,01:46:28.51,11.96,-80.52,-991.37,148.75,-682.50,-376.25,1,94.618,
01/01/2000,01:46:28.52,11.96,-80.28,-991.37,218.75,-638.75,-411.25,1,94.633,
01/01/2000,01:46:28.53,11.96,-80.03,-991.13,245.0,-603.75,-350.0,1,94.648,
01/01/2000,01:46:28.54,11.96,-79.91,-990.76,131.25,-630.0,-306.25,1,94.663,
01/01/2000,01:46:28.55,11.83,-80.15,-990.88,288.75,-787.50,-332.50,1,94.678,
01/01/2000,01:46:28.56,11.83,-80.52,-991.01,78.75,-665.0,-437.50,1,94.693,
01/01/2000,01:46:28.57,11.71,-80.64,-990.88,-26.25,-708.75,-358.75,1,94.444,
01/01/2000,01:46:28.58,11.71,-80.52,-990.76,131.25,-638.75,-323.75,1,94.460,
01/01/2000,01:46:28.59,11.71,-80.28,-990.64,218.75,-682.50,-341.25,1,94.475,
01/01/2000,01:46:28.60,11.71,-80.28,-990.76,157.50,-603.75,-350.0,1,94.490,
01/01/2000,01:46:28.61,11.83,-80.52,-991.13,288.75,-735.0,-420.0,1,94.505,
01/01/2000,01:46:28.62,11.83,-80.64,-991.25,175.0,-665.0,-376.25,1,94.521,
01/01/2000,01:46:28.63,11.83,-80.64,-991.01,105.0,-630.0,-446.25,1,94.536,
01/01/2000,01:46:28.65,11.96,-80.40,-990.88,218.75,-700.0,-262.50,1,94.550,
01/01/2000,01:46:28.66,11.96,-80.28,-990.76,96.25,-708.75,-332.50,1,94.565,
01/01/2000,01:46:28.67,11.96,-80.28,-990.76,210.0,-700.0,-315.0,1,94.580,
01/01/2000,01:46:28.68,11.96,-80.52,-990.88,122.50,-630.0,-358.75,1,94.595,
01/01/2000,01:46:28.69,11.83,-80.52,-990.76,245.0,-682.50,-358.75,1,94.609,
01/01/2000,01:46:28.70,11.83,-80.52,-990.52,113.75,-665.0,-402.50,1,94.624,
01/01/2000,01:46:28.71,11.71,-80.40,-990.64,297.50,-752.50,-358.75,1,94.638,
01/01/2000,01:46:28.72,11.71,-80.28,-990.64,131.25,-665.0,-376.25,1,94.652,
01/01/2000,01:46:28.73,11.71,-80.40,-990.88,113.75,-647.50,-358.75,1,94.667,
01/01/2000,01:46:28.74,11.71,-80.52,-991.01,131.25,-700.0,-297.50,1,94.681,
01/01/2000,01:46:28.75,11.83,-80.52,-990.88,140.0,-665.0,-306.25,1,94.695,
01/01/2000,01:46:28.76,11.83,-80.64,-990.76,157.50,-603.75,-332.50,1,94.709,
01/01/2000,01:46:28.77,11.83,-80.52,-990.76,245.0,-708.75,-236.25,1,94.723,
01/01/2000,01:46:28.78,11.96,-80.64,-990.76,201.25,-630.0,-323.75,1,94.737,
01/01/2000,01:46:28.79,11.96,-80.64,-990.76,192.50,-656.25,-245.0,1,94.751,
01/01/2000,01:46:28.80,11.96,-80.76,-990.76,87.50,-726.25,-490.0,1,94.764,
01/01/2000,01:46:28.81,11.96,-80.64,-990.76,122.50,-656.25,-288.75,1,94.778,
01/01/2000,01:46:28.82,12.20,-80.64,-990.88,105.0,-665.0,-367.50,1,94.792,
01/01/2000,01:46:28.83,12.32,-80.64,-990.76,0.0,-691.25,-358.75,1,94.805,
01/01/2000,01:46:28.84,11.96,-80.76,-990.76,105.0,-621.25,-218.75,1,94.819,
01/01/2000,01:46:28.86,11.71,-80.76,-991.01,70.0,-735.0,-332.50,1,94.588,
01/01/2000,01:46:28.87,11.71,-80.64,-991.25,210.0,-638.75,-332.50,1,94.602,
01/01/2000,01:46:28.88,11.83,-80.52,-991.13,113.75,-735.0,-358.75,1,94.615,
01/01/2000,01:46:28.89,11.96,-80.28,-991.01,122.50,-656.25,-253.75,1,94.629,
01/01/2000,01:46:28.90,11.96,-80.64,-990.88,140.0,-796.25,-297.50,1,94.643,
01/01/2000,01:46:28.91,11.71,-81.01,-990.88,131.25,-752.50,-411.25,1,94.656,
01/01/2000,01:46:28.92,11.71,-80.89,-991.13,96.25,-700.0,-428.75,1,94.670,
01/01/2000,01:46:28.93,11.83,-80.64,-991.37,192.50,-682.50,-358.75,1,94.684,
01/01/2000,01:46:28.94,11.83,-80.40,-991.13,122.50,-752.50,-367.50,1,94.697,
01/01/2000,01:46:28.95,11.96,-80.28,-990.76,148.75,-717.50,-175.0,1,94.710,
01/01/2000,01:46:28.96,11.83,-80.52,-990.64,140.0,-717.50,-341.25,1,94.724,
01/01/2000,01:46:28.97,11.59,-80.76,-990.88,183.75,-813.75,-385.0,1,94.737,
01/01/2000,01:46:28.98,11.59,-80.76,-991.25,175.0,-568.75,-411.25,1,94.750,
01/01/2000,01:46:28.99,11.96,-80.52,-991.01,70.0,-770.0,-420.0,1,94.763,
01/01/2000,01:46:29.00,11.83,-80.28,-990.64,332.50,-647.50,-201.25,1,94.541,
01/01/2000,01:46:29.01,11.47,-80.40,-990.88,315.0,-630.0,-420.0,1,94.554,
01/01/2000,01:46:29.02,11.59,-80.40,-991.01,210.0,-752.50,-455.0,1,94.568,
01/01/2000,01:46:29.03,11.96,-80.40,-991.01,87.50,-551.25,-367.50,1,94.581,
01/01/2000,01:46:29.04,12.20,-80.40,-991.01,245.0,-682.50,-332.50,1,94.595,
01/01/2000,01:46:29.05,11.83,-80.52,-990.76,218.75,-691.25,-358.75,1,94.608,
01/01/2000,01:46:29.07,11.71,-80.52,-990.88,341.25,-848.75,-297.50,1,94.621,
01/01/2000,01:46:29.08,11.83,-80.28,-991.37,157.50,-673.75,-420.0,1,94.404,
01/01/2000,01:46:29.09,11.83,-80.15,-991.37,61.25,-656.25,-306.25,1,94.417,
01/01/2000,01:46:29.10,11.96,-80.28,-991.13,253.75,-577.50,-358.75,1,94.431,
01/01/2000,01:46:29.11,11.96,-80.52,-990.76,201.25,-656.25,-385.0,1,94.444,
01/01/2000,01:46:29.12,11.96,-80.52,-990.88,183.75,-700.0,-367.50,1,94.458,
01/01/2000,01:46:29.13,12.08,-80.64,-991.25,105.0,-621.25,-516.25,1,94.471,
01/01/2000,01:46:29.14,12.20,-80.52,-991.62,78.75,-700.0,-367.50,1,94.484,
01/01/2000,01:46:29.15,12.08,-80.28,-991.37,140.0,-682.50,-306.25,1,94.498,
01/01/2000,01:46:29.17,12.08,-80.28,-990.88,61.25,-656.25,-420.0,1,94.511,
01/01/2000,01:46:29.17,12.08,-80.28,-990.88,192.50,-682.50,-358.75,1,94.524,
01/01/2000,01:46:29.19,12.20,-80.52,-991.13,140.0,-743.75,-358.75,1,94.537,
01/01/2000,01:46:29.20,12.08,-80.64,-991.13,140.0,-577.50,-385.0,1,94.550,
01/01/2000,01:46:29.21,11.96,-80.52,-991.13,140.0,-621.25,-402.50,1,94.563,
01/01/2000,01:46:29.22,11.96,-80.52,-991.13,87.50,-673.75,-341.25,1,94.575,
01/01/2000,01:46:29.23,11.96,-80.52,-991.01,175.0,-665.0,-315.0,1,94.588,
01/01/2000,01:46:29.24,12.08,-80.40,-991.13,113.75,-708.75,-262.50,1,94.601,
01/01/2000,01:46:29.25,11.96,-80.52,-991.13,148.75,-743.75,-341.25,1,94.614,
01/01/2000,01:46:29.26,11.96,-80.76,-991.13,262.50,-691.25,-323.75,1,94.626,
01/01/2000,01:46:29.27,11.96,-80.64,-991.13,175.0,-743.75,-437.50,1,94.639,
01/01/2000,01:46:29.28,11.96,-80.40,-990.88,87.50,-638.75,-253.75,1,94.651,
01/01/2000,01:46:29.29,11.96,-80.40,-991.01,166.25,-735.0,-288.75,1,94.664,
01/01/2000,01:46:29.30,11.96,-80.52,-991.13,140.0,-647.50,-332.50,1,94.676,
01/01/2000,01:46:29.31,11.96,-80.64,-991.25,253.75,-647.50,-402.50,1,94.688,
01/01/2000,01:46:29.32,11.96,-80.52,-991.25,192.50,-717.50,-428.75,1,94.700,
01/01/2000,01:46:29.33,11.83,-80.52,-991.01,262.50,-638.75,-341.25,1,94.713,
01/01/2000,01:46:29.34,11.71,-80.28,-991.13,43.75,-665.0,-306.25,1,94.725,
01/01/2000,01:46:29.36,11.96,-80.40,-991.13,218.75,-612.50,-350.0,1,94.521,
01/01/2000,01:46:29.37,11.83,-80.52,-991.25,70.0,-612.50,-297.50,1,94.533,
01/01/2000,01:46:29.38,11.96,-80.28,-991.13,122.50,-630.0,-455.0,1,94.545,
01/01/2000,01:46:29.39,12.08,-80.52,-990.88,122.50,-761.25,-166.25,1,94.344,
01/01/2000,01:46:29.40,11.96,-80.28,-991.01,175.0,-656.25,-385.0,1,94.357,
01/01/2000,01:46:29.41,11.83,-80.28,-991.13,201.25,-551.25,-350.0,1,94.369,
01/01/2000,01:46:29.43,11.83,-80.15,-991.25,183.75,-700.0,-288.75,1,94.382,
01/01/2000,01:46:29.44,11.96,-80.15,-991.13,183.75,-673.75,-358.75,1,94.395,
01/01/2000,01:46:29.45,11.96,-80.28,-990.88,26.25,-691.25,-358.75,1,94.407,
01/01/2000,01:46:29.46,11.83,-80.52,-990.88,78.75,-778.75,-253.75,1,94.420,
01/01/2000,01:46:29.47,11.71,-80.52,-991.01,122.50,-700.0,-411.25,1,94.432,
01/01/2000,01:46:29.48,11.71,-80.40,-991.13,140.0,-717.50,-350.0,1,94.444,
01/01/2000,01:46:29.49,11.71,-80.28,-991.13,61.25,-673.75,-306.25,1,94.457,
01/01/2000,01:46:29.50,11.96,-80.28,-990.88,210.0,-743.75,-253.75,1,94.469,
01/01/2000,01:46:29.51,11.83,-80.52,-991.01,148.75,-778.75,-227.50,1,94.481,
01/01/2000,01:46:29.52,11.83,-80.64,-991.01,183.75,-673.75,-341.25,1,94.493,
01/01/2000,01:46:29.53,11.71,-80.64,-991.13,148.75,-700.0,-297.50,1,94.505,
01/01/2000,01:46:29.54,11.96,-80.40,-991.13,105.0,-726.25,-358.75,1,94.518,
01/01/2000,01:46:29.55,11.83,-80.15,-991.01,192.50,-735.0,-315.0,1,94.530,
01/01/2000,01:46:29.56,11.71,-80.28,-990.88,201.25,-647.50,-306.25,1,94.541,
01/01/2000,01:46:29.57,11.71,-80.40,-991.13,87.50,-638.75,-315.0,1,94.348,
01/01/2000,01:46:29.59,11.96,-80.40,-991.13,131.25,-656.25,-385.0,1,94.360,
01/01/2000,01:46:29.60,11.96,-80.03,-991.01,52.50,-691.25,-376.25,1,94.372,
01/01/2000,01:46:29.61,11.96,-80.03,-990.88,96.25,-533.75,-446.25,1,94.384,
01/01/2000,01:46:29.62,11.83,-80.03,-991.13,122.50,-665.0,-385.0,1,94.397,
01/01/2000,01:46:29.63,11.83,-80.15,-991.37,201.25,-708.75,-262.50,1,94.409,
01/01/2000,01:46:29.64,11.96,-80.40,-991.25,140.0,-673.75,-358.75,1,94.218,
01/01/2000,01:46:29.65,11.96,-80.40,-990.88,113.75,-612.50,-271.25,1,94.231,
01/01/2000,01:46:29.66,11.83,-80.40,-990.76,148.75,-822.50,-315.0,1,94.243,
01/01/2000,01:46:29.67,11.96,-80.28,-990.88,175.0,-612.50,-350.0,1,94.255,
01/01/2000,01:46:29.68,11.71,-80.15,-991.01,52.50,-621.25,-385.0,1,94.268,
01/01/2000,01:46:29.69,11.71,-80.15,-991.01,96.25,-656.25,-358.75,1,94.280,
01/01/2000,01:46:29.70,11.83,-80.03,-990.88,271.25,-656.25,-315.0,1,94.292,
01/01/2000,01:46:29.71,11.96,-80.15,-990.64,192.50,-691.25,-481.25,1,94.304,
01/01/2000,01:46:29.73,12.08,-80.15,-990.52,148.75,-717.50,-306.25,1,94.316,
01/01/2000,01:46:29.73,12.08,-80.40,-990.76,131.25,-665.0,-271.25,1,94.328,
01/01/2000,01:46:29.75,11.96,-80.28,-991.01,210.0,-612.50,-446.25,1,94.340,
01/01/2000,01:46:29.76,12.08,-80.15,-991.01,131.25,-542.50,-253.75,1,94.351,
01/01/2000,01:46:29.77,11.96,-80.15,-990.88,52.50,-691.25,-420.0,1,94.363,
01/01/2000,01:46:29.78,11.71,-80.52,-990.88,306.25,-717.50,-253.75,1,94.375,
01/01/2000,01:46:29.79,11.83,-80.52,-991.01,52.50,-647.50,-385.0,1,94.387,
01/01/2000,01:46:29.80,12.08,-80.40,-991.13,218.75,-691.25,-227.50,1,94.398,
01/01/2000,01:46:29.81,11.96,-80.52,-991.13,262.50,-691.25,-350.0,1,94.410,
01/01/2000,01:46:29.82,11.71,-80.64,-990.88,148.75,-735.0,-323.75,1,94.421,
01/01/2000,01:46:29.83,11.71,-80.52,-991.13,157.50,-700.0,-323.75,1,94.433,
01/01/2000,01:46:29.84,11.83,-80.28,-991.37,17.50,-638.75,-420.0,1,94.444,
01/01/2000,01:46:29.85,11.83,-80.28,-991.37,96.25,-673.75,-236.25,1,94.262,
01/01/2000,01:46:29.86,11.83,-80.52,-991.13,192.50,-700.0,-411.25,1,94.274,
01/01/2000,01:46:29.87,11.71,-80.52,-990.88,175.0,-673.75,-306.25,1,94.286,
01/01/2000,01:46:29.88,11.83,-80.64,-991.01,157.50,-691.25,-428.75,1,94.297,
01/01/2000,01:46:29.89,11.96,-80.52,-991.13,253.75,-638.75,-253.75,1,94.309,
01/01/2000,01:46:29.90,11.96,-80.28,-991.13,157.50,-743.75,-332.50,1,94.320,
01/01/2000,01:46:29.91,11.96,-80.28,-990.88,140.0,-735.0,-271.25,1,94.332,
01/01/2000,01:46:29.93,11.71,-80.52,-990.76,201.25,-577.50,-455.0,1,94.343,
01/01/2000,01:46:29.94,11.83,-80.52,-990.76,35.0,-813.75,-367.50,1,94.355,
01/01/2000,01:46:29.95,11.83,-80.40,-990.88,105.0,-656.25,-367.50,1,94.366,
01/01/2000,01:46:29.96,11.83,-80.28,-990.64,201.25,-717.50,-332.50,1,94.378,
01/01/2000,01:46:29.97,11.71,-80.28,-990.64,122.50,-735.0,-350.0,1,94.389,
01/01/2000,01:46:29.98,11.71,-80.40,-990.64,140.0,-761.25,-280.0,1,94.400,
01/01/2000,01:46:29.99,11.71,-80.28,-990.64,262.50,-647.50,-402.50,1,94.411,
01/01/2000,01:46:30.00,11.83,-80.15,-990.64,218.75,-665.0,-323.75,1,94.422,
01/01/2000,01:46:30.01,11.83,-80.03,-990.76,52.50,-638.75,-306.25,1,94.433,
01/01/2000,01:46:30.02,11.96,-80.28,-990.52,78.75,-682.50,-402.50,1,94.444,
01/01/2000,01:46:30.03,12.08,-80.40,-990.52,166.25,-717.50,-385.0,1,94.455,
01/01/2000,01:46:30.04,11.96,-80.40,-990.64,131.25,-708.75,-253.75,1,94.466,
01/01/2000,01:46:30.05,12.08,-80.40,-990.88,166.25,-700.0,-385.0,1,94.477,
01/01/2000,01:46:30.06,12.20,-80.28,-990.64,70.0,-805.0,-315.0,1,94.303,
01/01/2000,01:46:30.07,12.08,-80.15,-990.64,61.25,-682.50,-385.0,1,94.314,
01/01/2000,01:46:30.08,11.96,-80.52,-990.64,262.50,-656.25,-420.0,1,94.325,
01/01/2000,01:46:30.10,11.96,-80.40,-991.01,61.25,-673.75,-358.75,1,94.336,
01/01/2000,01:46:30.11,12.20,-80.28,-990.76,175.0,-708.75,-455.0,1,94.347,
01/01/2000,01:46:30.12,12.08,-80.28,-990.76,323.75,-700.0,-26.25,1,94.358,
01/01/2000,01:46:30.13,11.83,-80.15,-990.64,-8.75,-665.0,-367.50,1,94.369,
01/01/2000,01:46:30.14,11.59,-80.28,-990.76,157.50,-735.0,-402.50,1,94.380,
01/01/2000,01:46:30.15,12.08,-80.15,-990.76,-78.75,-805.0,-280.0,1,94.391,
01/01/2000,01:46:30.16,12.20,-80.03,-990.64,35.0,-673.75,-245.0,1,94.402,
01/01/2000,01:46:30.17,12.08,-80.28,-990.52,192.50,-656.25,-218.75,1,94.412,
01/01/2000,01:46:30.18,11.96,-80.15,-990.40,105.0,-708.75,-533.75,1,94.423,
01/01/2000,01:46:30.19,11.96,-80.15,-990.64,236.25,-647.50,-385.0,1,94.434,
01/01/2000,01:46:30.20,12.08,-79.91,-990.88,61.25,-726.25,-306.25,1,94.444,
01/01/2000,01:46:30.21,11.83,-79.91,-990.88,78.75,-612.50,-271.25,1,94.275,
01/01/2000,01:46:30.22,11.71,-80.03,-990.64,105.0,-647.50,-236.25,1,94.286,
01/01/2000,01:46:30.23,11.83,-80.03,-990.52,253.75,-638.75,-367.50,1,94.297,
01/01/2000,01:46:30.24,11.83,-80.28,-990.76,227.50,-647.50,-297.50,1,94.307,
01/01/2000,01:46:30.25,11.96,-80.03,-991.13,43.75,-595.0,-393.75,1,94.318,
01/01/2000,01:46:30.26,11.96,-80.03,-991.13,105.0,-743.75,-271.25,1,94.329,
01/01/2000,01:46:30.28,11.71,-79.91,-990.76,78.75,-612.50,-210.0,1,94.340,
01/01/2000,01:46:30.29,11.83,-80.03,-990.64,271.25,-708.75,-411.25,1,94.350,
01/01/2000,01:46:30.30,11.96,-80.03,-990.76,271.25,-752.50,-315.0,1,94.361,
01/01/2000,01:46:30.31,12.08,-80.15,-990.88,175.0,-708.75,-393.75,1,94.371,
01/01/2000,01:46:30.32,12.20,-80.28,-990.88,-52.50,-682.50,-280.0,1,94.382,
01/01/2000,01:46:30.33,12.08,-80.15,-990.88,96.25,-647.50,-411.25,1,94.393,
01/01/2000,01:46:30.34,11.96,-80.03,-990.88,113.75,-560.0,-385.0,1,94.403,
01/01/2000,01:46:30.35,11.96,-80.03,-991.01,183.75,-586.25,-323.75,1,94.413,
01/01/2000,01:46:30.36,11.96,-80.15,-990.88,175.0,-630.0,-341.25,1,94.424,
01/01/2000,01:46:30.37,11.96,-80.28,-990.88,175.0,-673.75,-218.75,1,94.434,
01/01/2000,01:46:30.38,11.83,-80.28,-990.88,210.0,-630.0,-385.0,1,94.444,
01/01/2000,01:46:30.39,11.83,-80.15,-991.01,148.75,-673.75,-428.75,1,94.455,
01/01/2000,01:46:30.40,11.83,-80.03,-991.13,148.75,-752.50,-271.25,1,94.465,
01/01/2000,01:46:30.41,11.83,-79.91,-991.13,166.25,-603.75,-385.0,1,94.475,
01/01/2000,01:46:30.42,11.83,-80.03,-990.88,306.25,-673.75,-315.0,1,94.312,
01/01/2000,01:46:30.43,11.96,-80.15,-990.64,131.25,-682.50,-437.50,1,94.322,
01/01/2000,01:46:30.44,11.96,-80.40,-990.64,131.25,-726.25,-393.75,1,94.333,
01/01/2000,01:46:30.45,12.08,-80.28,-990.64,148.75,-682.50,-385.0,1,94.343,
01/01/2000,01:46:30.46,11.96,-80.40,-990.88,288.75,-761.25,-131.25,1,94.353,
01/01/2000,01:46:30.47,11.71,-80.40,-990.88,236.25,-647.50,-367.50,1,94.364,
01/01/2000,01:46:30.49,11.59,-80.28,-990.76,192.50,-813.75,-481.25,1,94.374,
01/01/2000,01:46:30.50,11.83,-80.40,-990.76,271.25,-691.25,-306.25,1,94.384,
01/01/2000,01:46:30.51,11.96,-80.28,-990.64,192.50,-708.75,-385.0,1,94.394,
01/01/2000,01:46:30.52,11.96,-80.40,-990.64,245.0,-708.75,-385.0,1,94.404,
01/01/2000,01:46:30.53,11.71,-80.52,-990.88,210.0,-700.0,-560.0,1,94.414,
01/01/2000,01:46:30.54,11.71,-80.40,-991.01,183.75,-770.0,-367.50,1,94.424,
01/01/2000,01:46:30.55,11.83,-80.28,-991.01,113.75,-682.50,-341.25,1,94.434,
01/01/2000,01:46:30.56,11.83,-80.15,-990.88,17.50,-647.50,-306.25,1,94.275,
01/01/2000,01:46:30.57,11.71,-80.40,-990.64,157.50,-743.75,-393.75,1,94.286,
01/01/2000,01:46:30.58,11.83,-80.52,-990.64,-17.50,-551.25,-358.75,1,94.296,
01/01/2000,01:46:30.59,11.83,-80.52,-990.76,218.75,-603.75,-428.75,1,94.306,
01/01/2000,01:46:30.61,11.96,-80.28,-990.88,78.75,-778.75,-297.50,1,94.316,
01/01/2000,01:46:30.62,12.20,-80.03,-990.88,253.75,-647.50,-288.75,1,94.326,
01/01/2000,01:46:30.63,11.96,-80.03,-990.64,201.25,-752.50,-262.50,1,94.336,
01/01/2000,01:46:30.64,11.96,-80.28,-990.64,175.0,-638.75,-393.75,1,94.346,
01/01/2000,01:46:30.65,11.96,-80.40,-990.88,148.75,-682.50,-411.25,1,94.356,
01/01/2000,01:46:30.66,11.96,-80.28,-991.13,87.50,-612.50,-288.75,1,94.366,
01/01/2000,01:46:30.67,12.08,-80.03,-990.88,122.50,-735.0,-402.50,1,94.376,
01/01/2000,01:46:30.68,11.96,-80.03,-990.76,210.0,-691.25,-358.75,1,94.386,
01/01/2000,01:46:30.69,11.71,-80.28,-990.76,183.75,-743.75,-262.50,1,94.396,
01/01/2000,01:46:30.70,11.83,-80.40,-991.01,105.0,-647.50,-393.75,1,94.406,
01/01/2000,01:46:30.71,11.96,-80.52,-991.13,157.50,-673.75,-332.50,1,94.415,
01/01/2000,01:46:30.72,11.96,-80.52,-991.13,105.0,-752.50,-393.75,1,94.425,
01/01/2000,01:46:30.73,11.83,-80.52,-990.88,315.0,-621.25,-315.0,1,94.435,
01/01/2000,01:46:30.74,11.71,-80.52,-990.88,236.25,-603.75,-350.0,1,94.444,
01/01/2000,01:46:30.75,11.83,-80.40,-991.01,245.0,-708.75,-393.75,1,94.454,
01/01/2000,01:46:30.76,11.83,-80.40,-991.13,105.0,-691.25,-393.75,1,94.464,
01/01/2000,01:46:30.77,11.96,-80.40,-990.88,0.0,-691.25,-428.75,1,94.310,
01/01/2000,01:46:30.79,11.83,-80.40,-990.64,61.25,-700.0,-402.50,1,94.320,
01/01/2000,01:46:30.79,11.83,-80.40,-990.76,201.25,-717.50,-341.25,1,94.330,
01/01/2000,01:46:30.81,11.96,-80.40,-990.88,201.25,-603.75,-332.50,1,94.340,
01/01/2000,01:46:30.82,11.96,-80.52,-991.13,105.0,-673.75,-332.50,1,94.349,
01/01/2000,01:46:30.83,11.83,-80.40,-991.13,96.25,-726.25,-376.25,1,94.359,
01/01/2000,01:46:30.84,11.71,-80.52,-990.88,166.25,-700.0,-323.75,1,94.369,
01/01/2000,01:46:30.85,11.96,-80.52,-990.76,70.0,-665.0,-367.50,1,94.378,
01/01/2000,01:46:30.86,11.96,-80.52,-990.88,192.50,-726.25,-393.75,1,94.388,
01/01/2000,01:46:30.87,11.96,-80.52,-990.88,210.0,-630.0,-280.0,1,94.397,
01/01/2000,01:46:30.88,11.83,-80.52,-990.88,122.50,-612.50,-358.75,1,94.407,
01/01/2000,01:46:30.89,11.96,-80.52,-990.88,253.75,-691.25,-297.50,1,94.416,
01/01/2000,01:46:30.90,11.96,-80.52,-990.88,70.0,-761.25,-288.75,1,94.426,
01/01/2000,01:46:30.91,11.83,-80.52,-991.01,78.75,-647.50,-385.0,1,94.276,
01/01/2000,01:46:30.92,11.83,-80.52,-990.88,218.75,-682.50,-341.25,1,94.286,
01/01/2000,01:46:30.93,11.71,-80.52,-990.76,183.75,-726.25,-472.50,1,94.295,
01/01/2000,01:46:30.94,11.83,-80.40,-990.64,70.0,-717.50,-341.25,1,94.305,
01/01/2000,01:46:30.95,11.83,-80.28,-990.64,192.50,-717.50,-306.25,1,94.314,
01/01/2000,01:46:30.96,11.96,-80.28,-990.52,166.25,-665.0,-367.50,1,94.324,
01/01/2000,01:46:30.97,11.71,-80.52,-990.40,297.50,-743.75,-306.25,1,94.333,
01/01/2000,01:46:30.99,11.71,-80.40,-990.64,122.50,-743.75,-288.75,1,94.343,
01/01/2000,01:46:31.00,11.71,-80.28,-990.64,253.75,-656.25,-315.0,1,94.352,
01/01/2000,01:46:31.01,11.83,-80.15,-990.64,113.75,-673.75,-218.75,1,94.362,
01/01/2000,01:46:31.02,11.71,-80.28,-990.40,245.0,-726.25,-297.50,1,94.371,
01/01/2000,01:46:31.03,11.71,-80.40,-990.27,131.25,-638.75,-350.0,1,94.380,
01/01/2000,01:46:31.04,11.71,-80.40,-990.27,175.0,-700.0,-367.50,1,94.389,
01/01/2000,01:46:31.05,11.71,-80.28,-990.40,52.50,-612.50,-437.50,1,94.399,
01/01/2000,01:46:31.06,11.71,-80.03,-990.52,157.50,-647.50,-376.25,1,94.408,
01/01/2000,01:46:31.07,11.83,-80.03,-990.52,166.25,-577.50,-280.0,1,94.417,
01/01/2000,01:46:31.08,11.71,-80.03,-990.40,236.25,-726.25,-323.75,1,94.426,
01/01/2000,01:46:31.09,11.96,-80.15,-990.40,183.75,-621.25,-367.50,1,94.435,
01/01/2000,01:46:31.10,11.96,-80.15,-990.64,166.25,-717.50,-350.0,1,94.444,
01/01/2000,01:46:31.12,12.08,-80.03,-990.64,210.0,-691.25,-385.0,1,94.300,
01/01/2000,01:46:31.13,11.96,-80.03,-990.52,61.25,-673.75,-367.50,1,94.309,
01/01/2000,01:46:31.14,11.83,-80.15,-990.40,122.50,-743.75,-463.75,1,94.318,
01/01/2000,01:46:31.15,11.83,-80.03,-990.64,87.50,-612.50,-306.25,1,94.327,
01/01/2000,01:46:31.16,11.96,-80.03,-990.76,166.25,-612.50,-385.0,1,94.337,
01/01/2000,01:46:31.17,11.96,-80.28,-990.52,201.25,-630.0,-288.75,1,94.346,
01/01/2000,01:46:31.18,11.96,-80.15,-990.40,245.0,-717.50,-481.25,1,94.355,
01/01/2000,01:46:31.19,11.83,-80.15,-990.15,183.75,-708.75,-262.50,1,94.364,
01/01/2000,01:46:31.20,11.83,-80.28,-990.40,122.50,-691.25,-341.25,1,94.373,
01/01/2000,01:46:31.21,11.83,-80.28,-990.40,61.25,-665.0,-350.0,1,94.382,
01/01/2000,01:46:31.22,11.96,-80.40,-990.64,96.25,-673.75,-332.50,1,94.391,
01/01/2000,01:46:31.23,11.96,-80.15,-990.52,-52.50,-603.75,-428.75,1,94.400,
01/01/2000,01:46:31.24,11.83,-80.03,-990.52,157.50,-630.0,-288.75,1,94.409,
01/01/2000,01:46:31.25,11.71,-80.03,-990.64,122.50,-647.50,-367.50,1,94.418,
01/01/2000,01:46:31.27,11.96,-80.15,-990.88,166.25,-630.0,-341.25,1,94.277,
01/01/2000,01:46:31.28,11.96,-80.28,-990.76,210.0,-761.25,-288.75,1,94.286,
01/01/2000,01:46:31.29,11.83,-80.28,-990.64,105.0,-630.0,-323.75,1,94.295,
01/01/2000,01:46:31.30,11.83,-80.40,-990.64,70.0,-726.25,-323.75,1,94.304,
01/01/2000,01:46:31.31,12.08,-80.28,-990.40,148.75,-621.25,-350.0,1,94.313,
01/01/2000,01:46:31.32,11.96,-80.40,-990.40,166.25,-621.25,-262.50,1,94.322,
01/01/2000,01:46:31.33,11.83,-80.52,-990.64,131.25,-735.0,-315.0,1,94.331,
01/01/2000,01:46:31.34,11.71,-80.52,-990.76,26.25,-665.0,-411.25,1,94.340,
01/01/2000,01:46:31.35,11.96,-80.28,-990.64,227.50,-717.50,-236.25,1,94.349,
01/01/2000,01:46:31.36,11.96,-80.40,-990.52,210.0,-752.50,-297.50,1,94.357,
01/01/2000,01:46:31.37,11.96,-80.52,-990.64,78.75,-717.50,-481.25,1,94.366,
01/01/2000,01:46:31.38,11.96,-80.76,-990.64,105.0,-717.50,-288.75,1,94.375,
01/01/2000,01:46:31.39,11.96,-80.76,-990.64,140.0,-656.25,-411.25,1,94.384,
01/01/2000,01:46:31.40,11.96,-80.64,-990.64,105.0,-735.0,-288.75,1,94.393,
01/01/2000,01:46:31.41,11.96,-80.52,-990.64,218.75,-752.50,-341.25,1,94.255,
01/01/2000,01:46:31.42,11.96,-80.52,-990.76,227.50,-656.25,-323.75,1,94.264,
01/01/2000,01:46:31.43,12.20,-80.52,-990.88,26.25,-638.75,-367.50,1,94.272,
01/01/2000,01:46:31.44,12.20,-80.64,-990.88,175.0,-708.75,-288.75,1,94.281,
01/01/2000,01:46:31.45,12.08,-80.52,-990.76,183.75,-708.75,-306.25,1,94.290,
01/01/2000,01:46:31.46,12.20,-80.40,-990.64,122.50,-595.0,-367.50,1,94.299,
01/01/2000,01:46:31.48,12.08,-80.28,-990.76,26.25,-770.0,-288.75,1,94.308,
01/01/2000,01:46:31.49,12.20,-80.40,-990.76,35.0,-752.50,-315.0,1,94.316,
01/01/2000,01:46:31.50,11.96,-80.64,-990.76,35.0,-621.25,-332.50,1,94.325,
01/01/2000,01:46:31.51,12.08,-80.64,-990.64,43.75,-603.75,-306.25,1,94.334,
01/01/2000,01:46:31.52,12.08,-80.52,-990.64,87.50,-673.75,-315.0,1,94.343,
01/01/2000,01:46:31.53,11.96,-80.52,-990.64,87.50,-673.75,-323.75,1,94.351,
01/01/2000,01:46:31.54,11.71,-80.52,-990.64,175.0,-743.75,-210.0,1,94.360,
01/01/2000,01:46:31.55,11.71,-80.40,-990.88,262.50,-665.0,-323.75,1,94.368,
01/01/2000,01:46:31.56,11.83,-80.40,-990.76,210.0,-682.50,-393.75,1,94.377,
01/01/2000,01:46:31.57,11.96,-80.28,-990.64,210.0,-656.25,-306.25,1,94.385,
01/01/2000,01:46:31.58,11.71,-80.28,-990.40,131.25,-735.0,-385.0,1,94.394,
01/01/2000,01:46:31.59,11.71,-80.28,-990.40,280.0,-708.75,-288.75,1,94.402,
01/01/2000,01:46:31.60,11.83,-80.28,-990.52,227.50,-831.25,-341.25,1,94.411,
01/01/2000,01:46:31.61,11.96,-80.28,-990.64,201.25,-568.75,-341.25,1,94.419,
01/01/2000,01:46:31.63,11.71,-80.28,-990.76,52.50,-665.0,-402.50,1,94.286,
01/01/2000,01:46:31.64,11.96,-80.28,-990.88,236.25,-700.0,-385.0,1,94.294,
01/01/2000,01:46:31.65,12.20,-80.28,-990.88,26.25,-735.0,-402.50,1,94.303,
01/01/2000,01:46:31.66,11.96,-80.40,-990.88,8.75,-691.25,-262.50,1,94.311,
01/01/2000,01:46:31.67,11.96,-80.52,-990.88,122.50,-647.50,-315.0,1,94.320,
01/01/2000,01:46:31.68,11.83,-80.40,-990.76,157.50,-673.75,-393.75,1,94.328,
01/01/2000,01:46:31.69,12.08,-80.28,-990.88,140.0,-805.0,-280.0,1,94.337,
01/01/2000,01:46:31.70,12.20,-80.28,-990.88,236.25,-647.50,-218.75,1,94.345,
01/01/2000,01:46:31.71,12.08,-80.40,-990.76,157.50,-621.25,-288.75,1,94.354,
01/01/2000,01:46:31.72,11.83,-80.76,-990.88,253.75,-805.0,-411.25,1,94.222,
01/01/2000,01:46:31.73,11.71,-80.64,-990.88,175.0,-612.50,-376.25,1,94.370,
01/01/2000,01:46:31.74,11.83,-80.52,-991.01,78.75,-682.50,-280.0,1,94.239,
01/01/2000,01:46:31.75,11.96,-80.28,-991.01,52.50,-735.0,-262.50,1,94.248,
01/01/2000,01:46:31.76,11.96,-80.52,-990.88,113.75,-761.25,-262.50,1,94.256,
01/01/2000,01:46:31.77,11.96,-80.64,-991.01,183.75,-621.25,-367.50,1,94.265,
01/01/2000,01:46:31.78,11.83,-80.76,-991.13,52.50,-691.25,-350.0,1,94.273,
01/01/2000,01:46:31.79,11.96,-80.52,-990.76,236.25,-700.0,-210.0,1,94.282,
01/01/2000,01:46:31.80,12.20,-80.40,-990.64,183.75,-726.25,-323.75,1,94.290,
01/01/2000,01:46:31.81,12.20,-80.28,-990.52,166.25,-665.0,-358.75,1,94.298,
01/01/2000,01:46:31.82,12.08,-80.40,-990.52,183.75,-612.50,-367.50,1,94.307,
01/01/2000,01:46:31.84,11.96,-80.40,-990.64,131.25,-595.0,-245.0,1,94.315,
01/01/2000,01:46:31.85,11.96,-80.52,-990.64,306.25,-656.25,-411.25,1,94.323,
01/01/2000,01:46:31.86,11.83,-80.28,-990.64,140.0,-752.50,-306.25,1,94.331,
01/01/2000,01:46:31.87,11.83,-80.28,-990.64,166.25,-708.75,-323.75,1,94.340,
01/01/2000,01:46:31.88,11.83,-80.28,-990.64,140.0,-708.75,-297.50,1,94.348,
01/01/2000,01:46:31.89,11.83,-80.40,-990.76,245.0,-682.50,-332.50,1,94.356,
01/01/2000,01:46:31.90,11.83,-80.40,-990.64,297.50,-682.50,-463.75,1,94.364,
01/01/2000,01:46:31.91,11.83,-80.28,-990.76,35.0,-743.75,-288.75,1,94.372,
01/01/2000,01:46:31.92,11.83,-80.28,-990.52,183.75,-735.0,-315.0,1,94.380,
01/01/2000,01:46:31.93,11.71,-80.28,-990.40,192.50,-630.0,-280.0,1,94.388,
01/01/2000,01:46:31.94,11.83,-80.28,-990.52,148.75,-586.25,-315.0,1,94.397,
01/01/2000,01:46:31.95,11.83,-80.28,-990.64,157.50,-638.75,-306.25,1,94.405,
01/01/2000,01:46:31.96,11.96,-80.28,-990.76,175.0,-691.25,-341.25,1,94.413,
01/01/2000,01:46:31.98,12.08,-80.40,-990.64,175.0,-621.25,-411.25,1,94.286,
01/01/2000,01:46:31.99,11.96,-80.40,-990.52,148.75,-717.50,-402.50,1,94.294,
01/01/2000,01:46:32.00,11.96,-80.28,-990.64,183.75,-708.75,-367.50,1,94.302,
01/01/2000,01:46:32.01,12.08,-80.28,-990.76,253.75,-726.25,-332.50,1,94.310,
01/01/2000,01:46:32.02,11.96,-80.03,-990.88,105.0,-665.0,-306.25,1,94.318,
01/01/2000,01:46:32.03,11.71,-80.15,-990.76,43.75,-665.0,-350.0,1,94.326,
01/01/2000,01:46:32.04,11.83,-80.03,-990.64,175.0,-621.25,-437.50,1,94.334,
01/01/2000,01:46:32.05,11.96,-80.03,-990.64,192.50,-708.75,-376.25,1,94.342,
01/01/2000,01:46:32.06,11.83,-80.15,-990.64,201.25,-656.25,-288.75,1,94.350,
01/01/2000,01:46:32.07,11.96,-80.28,-990.52,236.25,-612.50,-253.75,1,94.358,
01/01/2000,01:46:32.08,11.96,-80.15,-990.64,350.0,-735.0,-297.50,1,94.366,
01/01/2000,01:46:32.09,11.83,-80.15,-990.64,122.50,-708.75,-332.50,1,94.374,
01/01/2000,01:46:32.10,11.83,-80.03,-990.64,70.0,-577.50,-376.25,1,94.382,
01/01/2000,01:46:32.11,11.71,-80.03,-990.64,157.50,-673.75,-376.25,1,94.258,
01/01/2000,01:46:32.12,11.59,-80.28,-990.64,78.75,-761.25,-297.50,1,94.266,
01/01/2000,01:46:32.14,11.71,-80.40,-990.76,192.50,-682.50,-280.0,1,94.274,
01/01/2000,01:46:32.15,11.96,-80.28,-990.88,148.75,-630.0,-516.25,1,94.282,
01/01/2000,01:46:32.16,11.96,-80.28,-990.88,70.0,-700.0,-201.25,1,94.290,
01/01/2000,01:46:32.17,11.71,-80.40,-990.88,61.25,-603.75,-402.50,1,94.298,
01/01/2000,01:46:32.18,11.47,-80.40,-990.88,175.0,-752.50,-402.50,1,94.306,
01/01/2000,01:46:32.19,11.71,-80.28,-991.13,122.50,-700.0,-367.50,1,94.313,
01/01/2000,01:46:32.20,11.71,-80.15,-991.13,157.50,-612.50,-306.25,1,94.321,
01/01/2000,01:46:32.21,11.71,-80.15,-991.13,157.50,-700.0,-227.50,1,94.329,
01/01/2000,01:46:32.22,11.71,-80.40,-991.01,210.0,-708.75,-358.75,1,94.337,
01/01/2000,01:46:32.23,11.71,-80.64,-991.01,192.50,-726.25,-393.75,1,94.345,
01/01/2000,01:46:32.24,11.71,-80.52,-991.01,210.0,-673.75,-376.25,1,94.353,
01/01/2000,01:46:32.25,11.96,-80.52,-991.01,78.75,-612.50,-271.25,1,94.360,
01/01/2000,01:46:32.26,11.96,-80.40,-991.01,105.0,-612.50,-262.50,1,94.368,
01/01/2000,01:46:32.27,11.83,-80.40,-991.01,140.0,-665.0,-367.50,1,94.376,
01/01/2000,01:46:32.28,11.71,-80.52,-990.88,122.50,-647.50,-280.0,1,94.384,
01/01/2000,01:46:32.29,11.83,-80.52,-990.88,315.0,-708.75,-393.75,1,94.391,
01/01/2000,01:46:32.30,11.83,-80.40,-990.88,122.50,-612.50,-385.0,1,94.399,
01/01/2000,01:46:32.31,11.96,-80.28,-990.88,113.75,-700.0,-288.75,1,94.407,
01/01/2000,01:46:32.32,11.96,-80.28,-990.76,148.75,-665.0,-350.0,1,94.286,
01/01/2000,01:46:32.33,11.96,-80.28,-990.88,227.50,-700.0,-323.75,1,94.293,
01/01/2000,01:46:32.34,11.96,-80.28,-991.13,175.0,-778.75,-350.0,1,94.301,
01/01/2000,01:46:32.35,11.96,-80.40,-991.13,262.50,-761.25,-332.50,1,94.309,
01/01/2000,01:46:32.36,11.96,-80.28,-991.13,78.75,-595.0,-385.0,1,94.317,
01/01/2000,01:46:32.37,11.83,-80.40,-991.01,323.75,-726.25,-455.0,1,94.324,
01/01/2000,01:46:32.38,11.71,-80.40,-991.13,236.25,-700.0,-262.50,1,94.332,
01/01/2000,01:46:32.40,11.71,-80.28,-991.25,175.0,-673.75,-446.25,1,94.340,
01/01/2000,01:46:32.41,11.96,-80.40,-991.37,192.50,-726.25,-323.75,1,94.347,
01/01/2000,01:46:32.42,11.96,-80.28,-991.25,148.75,-577.50,-402.50,1,94.355,
01/01/2000,01:46:32.43,11.71,-80.40,-991.13,17.50,-577.50,-367.50,1,94.362,
01/01/2000,01:46:32.44,11.71,-80.40,-991.01,218.75,-665.0,-218.75,1,94.370,
01/01/2000,01:46:32.45,11.71,-80.40,-991.25,70.0,-796.25,-428.75,1,94.378,
01/01/2000,01:46:32.46,11.71,-80.28,-991.37,78.75,-656.25,-332.50,1,94.385,
01/01/2000,01:46:32.47,11.96,-80.28,-991.25,78.75,-673.75,-323.75,1,94.393,
01/01/2000,01:46:32.48,11.83,-80.40,-991.01,210.0,-708.75,-262.50,1,94.400,
01/01/2000,01:46:32.49,11.96,-80.52,-991.01,192.50,-787.50,-332.50,1,94.407,
01/01/2000,01:46:32.50,11.96,-80.52,-991.13,78.75,-656.25,-376.25,1,94.415,
01/01/2000,01:46:32.51,12.08,-80.40,-991.25,35.0,-822.50,-297.50,1,94.422,
01/01/2000,01:46:32.52,12.08,-80.28,-991.13,122.50,-621.25,-367.50,1,94.430,
01/01/2000,01:46:32.53,11.83,-80.28,-990.88,245.0,-647.50,-420.0,1,94.312,
01/01/2000,01:46:32.54,11.96,-80.40,-990.88,8.75,-603.75,-481.25,1,94.320,
01/01/2000,01:46:32.55,11.96,-80.52,-990.88,122.50,-778.75,-341.25,1,94.327,
01/01/2000,01:46:32.56,11.96,-80.28,-991.13,157.50,-691.25,-280.0,1,94.335,
01/01/2000,01:46:32.57,11.71,-80.40,-991.13,140.0,-673.75,-332.50,1,94.342,
01/01/2000,01:46:32.58,11.71,-80.28,-991.01,175.0,-638.75,-358.75,1,94.350,
01/01/2000,01:46:32.59,11.83,-80.28,-991.01,148.75,-673.75,-411.25,1,94.357,
01/01/2000,01:46:32.61,11.83,-80.15,-991.13,183.75,-656.25,-306.25,1,94.364,
01/01/2000,01:46:32.62,11.71,-80.03,-991.13,140.0,-665.0,-315.0,1,94.372,
01/01/2000,01:46:32.63,11.83,-80.03,-990.88,157.50,-586.25,-262.50,1,94.379,
01/01/2000,01:46:32.64,11.71,-80.03,-990.76,35.0,-691.25,-315.0,1,94.263,
01/01/2000,01:46:32.65,11.83,-80.03,-990.88,245.0,-603.75,-393.75,1,94.271,
01/01/2000,01:46:32.66,11.83,-80.15,-991.01,96.25,-682.50,-367.50,1,94.278,
01/01/2000,01:46:32.67,11.96,-80.15,-991.01,78.75,-612.50,-315.0,1,94.286,
01/01/2000,01:46:32.69,11.96,-80.28,-990.88,315.0,-717.50,-367.50,1,94.293,
01/01/2000,01:46:32.70,11.83,-80.28,-990.88,105.0,-630.0,-280.0,1,94.301,
01/01/2000,01:46:32.71,11.96,-80.28,-990.88,157.50,-708.75,-437.50,1,94.308,
01/01/2000,01:46:32.72,11.96,-80.28,-991.13,87.50,-647.50,-411.25,1,94.315,
01/01/2000,01:46:32.73,11.96,-80.15,-991.01,140.0,-656.25,-411.25,1,94.323,
01/01/2000,01:46:32.74,11.96,-80.15,-990.76,122.50,-638.75,-367.50,1,94.330,
01/01/2000,01:46:32.75,11.96,-80.03,-990.76,218.75,-787.50,-402.50,1,94.337,
01/01/2000,01:46:32.76,11.96,-80.28,-990.64,166.25,-708.75,-402.50,1,94.344,
01/01/2000,01:46:32.77,12.08,-80.28,-990.76,140.0,-726.25,-306.25,1,94.352,
01/01/2000,01:46:32.78,12.08,-80.28,-990.88,227.50,-761.25,-245.0,1,94.359,
01/01/2000,01:46:32.79,11.96,-80.28,-990.88,26.25,-665.0,-341.25,1,94.366,
01/01/2000,01:46:32.80,11.83,-80.15,-990.76,245.0,-603.75,-332.50,1,94.373,
01/01/2000,01:46:32.81,11.96,-80.15,-990.88,87.50,-743.75,-385.0,1,94.381,
01/01/2000,01:46:32.82,12.20,-80.03,-990.88,96.25,-682.50,-393.75,1,94.388,
01/01/2000,01:46:32.83,11.96,-80.15,-990.88,183.75,-673.75,-288.75,1,94.395,
01/01/2000,01:46:32.84,11.83,-80.28,-990.76,183.75,-700.0,-428.75,1,94.402,
01/01/2000,01:46:32.85,11.71,-80.28,-990.88,148.75,-647.50,-332.50,1,94.409,
01/01/2000,01:46:32.86,11.71,-80.15,-990.88,323.75,-586.25,-262.50,1,94.416,
01/01/2000,01:46:32.87,11.71,-80.15,-990.88,183.75,-542.50,-297.50,1,94.423,
01/01/2000,01:46:32.88,11.59,-80.28,-990.88,78.75,-673.75,-376.25,1,94.311,
01/01/2000,01:46:32.89,11.59,-80.28,-990.64,148.75,-708.75,-245.0,1,94.318,
01/01/2000,01:46:32.90,11.71,-80.40,-990.64,245.0,-673.75,-455.0,1,94.325,
01/01/2000,01:46:32.92,11.83,-80.28,-990.76,166.25,-778.75,-201.25,1,94.332,
01/01/2000,01:46:32.92,11.96,-80.15,-990.64,253.75,-656.25,-358.75,1,94.340,
01/01/2000,01:46:32.94,11.83,-80.28,-990.64,148.75,-630.0,-376.25,1,94.347,
01/01/2000,01:46:32.95,11.71,-80.28,-990.64,17.50,-682.50,-393.75,1,94.354,
01/01/2000,01:46:32.96,11.96,-80.52,-990.64,87.50,-673.75,-332.50,1,94.361,
01/01/2000,01:46:32.97,12.08,-80.28,-990.88,218.75,-726.25,-288.75,1,94.368,
01/01/2000,01:46:32.98,11.96,-80.28,-990.76,148.75,-700.0,-306.25,1,94.375,
01/01/2000,01:46:32.99,11.83,-80.28,-990.64,166.25,-752.50,-297.50,1,94.382,
01/01/2000,01:46:33.00,11.71,-80.28,-990.52,323.75,-656.25,-323.75,1,94.389,
01/01/2000,01:46:33.01,11.96,-80.03,-990.76,131.25,-665.0,-350.0,1,94.396,
01/01/2000,01:46:33.02,11.96,-80.15,-990.76,61.25,-682.50,-393.75,1,94.286,
01/01/2000,01:46:33.03,11.83,-80.28,-990.76,140.0,-656.25,-402.50,1,94.293,
01/01/2000,01:46:33.04,11.71,-80.28,-990.76,183.75,-551.25,-358.75,1,94.300,
01/01/2000,01:46:33.05,11.83,-80.28,-990.88,218.75,-630.0,-350.0,1,94.307,
01/01/2000,01:46:33.06,11.96,-80.03,-991.01,315.0,-778.75,-393.75,1,94.314,
01/01/2000,01:46:33.07,11.83,-80.28,-991.13,96.25,-682.50,-280.0,1,94.321,
01/01/2000,01:46:33.08,11.83,-80.40,-990.88,210.0,-647.50,-437.50,1,94.328,
01/01/2000,01:46:33.10,11.96,-80.28,-990.76,175.0,-743.75,-411.25,1,94.335,
01/01/2000,01:46:33.11,12.08,-80.03,-990.76,253.75,-595.0,-245.0,1,94.342,
01/01/2000,01:46:33.12,12.08,-80.03,-990.88,157.50,-700.0,-253.75,1,94.349,
01/01/2000,01:46:33.13,11.96,-80.15,-991.13,192.50,-665.0,-367.50,1,94.356,
01/01/2000,01:46:33.14,11.96,-80.15,-991.01,218.75,-805.0,-315.0,1,94.363,
01/01/2000,01:46:33.15,12.08,-80.15,-990.88,201.25,-673.75,-341.25,1,94.370,
01/01/2000,01:46:33.16,12.08,-80.28,-990.88,140.0,-778.75,-297.50,1,94.377,
01/01/2000,01:46:33.17,11.83,-80.40,-990.88,87.50,-612.50,-332.50,1,94.268,
01/01/2000,01:46:33.18,11.71,-80.40,-991.13,183.75,-708.75,-446.25,1,94.275,
01/01/2000,01:46:33.19,11.71,-80.28,-991.13,61.25,-735.0,-385.0,1,94.282,
01/01/2000,01:46:33.20,11.71,-80.15,-991.13,183.75,-630.0,-446.25,1,94.289,
01/01/2000,01:46:33.21,11.71,-80.03,-990.88,131.25,-752.50,-227.50,1,94.296,
01/01/2000,01:46:33.22,11.71,-80.15,-991.01,87.50,-761.25,-306.25,1,94.303,
01/01/2000,01:46:33.23,11.71,-80.28,-991.13,87.50,-691.25,-367.50,1,94.310,
01/01/2000,01:46:33.24,11.59,-80.52,-991.13,43.75,-656.25,-315.0,1,94.317,
01/01/2000,01:46:33.25,11.59,-80.28,-991.01,113.75,-656.25,-323.75,1,94.324,
01/01/2000,01:46:33.26,11.47,-80.28,-990.88,218.75,-647.50,-315.0,1,94.331,
01/01/2000,01:46:33.27,11.47,-80.28,-991.13,148.75,-647.50,-280.0,1,94.337,
01/01/2000,01:46:33.29,11.47,-80.40,-991.01,166.25,-682.50,-402.50,1,94.344,
01/01/2000,01:46:33.29,11.59,-80.40,-991.01,96.25,-638.75,-175.0,1,94.351,
01/01/2000,01:46:33.31,11.71,-80.52,-990.88,227.50,-717.50,-420.0,1,94.358,
01/01/2000,01:46:33.32,11.71,-80.52,-990.88,157.50,-665.0,-533.75,1,94.365,
01/01/2000,01:46:33.33,11.83,-80.28,-991.01,315.0,-612.50,-271.25,1,94.371,
01/01/2000,01:46:33.34,11.96,-80.40,-991.01,236.25,-612.50,-376.25,1,94.378,
01/01/2000,01:46:33.35,11.96,-80.52,-991.01,280.0,-735.0,-315.0,1,94.385,
01/01/2000,01:46:33.36,11.96,-80.52,-991.01,166.25,-708.75,-358.75,1,94.391,
01/01/2000,01:46:33.37,12.08,-80.52,-990.88,271.25,-735.0,-236.25,1,94.398,
01/01/2000,01:46:33.38,11.96,-80.52,-991.01,140.0,-673.75,-385.0,1,94.405,
01/01/2000,01:46:33.39,11.96,-80.64,-990.88,26.25,-673.75,-332.50,1,94.411,
01/01/2000,01:46:33.40,11.83,-80.40,-990.88,210.0,-708.75,-306.25,1,94.418,
01/01/2000,01:46:33.41,11.83,-80.40,-990.88,183.75,-700.0,-323.75,1,94.425,
01/01/2000,01:46:33.42,11.71,-80.52,-990.76,201.25,-665.0,-341.25,1,94.431,
01/01/2000,01:46:33.43,11.71,-80.52,-990.64,148.75,-682.50,-280.0,1,94.438,
01/01/2000,01:46:33.44,11.83,-80.52,-990.64,332.50,-691.25,-341.25,1,94.333,
01/01/2000,01:46:33.45,11.83,-80.52,-990.88,166.25,-595.0,-341.25,1,94.340,
01/01/2000,01:46:33.46,11.83,-80.52,-990.88,-61.25,-691.25,-332.50,1,94.346,
01/01/2000,01:46:33.47,11.83,-80.52,-991.01,192.50,-638.75,-323.75,1,94.353,
01/01/2000,01:46:33.48,11.83,-80.52,-991.01,52.50,-726.25,-192.50,1,94.360,
01/01/2000,01:46:33.49,11.96,-80.52,-991.01,192.50,-708.75,-411.25,1,94.366,
01/01/2000,01:46:33.50,11.83,-80.64,-991.13,192.50,-647.50,-262.50,1,94.373,
01/01/2000,01:46:33.52,11.71,-80.76,-991.01,297.50,-638.75,-288.75,1,94.379,
01/01/2000,01:46:33.53,11.47,-80.64,-991.13,131.25,-717.50,-262.50,1,94.386,
01/01/2000,01:46:33.54,11.47,-80.52,-991.13,218.75,-621.25,-297.50,1,94.393,
01/01/2000,01:46:33.55,11.59,-80.52,-991.13,52.50,-700.0,-376.25,1,94.399,
01/01/2000,01:46:33.56,11.71,-80.40,-991.13,87.50,-673.75,-306.25,1,94.406,
01/01/2000,01:46:33.57,11.59,-80.52,-991.13,192.50,-586.25,-367.50,1,94.412,
01/01/2000,01:46:33.58,11.47,-80.64,-991.13,140.0,-708.75,-420.0,1,94.419,
01/01/2000,01:46:33.59,11.59,-80.76,-991.01,70.0,-595.0,-323.75,1,94.425,
01/01/2000,01:46:33.60,11.71,-80.64,-991.13,192.50,-691.25,-402.50,1,94.432,
01/01/2000,01:46:33.61,11.71,-80.52,-991.37,52.50,-822.50,-411.25,1,94.329,
01/01/2000,01:46:33.62,11.71,-80.52,-991.37,105.0,-726.25,-297.50,1,94.444,
01/01/2000,01:46:33.63,11.83,-80.52,-991.37,70.0,-682.50,-367.50,1,94.342,
01/01/2000,01:46:33.64,11.96,-80.64,-991.13,78.75,-752.50,-323.75,1,94.348,
01/01/2000,01:46:33.66,11.83,-80.52,-991.01,131.25,-665.0,-341.25,1,94.355,
01/01/2000,01:46:33.67,11.96,-80.52,-990.88,210.0,-691.25,-393.75,1,94.361,
01/01/2000,01:46:33.68,11.96,-80.40,-990.88,43.75,-691.25,-280.0,1,94.368,
01/01/2000,01:46:33.69,11.96,-80.28,-990.88,210.0,-691.25,-297.50,1,94.374,
01/01/2000,01:46:33.70,11.83,-80.40,-990.88,148.75,-770.0,-262.50,1,94.381,
01/01/2000,01:46:33.71,11.71,-80.40,-990.88,113.75,-761.25,-341.25,1,94.387,
01/01/2000,01:46:33.72,11.83,-80.52,-990.76,262.50,-630.0,-402.50,1,94.394,
01/01/2000,01:46:33.73,11.71,-80.52,-990.76,113.75,-770.0,-192.50,1,94.292,
01/01/2000,01:46:33.74,11.71,-80.52,-990.88,218.75,-761.25,-393.75,1,94.299,
01/01/2000,01:46:33.75,11.71,-80.40,-991.01,201.25,-700.0,-367.50,1,94.305,
01/01/2000,01:46:33.76,11.71,-80.28,-991.13,183.75,-691.25,-402.50,1,94.312,
01/01/2000,01:46:33.77,11.71,-80.28,-991.13,140.0,-700.0,-332.50,1,94.318,
01/01/2000,01:46:33.78,11.71,-80.40,-990.88,148.75,-761.25,-280.0,1,94.325,
01/01/2000,01:46:33.79,11.59,-80.52,-990.88,131.25,-708.75,-297.50,1,94.331,
01/01/2000,01:46:33.80,11.59,-80.52,-990.88,140.0,-743.75,-428.75,1,94.337,
01/01/2000,01:46:33.81,11.71,-80.52,-991.01,157.50,-708.75,-385.0,1,94.344,
01/01/2000,01:46:33.82,11.71,-80.40,-991.01,105.0,-603.75,-315.0,1,94.350,
01/01/2000,01:46:33.83,11.71,-80.28,-990.88,245.0,-708.75,-253.75,1,94.357,
01/01/2000,01:46:33.84,11.71,-80.28,-991.01,26.25,-691.25,-332.50,1,94.363,
01/01/2000,01:46:33.85,11.83,-80.28,-991.13,192.50,-638.75,-455.0,1,94.369,
01/01/2000,01:46:33.87,11.96,-80.40,-991.13,131.25,-691.25,-306.25,1,94.376,
01/01/2000,01:46:33.88,11.96,-80.40,-991.01,201.25,-577.50,-306.25,1,94.382,
01/01/2000,01:46:33.89,11.96,-80.28,-991.13,227.50,-621.25,-306.25,1,94.388,
01/01/2000,01:46:33.90,11.96,-80.28,-991.13,183.75,-647.50,-271.25,1,94.395,
01/01/2000,01:46:33.91,11.96,-80.28,-991.01,192.50,-691.25,-385.0,1,94.401,
01/01/2000,01:46:33.92,11.96,-80.28,-990.88,210.0,-708.75,-288.75,1,94.407,
01/01/2000,01:46:33.93,11.96,-80.28,-990.88,61.25,-691.25,-437.50,1,94.413,
01/01/2000,01:46:33.94,11.96,-80.28,-990.64,192.50,-568.75,-332.50,1,94.314,
01/01/2000,01:46:33.95,11.83,-80.28,-990.64,175.0,-752.50,-280.0,1,94.321,
01/01/2000,01:46:33.96,11.83,-80.28,-990.64,350.0,-857.50,-376.25,1,94.327,
01/01/2000,01:46:33.97,11.83,-80.52,-990.76,157.50,-691.25,-280.0,1,94.333,
01/01/2000,01:46:33.98,11.83,-80.52,-990.76,192.50,-700.0,-446.25,1,94.340,
01/01/2000,01:46:33.99,11.83,-80.40,-990.88,140.0,-682.50,-210.0,1,94.346,
01/01/2000,01:46:34.01,11.96,-80.40,-990.88,157.50,-700.0,-367.50,1,94.352,
01/01/2000,01:46:34.02,11.83,-80.28,-990.64,210.0,-726.25,-411.25,1,94.358,
01/01/2000,01:46:34.03,11.83,-80.28,-990.64,262.50,-700.0,-428.75,1,94.365,
01/01/2000,01:46:34.04,11.71,-80.03,-990.76,175.0,-647.50,-306.25,1,94.371,
01/01/2000,01:46:34.05,11.83,-80.03,-990.76,131.25,-682.50,-315.0,1,94.377,
01/01/2000,01:46:34.06,11.96,-80.40,-990.76,78.75,-682.50,-297.50,1,94.383,
01/01/2000,01:46:34.07,11.71,-80.52,-990.76,253.75,-638.75,-428.75,1,94.389,
01/01/2000,01:46:34.08,11.71,-80.52,-990.88,43.75,-673.75,-341.25,1,94.396,
01/01/2000,01:46:34.09,11.71,-80.40,-991.13,122.50,-682.50,-341.25,1,94.402,
01/01/2000,01:46:34.10,11.71,-80.28,-991.13,157.50,-700.0,-288.75,1,94.408,
01/01/2000,01:46:34.11,11.83,-80.40,-990.88,183.75,-603.75,-323.75,1,94.414,
01/01/2000,01:46:34.12,11.71,-80.40,-990.88,323.75,-752.50,-437.50,1,94.420,
01/01/2000,01:46:34.13,11.83,-80.52,-990.88,201.25,-665.0,-350.0,1,94.426,
01/01/2000,01:46:34.14,11.71,-80.40,-990.88,175.0,-726.25,-376.25,1,94.432,
01/01/2000,01:46:34.15,11.71,-80.40,-991.01,122.50,-761.25,-358.75,1,94.336,
01/01/2000,01:46:34.16,11.71,-80.40,-991.01,131.25,-665.0,-218.75,1,94.342,
01/01/2000,01:46:34.18,11.71,-80.40,-990.88,122.50,-708.75,-393.75,1,94.348,
01/01/2000,01:46:34.19,11.71,-80.28,-991.13,183.75,-630.0,-350.0,1,94.252,
01/01/2000,01:46:34.20,11.96,-80.15,-991.01,122.50,-638.75,-262.50,1,94.258,
01/01/2000,01:46:34.21,11.83,-80.15,-990.88,315.0,-700.0,-332.50,1,94.264,
01/01/2000,01:46:34.22,11.71,-80.15,-990.88,52.50,-708.75,-367.50,1,94.270,
01/01/2000,01:46:34.23,11.47,-80.28,-990.88,166.25,-665.0,-350.0,1,94.276,
01/01/2000,01:46:34.24,11.71,-80.15,-991.13,26.25,-665.0,-367.50,1,94.283,
01/01/2000,01:46:34.25,11.83,-80.15,-991.01,70.0,-586.25,-323.75,1,94.289,
01/01/2000,01:46:34.26,11.71,-80.15,-991.01,175.0,-717.50,-420.0,1,94.295,
01/01/2000,01:46:34.27,11.71,-80.28,-990.76,262.50,-700.0,-297.50,1,94.301,
01/01/2000,01:46:34.28,11.71,-80.28,-990.76,122.50,-656.25,-446.25,1,94.307,
01/01/2000,01:46:34.30,11.71,-80.28,-991.01,218.75,-770.0,-253.75,1,94.313,
01/01/2000,01:46:34.31,11.71,-80.28,-991.13,183.75,-595.0,-245.0,1,94.319,
01/01/2000,01:46:34.32,11.71,-80.40,-991.01,218.75,-612.50,-420.0,1,94.325,
01/01/2000,01:46:34.33,11.59,-80.28,-990.88,157.50,-717.50,-297.50,1,94.332,
01/01/2000,01:46:34.34,11.59,-80.28,-990.88,175.0,-673.75,-402.50,1,94.338,
01/01/2000,01:46:34.35,11.71,-80.28,-990.88,218.75,-656.25,-288.75,1,94.344,
01/01/2000,01:46:34.36,11.59,-80.28,-991.13,148.75,-717.50,-358.75,1,94.350,
01/01/2000,01:46:34.37,11.47,-80.28,-990.88,96.25,-638.75,-402.50,1,94.356,
01/01/2000,01:46:34.38,11.47,-80.15,-990.88,218.75,-568.75,-315.0,1,94.362,
01/01/2000,01:46:34.39,11.71,-80.15,-990.76,175.0,-638.75,-420.0,1,94.368,
01/01/2000,01:46:34.40,11.59,-80.40,-990.88,297.50,-630.0,-358.75,1,94.374,
01/01/2000,01:46:34.41,11.71,-80.28,-990.88,8.75,-796.25,-341.25,1,94.380,
01/01/2000,01:46:34.42,11.83,-80.40,-990.64,201.25,-682.50,-297.50,1,94.386,
01/01/2000,01:46:34.43,11.59,-80.40,-990.76,210.0,-717.50,-297.50,1,94.292,
01/01/2000,01:46:34.44,11.71,-80.40,-990.64,148.75,-630.0,-446.25,1,94.298,
01/01/2000,01:46:34.45,11.71,-80.28,-990.64,227.50,-560.0,-297.50,1,94.304,
01/01/2000,01:46:34.46,11.71,-80.28,-990.76,61.25,-700.0,-183.75,1,94.310,
01/01/2000,01:46:34.47,11.71,-80.28,-991.01,70.0,-682.50,-393.75,1,94.316,
01/01/2000,01:46:34.48,11.59,-80.28,-990.88,157.50,-708.75,-271.25,1,94.322,
01/01/2000,01:46:34.49,11.71,-80.28,-990.76,122.50,-717.50,-350.0,1,94.328,
01/01/2000,01:46:34.51,11.71,-80.15,-990.88,183.75,-647.50,-323.75,1,94.334,
01/01/2000,01:46:34.52,11.71,-80.15,-990.76,166.25,-673.75,-428.75,1,94.340,
01/01/2000,01:46:34.53,11.71,-80.03,-990.64,253.75,-647.50,-367.50,1,94.346,
01/01/2000,01:46:34.54,11.83,-79.91,-990.64,78.75,-743.75,-341.25,1,94.351,
01/01/2000,01:46:34.55,11.83,-80.15,-990.76,262.50,-630.0,-420.0,1,94.357,
01/01/2000,01:46:34.56,11.83,-80.15,-990.88,87.50,-498.75,-262.50,1,94.363,
01/01/2000,01:46:34.57,11.96,-80.15,-991.01,210.0,-708.75,-341.25,1,94.369,
01/01/2000,01:46:34.58,11.96,-80.03,-991.13,78.75,-743.75,-341.25,1,94.375,
01/01/2000,01:46:34.59,11.83,-80.03,-991.13,201.25,-700.0,-393.75,1,94.381,
01/01/2000,01:46:34.60,11.71,-80.15,-991.13,201.25,-796.25,-297.50,1,94.387,
01/01/2000,01:46:34.61,11.71,-80.28,-991.13,166.25,-708.75,-288.75,1,94.393,
01/01/2000,01:46:34.62,11.71,-80.28,-991.25,175.0,-848.75,-332.50,1,94.398,
01/01/2000,01:46:34.63,11.59,-80.28,-991.13,192.50,-673.75,-253.75,1,94.404,
01/01/2000,01:46:34.65,11.83,-80.40,-991.01,61.25,-595.0,-367.50,1,94.312,
01/01/2000,01:46:34.66,11.71,-80.28,-991.01,8.75,-673.75,-306.25,1,94.318,
01/01/2000,01:46:34.67,11.71,-80.28,-991.01,70.0,-682.50,-428.75,1,94.324,
01/01/2000,01:46:34.68,11.71,-80.15,-991.01,122.50,-708.75,-455.0,1,94.330,
01/01/2000,01:46:34.69,11.71,-80.28,-990.88,148.75,-735.0,-385.0,1,94.336,
01/01/2000,01:46:34.70,11.96,-80.28,-990.76,183.75,-682.50,-253.75,1,94.342,
01/01/2000,01:46:34.71,11.83,-80.52,-990.76,411.25,-752.50,-507.50,1,94.347,
01/01/2000,01:46:34.72,11.71,-80.40,-990.88,218.75,-630.0,-350.0,1,94.256,
01/01/2000,01:46:34.73,11.83,-80.28,-990.88,52.50,-691.25,-393.75,1,94.262,
01/01/2000,01:46:34.74,11.96,-80.03,-990.88,122.50,-726.25,-262.50,1,94.268,
01/01/2000,01:46:34.75,11.71,-80.15,-990.76,113.75,-621.25,-341.25,1,94.274,
01/01/2000,01:46:34.76,11.59,-80.28,-990.88,262.50,-700.0,-385.0,1,94.280,
01/01/2000,01:46:34.77,11.71,-80.28,-990.64,105.0,-735.0,-227.50,1,94.286,
01/01/2000,01:46:34.78,11.96,-80.15,-990.76,271.25,-665.0,-358.75,1,94.292,
01/01/2000,01:46:34.79,11.83,-80.28,-990.88,70.0,-717.50,-210.0,1,94.297,
01/01/2000,01:46:34.80,11.96,-80.28,-990.64,157.50,-665.0,-341.25,1,94.303,
01/01/2000,01:46:34.81,11.96,-80.28,-990.64,113.75,-761.25,-315.0,1,94.309,
01/01/2000,01:46:34.82,12.08,-80.28,-990.88,-52.50,-743.75,-350.0,1,94.315,
01/01/2000,01:46:34.83,12.08,-80.40,-991.01,78.75,-638.75,-306.25,1,94.320,
01/01/2000,01:46:34.84,12.20,-80.40,-990.88,201.25,-673.75,-393.75,1,94.326,
01/01/2000,01:46:34.86,12.08,-80.40,-990.64,166.25,-752.50,-393.75,1,94.332,
01/01/2000,01:46:34.87,12.08,-80.28,-990.64,210.0,-647.50,-297.50,1,94.338,
01/01/2000,01:46:34.88,12.08,-80.40,-990.64,113.75,-630.0,-358.75,1,94.343,
01/01/2000,01:46:34.89,12.08,-80.40,-990.64,157.50,-586.25,-297.50,1,94.349,
01/01/2000,01:46:34.90,12.08,-80.40,-990.64,157.50,-778.75,-332.50,1,94.355,
01/01/2000,01:46:34.91,11.96,-80.28,-990.64,122.50,-717.50,-332.50,1,94.361,
01/01/2000,01:46:34.92,11.96,-80.28,-990.64,166.25,-708.75,-288.75,1,94.366,
01/01/2000,01:46:34.93,12.08,-80.28,-990.64,131.25,-691.25,-358.75,1,94.372,
01/01/2000,01:46:34.94,11.83,-80.28,-990.76,70.0,-516.25,-280.0,1,94.378,
01/01/2000,01:46:34.95,11.83,-80.28,-990.76,192.50,-700.0,-446.25,1,94.289,
01/01/2000,01:46:34.96,11.83,-80.28,-990.64,262.50,-647.50,-376.25,1,94.389,
01/01/2000,01:46:34.97,11.83,-80.40,-990.64,183.75,-691.25,-323.75,1,94.300,
01/01/2000,01:46:34.98,11.96,-80.28,-990.52,52.50,-665.0,-323.75,1,94.306,
01/01/2000,01:46:35.00,11.96,-80.40,-990.52,78.75,-708.75,-350.0,1,94.311,
01/01/2000,01:46:35.01,11.83,-80.28,-990.64,157.50,-586.25,-411.25,1,94.317,
01/01/2000,01:46:35.02,11.83,-80.28,-990.52,218.75,-691.25,-385.0,1,94.323,
01/01/2000,01:46:35.03,11.96,-80.15,-990.40,157.50,-647.50,-271.25,1,94.328,
01/01/2000,01:46:35.04,11.96,-80.28,-990.40,183.75,-638.75,-341.25,1,94.334,
01/01/2000,01:46:35.05,11.96,-80.28,-990.64,8.75,-717.50,-271.25,1,94.340,
01/01/2000,01:46:35.06,11.96,-80.40,-990.88,87.50,-752.50,-358.75,1,94.345,
01/01/2000,01:46:35.07,12.08,-80.28,-991.01,262.50,-656.25,-367.50,1,94.351,
01/01/2000,01:46:35.08,12.08,-80.15,-990.76,175.0,-621.25,-402.50,1,94.356,
01/01/2000,01:46:35.09,11.96,-80.28,-990.64,227.50,-770.0,-271.25,1,94.362,
01/01/2000,01:46:35.10,11.96,-80.28,-990.64,113.75,-726.25,-341.25,1,94.368,
01/01/2000,01:46:35.11,12.20,-80.15,-990.88,166.25,-700.0,-253.75,1,94.373,
01/01/2000,01:46:35.12,12.20,-80.15,-991.01,70.0,-691.25,-288.75,1,94.379,
01/01/2000,01:46:35.13,12.20,-80.03,-990.76,61.25,-770.0,-306.25,1,94.384,
01/01/2000,01:46:35.14,11.96,-80.15,-990.40,236.25,-708.75,-315.0,1,94.297,
01/01/2000,01:46:35.15,11.83,-80.15,-990.52,227.50,-691.25,-253.75,1,94.303,
01/01/2000,01:46:35.16,12.08,-80.03,-990.76,218.75,-621.25,-393.75,1,94.308,
01/01/2000,01:46:35.17,12.08,-80.15,-990.76,148.75,-656.25,-280.0,1,94.314,
01/01/2000,01:46:35.18,11.96,-80.15,-990.64,105.0,-726.25,-385.0,1,94.319,
01/01/2000,01:46:35.20,11.83,-80.28,-990.52,280.0,-647.50,-367.50,1,94.325,
01/01/2000,01:46:35.21,11.96,-80.28,-990.64,-35.0,-656.25,-358.75,1,94.330,
01/01/2000,01:46:35.22,11.83,-80.40,-990.88,192.50,-743.75,-437.50,1,94.244,
01/01/2000,01:46:35.23,11.71,-80.28,-990.88,131.25,-630.0,-376.25,1,94.250,
01/01/2000,01:46:35.24,11.71,-80.28,-990.88,87.50,-708.75,-402.50,1,94.255,
01/01/2000,01:46:35.25,11.71,-80.15,-990.76,122.50,-621.25,-402.50,1,94.261,
01/01/2000,01:46:35.26,11.71,-80.03,-990.64,201.25,-726.25,-306.25,1,94.266,
01/01/2000,01:46:35.27,11.83,-80.28,-990.76,175.0,-577.50,-297.50,1,94.272,
01/01/2000,01:46:35.28,11.83,-80.28,-990.76,61.25,-621.25,-411.25,1,94.277,
01/01/2000,01:46:35.29,11.96,-80.28,-990.88,157.50,-735.0,-358.75,1,94.283,
01/01/2000,01:46:35.30,11.83,-80.15,-990.88,210.0,-656.25,-367.50,1,94.288,
01/01/2000,01:46:35.31,11.96,-80.15,-990.88,61.25,-638.75,-376.25,1,94.294,
01/01/2000,01:46:35.32,11.96,-80.28,-990.88,192.50,-726.25,-350.0,1,94.300,
01/01/2000,01:46:35.33,11.96,-80.28,-991.01,70.0,-638.75,-332.50,1,94.305,
01/01/2000,01:46:35.34,11.83,-80.40,-990.88,96.25,-638.75,-402.50,1,94.311,
01/01/2000,01:46:35.36,11.71,-80.40,-990.88,-26.25,-761.25,-288.75,1,94.316,
01/01/2000,01:46:35.37,11.71,-80.28,-990.88,52.50,-682.50,-367.50,1,94.321,
01/01/2000,01:46:35.38,11.83,-80.15,-990.88,236.25,-735.0,-350.0,1,94.327,
01/01/2000,01:46:35.39,11.71,-80.28,-990.88,175.0,-630.0,-280.0,1,94.332,
01/01/2000,01:46:35.40,11.59,-80.28,-990.76,166.25,-673.75,-341.25,1,94.338,
01/01/2000,01:46:35.41,11.59,-80.40,-990.76,131.25,-857.50,-411.25,1,94.343,
01/01/2000,01:46:35.42,11.83,-80.40,-990.88,157.50,-691.25,-437.50,1,94.349,
01/01/2000,01:46:35.43,11.96,-80.28,-990.88,122.50,-700.0,-323.75,1,94.354,
01/01/2000,01:46:35.44,11.71,-80.28,-990.88,166.25,-621.25,-341.25,1,94.359,
01/01/2000,01:46:35.45,11.83,-80.28,-990.76,140.0,-726.25,-428.75,1,94.365,
01/01/2000,01:46:35.46,11.83,-80.28,-990.88,236.25,-638.75,-323.75,1,94.370,
01/01/2000,01:46:35.47,11.96,-80.40,-991.01,245.0,-647.50,-245.0,1,94.286,
01/01/2000,01:46:35.48,11.96,-80.52,-990.88,218.75,-752.50,-210.0,1,94.381,
01/01/2000,01:46:35.50,11.83,-80.52,-990.76,183.75,-630.0,-297.50,1,94.297,
01/01/2000,01:46:35.51,11.83,-80.40,-990.88,183.75,-665.0,-341.25,1,94.302,
01/01/2000,01:46:35.52,11.83,-80.28,-990.88,183.75,-743.75,-306.25,1,94.307,
01/01/2000,01:46:35.53,11.96,-80.40,-990.76,175.0,-735.0,-323.75,1,94.313,
01/01/2000,01:46:35.54,11.96,-80.52,-990.64,122.50,-717.50,-253.75,1,94.318,
01/01/2000,01:46:35.55,11.96,-80.52,-990.64,183.75,-787.50,-437.50,1,94.324,
01/01/2000,01:46:35.56,11.96,-80.40,-990.64,140.0,-673.75,-341.25,1,94.329,
01/01/2000,01:46:35.57,11.96,-80.28,-990.76,113.75,-752.50,-498.75,1,94.334,
01/01/2000,01:46:35.58,12.20,-80.15,-990.64,148.75,-665.0,-350.0,1,94.340,
01/01/2000,01:46:35.59,12.08,-80.15,-990.64,157.50,-796.25,-297.50,1,94.345,
01/01/2000,01:46:35.60,11.96,-80.40,-990.64,157.50,-665.0,-376.25,1,94.350,
01/01/2000,01:46:35.61,12.08,-80.28,-990.88,297.50,-638.75,-411.25,1,94.356,
01/01/2000,01:46:35.62,12.08,-80.28,-991.01,140.0,-735.0,-402.50,1,94.361,
01/01/2000,01:46:35.63,12.08,-80.28,-991.13,157.50,-603.75,-332.50,1,94.278,
01/01/2000,01:46:35.64,11.83,-80.40,-991.01,183.75,-682.50,-402.50,1,94.283,
01/01/2000,01:46:35.65,12.08,-80.28,-990.88,166.25,-673.75,-280.0,1,94.288,
01/01/2000,01:46:35.66,12.08,-80.40,-990.88,122.50,-770.0,-262.50,1,94.294,
01/01/2000,01:46:35.67,12.20,-80.28,-990.88,148.75,-752.50,-402.50,1,94.299,
01/01/2000,01:46:35.68,12.20,-80.40,-990.88,236.25,-673.75,-367.50,1,94.304,
01/01/2000,01:46:35.69,12.08,-80.03,-990.76,192.50,-700.0,-350.0,1,94.310,
01/01/2000,01:46:35.71,11.96,-80.03,-990.76,192.50,-691.25,-376.25,1,94.315,
01/01/2000,01:46:35.72,11.96,-80.28,-990.88,61.25,-735.0,-393.75,1,94.233,
01/01/2000,01:46:35.73,11.96,-80.28,-990.88,236.25,-726.25,-358.75,1,94.238,
01/01/2000,01:46:35.74,11.96,-80.28,-990.88,157.50,-787.50,-358.75,1,94.243,
01/01/2000,01:46:35.75,11.96,-80.03,-990.64,210.0,-638.75,-341.25,1,94.249,
01/01/2000,01:46:35.76,11.96,-80.15,-990.64,183.75,-761.25,-315.0,1,94.254,
01/01/2000,01:46:35.77,11.96,-80.03,-990.88,245.0,-612.50,-315.0,1,94.259,
01/01/2000,01:46:35.78,11.96,-80.28,-991.01,105.0,-656.25,-393.75,1,94.265,
01/01/2000,01:46:35.79,11.96,-80.15,-990.88,122.50,-647.50,-358.75,1,94.270,
01/01/2000,01:46:35.80,11.96,-80.15,-990.64,253.75,-621.25,-385.0,1,94.275,
01/01/2000,01:46:35.81,12.08,-80.15,-990.64,61.25,-638.75,-288.75,1,94.280,
01/01/2000,01:46:35.82,11.96,-80.15,-990.64,96.25,-735.0,-385.0,1,94.286,
01/01/2000,01:46:35.83,11.83,-80.15,-990.64,148.75,-717.50,-332.50,1,94.291,
01/01/2000,01:46:35.85,11.83,-80.15,-990.64,192.50,-603.75,-323.75,1,94.296,
01/01/2000,01:46:35.86,11.83,-80.03,-990.64,148.75,-665.0,-288.75,1,94.301,
01/01/2000,01:46:35.87,11.96,-80.15,-990.64,140.0,-665.0,-393.75,1,94.307,
01/01/2000,01:46:35.88,12.08,-80.03,-990.88,245.0,-743.75,-341.25,1,94.312,
01/01/2000,01:46:35.89,11.96,-80.28,-990.88,280.0,-778.75,-402.50,1,94.317,
01/01/2000,01:46:35.90,12.08,-80.15,-990.88,175.0,-691.25,-280.0,1,94.322,
01/01/2000,01:46:35.91,12.08,-80.03,-990.76,87.50,-778.75,-262.50,1,94.328,
01/01/2000,01:46:35.92,12.20,-80.03,-990.76,140.0,-665.0,-323.75,1,94.333,
01/01/2000,01:46:35.93,11.96,-80.28,-990.88,201.25,-586.25,-393.75,1,94.338,
01/01/2000,01:46:35.94,11.96,-80.28,-991.01,-8.75,-603.75,-323.75,1,94.343,
01/01/2000,01:46:35.95,11.83,-80.52,-991.01,113.75,-621.25,-393.75,1,94.348,
01/01/2000,01:46:35.96,11.71,-80.52,-991.01,105.0,-691.25,-323.75,1,94.353,
01/01/2000,01:46:35.97,11.83,-80.52,-991.13,245.0,-752.50,-472.50,1,94.359,
01/01/2000,01:46:35.98,11.96,-80.40,-991.13,113.75,-778.75,-253.75,1,94.278,
01/01/2000,01:46:35.99,11.96,-80.52,-991.01,113.75,-726.25,-428.75,1,94.283,
01/01/2000,01:46:36.00,11.96,-80.64,-990.88,183.75,-665.0,-323.75,1,94.288,
01/01/2000,01:46:36.01,11.83,-80.64,-990.88,236.25,-726.25,-420.0,1,94.293,
01/01/2000,01:46:36.02,11.83,-80.52,-990.88,131.25,-743.75,-288.75,1,94.299,
01/01/2000,01:46:36.03,11.83,-80.40,-991.01,175.0,-621.25,-367.50,1,94.304,
01/01/2000,01:46:36.04,11.83,-80.40,-990.88,315.0,-778.75,-376.25,1,94.309,
01/01/2000,01:46:36.06,11.71,-80.52,-990.88,157.50,-577.50,-332.50,1,94.314,
01/01/2000,01:46:36.07,11.71,-80.52,-991.01,253.75,-691.25,-402.50,1,94.319,
01/01/2000,01:46:36.08,11.71,-80.40,-991.01,8.75,-787.50,-393.75,1,94.324,
01/01/2000,01:46:36.09,11.71,-80.40,-991.01,183.75,-542.50,-350.0,1,94.329,
01/01/2000,01:46:36.10,11.71,-80.28,-990.88,175.0,-673.75,-253.75,1,94.335,
01/01/2000,01:46:36.11,11.59,-80.52,-990.76,105.0,-743.75,-271.25,1,94.340,
01/01/2000,01:46:36.12,11.59,-80.52,-990.88,183.75,-665.0,-411.25,1,94.345,
01/01/2000,01:46:36.13,11.71,-80.40,-991.13,52.50,-656.25,-402.50,1,94.350,
01/01/2000,01:46:36.14,11.96,-80.15,-991.13,8.75,-717.50,-157.50,1,94.270,
01/01/2000,01:46:36.15,11.71,-80.28,-991.13,78.75,-691.25,-428.75,1,94.360,
01/01/2000,01:46:36.16,11.47,-80.03,-991.13,201.25,-673.75,-367.50,1,94.281,
01/01/2000,01:46:36.17,11.59,-80.28,-991.13,192.50,-700.0,-376.25,1,94.286,
01/01/2000,01:46:36.18,11.71,-80.28,-991.37,113.75,-708.75,-236.25,1,94.291,
01/01/2000,01:46:36.20,11.83,-80.28,-991.25,157.50,-682.50,-306.25,1,94.296,
01/01/2000,01:46:36.21,11.71,-80.15,-991.13,210.0,-656.25,-350.0,1,94.301,
01/01/2000,01:46:36.22,11.71,-80.28,-990.88,87.50,-638.75,-323.75,1,94.306,
01/01/2000,01:46:36.23,11.71,-80.40,-991.01,105.0,-726.25,-367.50,1,94.311,
01/01/2000,01:46:36.24,11.71,-80.40,-991.13,140.0,-682.50,-306.25,1,94.316,
01/01/2000,01:46:36.25,11.83,-80.52,-991.13,306.25,-708.75,-332.50,1,94.321,
01/01/2000,01:46:36.26,11.83,-80.40,-991.13,157.50,-673.75,-350.0,1,94.326,
01/01/2000,01:46:36.27,11.83,-80.52,-991.01,140.0,-673.75,-306.25,1,94.248,
01/01/2000,01:46:36.28,11.83,-80.52,-991.13,210.0,-656.25,-227.50,1,94.253,
01/01/2000,01:46:36.29,11.71,-80.52,-991.25,148.75,-717.50,-288.75,1,94.258,
01/01/2000,01:46:36.30,11.71,-80.52,-991.25,122.50,-560.0,-227.50,1,94.263,
01/01/2000,01:46:36.31,11.71,-80.52,-991.13,341.25,-691.25,-376.25,1,94.268,
01/01/2000,01:46:36.32,11.71,-80.40,-991.13,122.50,-665.0,-323.75,1,94.273,
01/01/2000,01:46:36.33,11.83,-80.40,-991.13,341.25,-665.0,-341.25,1,94.278,
01/01/2000,01:46:36.34,11.71,-80.40,-991.25,201.25,-577.50,-297.50,1,94.283,
01/01/2000,01:46:36.35,11.59,-80.64,-991.01,148.75,-691.25,-411.25,1,94.288,
01/01/2000,01:46:36.36,11.59,-80.64,-991.01,306.25,-612.50,-376.25,1,94.293,
01/01/2000,01:46:36.37,11.59,-80.64,-991.01,183.75,-621.25,-297.50,1,94.298,
01/01/2000,01:46:36.38,11.59,-80.40,-991.13,140.0,-630.0,-411.25,1,94.303,
01/01/2000,01:46:36.39,11.59,-80.52,-991.25,201.25,-770.0,-288.75,1,94.308,
01/01/2000,01:46:36.41,11.47,-80.64,-991.13,201.25,-778.75,-358.75,1,94.313,
01/01/2000,01:46:36.42,11.47,-80.40,-991.13,70.0,-717.50,-358.75,1,94.318,
01/01/2000,01:46:36.43,11.59,-80.40,-991.13,43.75,-586.25,-332.50,1,94.323,
01/01/2000,01:46:36.44,11.22,-80.52,-991.13,113.75,-656.25,-420.0,1,94.328,
01/01/2000,01:46:36.45,11.47,-80.28,-991.25,157.50,-656.25,-472.50,1,94.333,
01/01/2000,01:46:36.46,11.47,-80.28,-991.37,288.75,-708.75,-350.0,1,94.338,
01/01/2000,01:46:36.47,11.59,-80.03,-991.13,148.75,-717.50,-218.75,1,94.343,
01/01/2000,01:46:36.48,11.22,-80.52,-991.01,218.75,-656.25,-358.75,1,94.348,
01/01/2000,01:46:36.49,11.35,-80.52,-991.01,210.0,-761.25,-297.50,1,94.271,
01/01/2000,01:46:36.50,11.59,-80.52,-991.01,166.25,-735.0,-516.25,1,94.276,
01/01/2000,01:46:36.51,11.47,-80.52,-991.13,192.50,-638.75,-280.0,1,94.281,
01/01/2000,01:46:36.52,11.59,-80.64,-991.13,70.0,-700.0,-350.0,1,94.286,
01/01/2000,01:46:36.53,11.59,-80.52,-990.88,70.0,-726.25,-367.50,1,94.291,
01/01/2000,01:46:36.55,11.47,-80.52,-991.01,87.50,-726.25,-271.25,1,94.296,
01/01/2000,01:46:36.56,11.59,-80.52,-991.13,271.25,-656.25,-437.50,1,94.301,
01/01/2000,01:46:36.57,11.71,-80.40,-991.13,183.75,-595.0,-236.25,1,94.305,
01/01/2000,01:46:36.58,11.71,-80.52,-991.13,183.75,-612.50,-411.25,1,94.310,
01/01/2000,01:46:36.59,11.71,-80.52,-991.13,157.50,-656.25,-376.25,1,94.315,
01/01/2000,01:46:36.60,11.71,-80.52,-991.37,140.0,-630.0,-341.25,1,94.320,
01/01/2000,01:46:36.61,11.96,-80.52,-991.49,166.25,-656.25,-341.25,1,94.325,
01/01/2000,01:46:36.62,11.71,-80.52,-991.37,166.25,-647.50,-472.50,1,94.330,
01/01/2000,01:46:36.63,11.59,-80.52,-991.37,70.0,-647.50,-332.50,1,94.335,
01/01/2000,01:46:36.64,11.71,-80.64,-991.37,201.25,-682.50,-411.25,1,94.340,
01/01/2000,01:46:36.65,11.71,-80.64,-991.49,26.25,-647.50,-411.25,1,94.344,
01/01/2000,01:46:36.66,11.71,-80.52,-991.49,183.75,-656.25,-411.25,1,94.349,
01/01/2000,01:46:36.67,11.71,-80.64,-991.49,140.0,-691.25,-350.0,1,94.354,
01/01/2000,01:46:36.68,11.71,-80.64,-991.25,148.75,-752.50,-420.0,1,94.359,
01/01/2000,01:46:36.69,11.83,-80.64,-991.25,122.50,-612.50,-350.0,1,94.283,
01/01/2000,01:46:36.70,11.71,-80.52,-991.37,131.25,-638.75,-402.50,1,94.288,
01/01/2000,01:46:36.71,11.71,-80.52,-991.49,227.50,-673.75,-306.25,1,94.293,
01/01/2000,01:46:36.72,11.71,-80.52,-991.62,122.50,-700.0,-306.25,1,94.298,
01/01/2000,01:46:36.74,11.83,-80.40,-991.37,113.75,-735.0,-271.25,1,94.303,
01/01/2000,01:46:36.75,11.96,-80.40,-991.25,148.75,-735.0,-393.75,1,94.308,
01/01/2000,01:46:36.76,11.96,-80.52,-991.37,218.75,-761.25,-306.25,1,94.312,
01/01/2000,01:46:36.77,11.83,-80.52,-991.37,218.75,-647.50,-323.75,1,94.317,
01/01/2000,01:46:36.78,11.83,-80.40,-991.62,253.75,-726.25,-376.25,1,94.322,
01/01/2000,01:46:36.79,11.83,-80.28,-991.37,122.50,-656.25,-376.25,1,94.327,
01/01/2000,01:46:36.80,11.71,-80.15,-991.37,288.75,-717.50,-350.0,1,94.332,
01/01/2000,01:46:36.81,11.71,-80.28,-991.37,175.0,-717.50,-271.25,1,94.336,
01/01/2000,01:46:36.82,11.83,-80.40,-991.25,236.25,-630.0,-385.0,1,94.341,
01/01/2000,01:46:36.83,11.96,-80.28,-991.37,131.25,-726.25,-306.25,1,94.346,
01/01/2000,01:46:36.84,11.83,-80.28,-991.25,87.50,-638.75,-402.50,1,94.271,
01/01/2000,01:46:36.85,11.83,-80.15,-991.25,140.0,-647.50,-323.75,1,94.276,
01/01/2000,01:46:36.86,11.71,-80.28,-991.13,166.25,-630.0,-253.75,1,94.281,
01/01/2000,01:46:36.87,11.83,-80.15,-991.13,192.50,-682.50,-315.0,1,94.286,
01/01/2000,01:46:36.88,11.96,-80.52,-991.13,227.50,-691.25,-385.0,1,94.291,
01/01/2000,01:46:36.89,11.59,-80.52,-991.13,70.0,-761.25,-218.75,1,94.295,
01/01/2000,01:46:36.91,11.71,-80.52,-991.13,0.0,-656.25,-341.25,1,94.300,
01/01/2000,01:46:36.92,11.71,-80.52,-991.13,122.50,-673.75,-323.75,1,94.305,
01/01/2000,01:46:36.93,11.71,-80.40,-991.13,201.25,-691.25,-210.0,1,94.310,
01/01/2000,01:46:36.94,11.71,-80.52,-991.13,26.25,-735.0,-455.0,1,94.314,
01/01/2000,01:46:36.95,11.83,-80.64,-991.13,201.25,-647.50,-297.50,1,94.319,
01/01/2000,01:46:36.96,11.96,-80.52,-991.13,70.0,-735.0,-350.0,1,94.324,
01/01/2000,01:46:36.97,11.83,-80.52,-991.13,288.75,-673.75,-341.25,1,94.329,
01/01/2000,01:46:36.98,11.96,-80.52,-990.88,201.25,-612.50,-402.50,1,94.333,
01/01/2000,01:46:36.99,11.96,-80.40,-990.88,201.25,-682.50,-271.25,1,94.338,
01/01/2000,01:46:37.00,11.96,-80.40,-991.01,140.0,-726.25,-315.0,1,94.343,
01/01/2000,01:46:37.01,11.96,-80.40,-991.01,183.75,-743.75,-297.50,1,94.347,
01/01/2000,01:46:37.02,11.96,-80.40,-991.01,227.50,-726.25,-245.0,1,94.352,
01/01/2000,01:46:37.03,11.96,-80.52,-991.01,341.25,-603.75,-428.75,1,94.357,
01/01/2000,01:46:37.04,11.83,-80.52,-991.13,78.75,-691.25,-323.75,1,94.283,
01/01/2000,01:46:37.05,11.83,-80.40,-991.13,175.0,-700.0,-358.75,1,94.288,
01/01/2000,01:46:37.06,11.83,-80.40,-991.25,245.0,-735.0,-245.0,1,94.293,
01/01/2000,01:46:37.07,11.96,-80.40,-991.25,131.25,-761.25,-446.25,1,94.298,
01/01/2000,01:46:37.08,11.71,-80.52,-991.25,78.75,-735.0,-201.25,1,94.302,
01/01/2000,01:46:37.09,11.71,-80.64,-991.13,131.25,-656.25,-358.75,1,94.307,
01/01/2000,01:46:37.10,11.71,-80.64,-991.01,218.75,-735.0,-420.0,1,94.312,
01/01/2000,01:46:37.12,11.59,-80.52,-991.13,140.0,-708.75,-323.75,1,94.316,
01/01/2000,01:46:37.13,11.59,-80.40,-991.25,201.25,-621.25,-341.25,1,94.321,
01/01/2000,01:46:37.14,11.47,-80.40,-991.13,157.50,-682.50,-236.25,1,94.326,
01/01/2000,01:46:37.15,11.47,-80.52,-991.01,288.75,-752.50,-350.0,1,94.330,
01/01/2000,01:46:37.16,11.47,-80.52,-991.01,61.25,-673.75,-341.25,1,94.335,
01/01/2000,01:46:37.17,11.47,-80.52,-991.25,297.50,-691.25,-490.0,1,94.340,
01/01/2000,01:46:37.18,11.59,-80.28,-991.37,262.50,-665.0,-323.75,1,94.344,
01/01/2000,01:46:37.19,11.59,-80.15,-991.25,-8.75,-752.50,-306.25,1,94.349,
01/01/2000,01:46:37.20,11.47,-80.40,-991.01,105.0,-560.0,-341.25,1,94.354,
01/01/2000,01:46:37.21,11.71,-80.52,-991.01,201.25,-673.75,-411.25,1,94.358,
01/01/2000,01:46:37.22,11.71,-80.52,-991.13,87.50,-673.75,-315.0,1,94.363,
01/01/2000,01:46:37.23,11.71,-80.64,-990.88,271.25,-708.75,-288.75,1,94.367,
01/01/2000,01:46:37.25,11.71,-80.52,-990.88,105.0,-647.50,-350.0,1,94.295,
01/01/2000,01:46:37.26,11.47,-80.28,-991.13,245.0,-717.50,-280.0,1,94.300,
01/01/2000,01:46:37.27,11.71,-80.28,-991.25,70.0,-796.25,-280.0,1,94.304,
01/01/2000,01:46:37.28,11.96,-80.52,-991.25,201.25,-630.0,-402.50,1,94.309,
01/01/2000,01:46:37.29,11.96,-80.52,-991.13,43.75,-752.50,-218.75,1,94.314,
01/01/2000,01:46:37.30,11.83,-80.52,-991.01,166.25,-612.50,-315.0,1,94.318,
01/01/2000,01:46:37.31,11.96,-80.40,-991.13,227.50,-603.75,-507.50,1,94.323,
01/01/2000,01:46:37.32,11.96,-80.40,-991.25,201.25,-787.50,-393.75,1,94.327,
01/01/2000,01:46:37.33,11.96,-80.28,-991.25,113.75,-717.50,-341.25,1,94.256,
01/01/2000,01:46:37.34,11.83,-80.52,-991.25,105.0,-665.0,-262.50,1,94.260,
01/01/2000,01:46:37.35,11.83,-80.64,-991.01,192.50,-805.0,-393.75,1,94.265,
01/01/2000,01:46:37.36,11.83,-80.52,-990.88,-8.75,-621.25,-297.50,1,94.270,
01/01/2000,01:46:37.37,11.96,-80.52,-990.88,96.25,-813.75,-402.50,1,94.274,
01/01/2000,01:46:37.38,11.96,-80.52,-991.13,315.0,-603.75,-472.50,1,94.279,
01/01/2000,01:46:37.40,11.71,-80.52,-991.13,280.0,-665.0,-420.0,1,94.283,
01/01/2000,01:46:37.41,11.59,-80.40,-991.13,210.0,-656.25,-288.75,1,94.288,
01/01/2000,01:46:37.42,11.71,-80.28,-991.13,61.25,-673.75,-376.25,1,94.293,
01/01/2000,01:46:37.43,11.96,-80.52,-990.88,192.50,-647.50,-402.50,1,94.297,
01/01/2000,01:46:37.44,11.96,-80.52,-990.88,350.0,-796.25,-420.0,1,94.302,
01/01/2000,01:46:37.45,11.71,-80.52,-991.13,140.0,-656.25,-367.50,1,94.306,
01/01/2000,01:46:37.46,11.71,-80.52,-991.13,96.25,-743.75,-245.0,1,94.311,
01/01/2000,01:46:37.47,11.59,-80.52,-991.25,175.0,-595.0,-350.0,1,94.315,
01/01/2000,01:46:37.48,11.47,-80.40,-991.01,183.75,-770.0,-332.50,1,94.320,
01/01/2000,01:46:37.49,11.47,-80.28,-990.88,52.50,-752.50,-393.75,1,94.325,
01/01/2000,01:46:37.50,11.59,-80.52,-990.88,288.75,-787.50,-385.0,1,94.329,
01/01/2000,01:46:37.51,11.47,-80.40,-991.13,210.0,-673.75,-411.25,1,94.334,
01/01/2000,01:46:37.52,11.47,-80.52,-991.01,113.75,-647.50,-463.75,1,94.338,
01/01/2000,01:46:37.53,11.71,-80.28,-991.01,236.25,-700.0,-262.50,1,94.343,
01/01/2000,01:46:37.54,11.71,-80.28,-990.64,140.0,-682.50,-297.50,1,94.272,
01/01/2000,01:46:37.55,11.59,-80.40,-990.76,183.75,-700.0,-393.75,1,94.277,
01/01/2000,01:46:37.56,11.71,-80.52,-990.88,227.50,-813.75,-367.50,1,94.281,
01/01/2000,01:46:37.57,11.71,-80.64,-990.88,192.50,-665.0,-376.25,1,94.286,
01/01/2000,01:46:37.58,11.71,-80.52,-990.88,166.25,-700.0,-350.0,1,94.290,
01/01/2000,01:46:37.59,11.71,-80.28,-990.88,236.25,-743.75,-498.75,1,94.295,
01/01/2000,01:46:37.61,11.59,-80.28,-991.01,43.75,-612.50,-350.0,1,94.299,
01/01/2000,01:46:37.62,11.59,-80.52,-991.13,140.0,-612.50,-297.50,1,94.304,
01/01/2000,01:46:37.63,11.83,-80.40,-991.13,148.75,-761.25,-332.50,1,94.308,
01/01/2000,01:46:37.64,11.96,-80.52,-990.88,166.25,-673.75,-288.75,1,94.313,
01/01/2000,01:46:37.65,11.83,-80.40,-990.88,78.75,-682.50,-262.50,1,94.317,
01/01/2000,01:46:37.66,11.71,-80.52,-990.76,201.25,-621.25,-463.75,1,94.322,
01/01/2000,01:46:37.67,11.96,-80.28,-990.88,43.75,-665.0,-297.50,1,94.326,
01/01/2000,01:46:37.68,11.96,-80.40,-990.76,183.75,-708.75,-271.25,1,94.256,
01/01/2000,01:46:37.69,11.71,-80.28,-990.76,280.0,-708.75,-350.0,1,94.261,
01/01/2000,01:46:37.70,11.71,-80.40,-990.64,253.75,-647.50,-420.0,1,94.266,
01/01/2000,01:46:37.71,11.71,-80.40,-990.64,105.0,-787.50,-323.75,1,94.270,
01/01/2000,01:46:37.72,11.71,-80.40,-990.88,157.50,-700.0,-420.0,1,94.275,
01/01/2000,01:46:37.73,11.71,-80.28,-990.88,236.25,-638.75,-271.25,1,94.279,
01/01/2000,01:46:37.75,11.71,-80.40,-990.64,166.25,-665.0,-288.75,1,94.283,
01/01/2000,01:46:37.76,11.71,-80.52,-990.64,87.50,-778.75,-350.0,1,94.288,
01/01/2000,01:46:37.77,11.59,-80.64,-990.64,236.25,-612.50,-367.50,1,94.292,
01/01/2000,01:46:37.78,11.59,-80.52,-990.76,43.75,-603.75,-306.25,1,94.297,
01/01/2000,01:46:37.79,11.59,-80.64,-990.64,166.25,-726.25,-350.0,1,94.301,
01/01/2000,01:46:37.80,11.47,-80.76,-990.52,271.25,-691.25,-402.50,1,94.306,
01/01/2000,01:46:37.81,11.59,-80.64,-990.64,131.25,-691.25,-350.0,1,94.310,
01/01/2000,01:46:37.82,11.71,-80.64,-990.64,210.0,-787.50,-306.25,1,94.241,
01/01/2000,01:46:37.83,11.71,-80.76,-990.64,166.25,-691.25,-323.75,1,94.246,
01/01/2000,01:46:37.84,11.71,-80.76,-990.64,245.0,-665.0,-332.50,1,94.250,
01/01/2000,01:46:37.85,11.71,-80.76,-990.76,78.75,-638.75,-393.75,1,94.255,
01/01/2000,01:46:37.86,11.83,-80.64,-990.88,262.50,-665.0,-385.0,1,94.259,
01/01/2000,01:46:37.87,11.96,-80.64,-991.01,210.0,-735.0,-306.25,1,94.264,
01/01/2000,01:46:37.88,11.83,-80.52,-990.88,148.75,-673.75,-306.25,1,94.268,
01/01/2000,01:46:37.90,11.96,-80.52,-990.88,192.50,-673.75,-236.25,1,94.272,
01/01/2000,01:46:37.91,11.83,-80.52,-990.76,113.75,-691.25,-376.25,1,94.277,
01/01/2000,01:46:37.92,11.83,-80.52,-990.88,-26.25,-752.50,-315.0,1,94.281,
01/01/2000,01:46:37.93,11.71,-80.52,-990.64,192.50,-708.75,-297.50,1,94.286,
01/01/2000,01:46:37.94,11.71,-80.52,-990.64,148.75,-778.75,-455.0,1,94.290,
01/01/2000,01:46:37.95,11.59,-80.40,-990.64,131.25,-761.25,-306.25,1,94.295,
01/01/2000,01:46:37.96,11.71,-80.28,-990.76,96.25,-691.25,-481.25,1,94.299,
01/01/2000,01:46:37.97,11.71,-80.40,-990.88,70.0,-612.50,-236.25,1,94.303,
01/01/2000,01:46:37.98,11.83,-80.40,-990.88,175.0,-665.0,-236.25,1,94.308,
01/01/2000,01:46:37.99,11.71,-80.40,-990.76,253.75,-831.25,-315.0,1,94.312,
01/01/2000,01:46:38.00,11.71,-80.52,-990.76,201.25,-682.50,-280.0,1,94.316,
01/01/2000,01:46:38.01,11.71,-80.28,-990.88,245.0,-595.0,-385.0,1,94.321,
01/01/2000,01:46:38.02,11.83,-80.40,-990.88,148.75,-673.75,-288.75,1,94.325,
01/01/2000,01:46:38.04,11.96,-80.64,-990.88,236.25,-551.25,-306.25,1,94.257,
01/01/2000,01:46:38.05,11.71,-80.64,-990.88,148.75,-717.50,-306.25,1,94.262,
01/01/2000,01:46:38.06,11.71,-80.52,-990.76,148.75,-787.50,-376.25,1,94.266,
01/01/2000,01:46:38.07,11.96,-80.40,-990.76,140.0,-708.75,-288.75,1,94.270,
01/01/2000,01:46:38.08,12.08,-80.40,-990.88,105.0,-787.50,-271.25,1,94.275,
01/01/2000,01:46:38.09,11.96,-80.52,-990.88,280.0,-638.75,-271.25,1,94.279,
01/01/2000,01:46:38.10,11.96,-80.52,-990.88,113.75,-735.0,-297.50,1,94.284,
01/01/2000,01:46:38.11,11.96,-80.64,-990.88,245.0,-682.50,-306.25,1,94.288,
01/01/2000,01:46:38.12,11.96,-80.64,-991.01,140.0,-665.0,-376.25,1,94.292,
01/01/2000,01:46:38.13,12.08,-80.52,-990.88,70.0,-778.75,-472.50,1,94.297,
01/01/2000,01:46:38.14,12.08,-80.64,-990.76,131.25,-595.0,-332.50,1,94.301,
01/01/2000,01:46:38.15,11.96,-80.52,-990.76,131.25,-595.0,-428.75,1,94.305,
01/01/2000,01:46:38.16,11.83,-80.64,-990.88,218.75,-656.25,-315.0,1,94.310,
01/01/2000,01:46:38.17,11.96,-80.52,-991.01,122.50,-647.50,-323.75,1,94.242,
01/01/2000,01:46:38.18,11.96,-80.28,-990.88,253.75,-665.0,-358.75,1,94.247,
01/01/2000,01:46:38.19,11.83,-80.28,-990.88,236.25,-708.75,-306.25,1,94.251,
01/01/2000,01:46:38.20,11.71,-80.28,-990.88,201.25,-691.25,-332.50,1,94.255,
01/01/2000,01:46:38.21,11.59,-80.28,-990.88,61.25,-717.50,-393.75,1,94.260,
01/01/2000,01:46:38.22,11.59,-80.40,-991.01,183.75,-647.50,-315.0,1,94.264,
01/01/2000,01:46:38.23,11.71,-80.28,-990.88,122.50,-726.25,-341.25,1,94.268,
01/01/2000,01:46:38.25,11.71,-80.52,-990.64,236.25,-726.25,-297.50,1,94.273,
01/01/2000,01:46:38.26,11.71,-80.52,-990.88,113.75,-691.25,-446.25,1,94.206,
01/01/2000,01:46:38.27,11.71,-80.40,-990.88,245.0,-665.0,-420.0,1,94.211,
01/01/2000,01:46:38.28,11.83,-80.40,-990.88,140.0,-638.75,-271.25,1,94.215,
01/01/2000,01:46:38.29,11.71,-80.40,-990.64,157.50,-796.25,-420.0,1,94.219,
01/01/2000,01:46:38.30,11.83,-80.76,-990.40,201.25,-717.50,-341.25,1,94.224,
01/01/2000,01:46:38.31,11.96,-80.76,-990.64,175.0,-638.75,-367.50,1,94.228,
01/01/2000,01:46:38.32,11.96,-80.76,-990.64,166.25,-647.50,-315.0,1,94.232,
01/01/2000,01:46:38.33,11.96,-80.64,-990.76,148.75,-691.25,-385.0,1,94.237,
01/01/2000,01:46:38.34,11.71,-80.40,-990.76,61.25,-700.0,-411.25,1,94.241,
01/01/2000,01:46:38.35,11.71,-80.40,-990.88,113.75,-717.50,-358.75,1,94.245,
01/01/2000,01:46:38.37,11.71,-80.52,-990.88,140.0,-700.0,-376.25,1,94.249,
01/01/2000,01:46:38.37,11.71,-80.64,-990.88,148.75,-656.25,-297.50,1,94.254,
01/01/2000,01:46:38.39,11.71,-80.52,-990.88,78.75,-682.50,-280.0,1,94.258,
01/01/2000,01:46:38.40,11.71,-80.52,-990.88,166.25,-726.25,-402.50,1,94.262,
01/01/2000,01:46:38.41,11.59,-80.28,-990.88,52.50,-577.50,-306.25,1,94.267,
01/01/2000,01:46:38.42,11.59,-80.28,-990.76,262.50,-621.25,-323.75,1,94.271,
01/01/2000,01:46:38.43,11.83,-80.40,-990.88,236.25,-708.75,-271.25,1,94.275,
01/01/2000,01:46:38.44,11.83,-80.40,-990.88,157.50,-717.50,-376.25,1,94.279,
01/01/2000,01:46:38.45,11.71,-80.52,-990.76,105.0,-708.75,-358.75,1,94.284,
01/01/2000,01:46:38.46,11.71,-80.40,-990.64,166.25,-796.25,-367.50,1,94.288,
01/01/2000,01:46:38.47,11.71,-80.28,-990.64,166.25,-682.50,-367.50,1,94.292,
01/01/2000,01:46:38.48,11.71,-80.28,-990.88,183.75,-647.50,-280.0,1,94.296,
01/01/2000,01:46:38.49,11.71,-80.28,-990.88,148.75,-647.50,-472.50,1,94.301,
01/01/2000,01:46:38.50,11.83,-80.52,-990.88,210.0,-577.50,-358.75,1,94.305,
01/01/2000,01:46:38.51,11.83,-80.64,-990.88,96.25,-778.75,-393.75,1,94.309,
01/01/2000,01:46:38.52,11.83,-80.52,-990.64,113.75,-691.25,-332.50,1,94.244,
01/01/2000,01:46:38.53,11.83,-80.52,-990.76,70.0,-708.75,-428.75,1,94.248,
01/01/2000,01:46:38.54,11.96,-80.40,-990.88,201.25,-752.50,-385.0,1,94.252,
01/01/2000,01:46:38.55,11.83,-80.28,-991.01,122.50,-770.0,-393.75,1,94.256,
01/01/2000,01:46:38.56,11.83,-80.28,-990.88,113.75,-656.25,-385.0,1,94.260,
01/01/2000,01:46:38.57,11.83,-80.40,-990.88,332.50,-726.25,-288.75,1,94.265,
01/01/2000,01:46:38.58,11.96,-80.52,-990.88,210.0,-796.25,-192.50,1,94.269,
01/01/2000,01:46:38.60,12.08,-80.52,-991.13,183.75,-533.75,-323.75,1,94.273,
01/01/2000,01:46:38.61,11.96,-80.52,-991.13,157.50,-682.50,-385.0,1,94.277,
01/01/2000,01:46:38.62,11.96,-80.28,-991.13,113.75,-586.25,-341.25,1,94.282,
01/01/2000,01:46:38.63,11.96,-80.28,-991.01,192.50,-778.75,-341.25,1,94.286,
01/01/2000,01:46:38.64,11.96,-80.28,-990.88,113.75,-726.25,-350.0,1,94.290,
01/01/2000,01:46:38.65,12.20,-80.52,-990.88,376.25,-577.50,-306.25,1,94.294,
01/01/2000,01:46:38.66,12.08,-80.52,-990.88,122.50,-682.50,-437.50,1,94.298,
01/01/2000,01:46:38.67,11.96,-80.40,-990.88,192.50,-682.50,-78.75,1,94.302,
01/01/2000,01:46:38.68,11.71,-80.28,-990.88,175.0,-595.0,-560.0,1,94.307,
01/01/2000,01:46:38.69,11.71,-80.03,-990.88,61.25,-682.50,-472.50,1,94.311,
01/01/2000,01:46:38.70,11.96,-80.15,-990.88,87.50,-770.0,-568.75,1,94.315,
01/01/2000,01:46:38.71,12.08,-80.40,-990.64,210.0,-673.75,-113.75,1,94.319,
01/01/2000,01:46:38.72,11.96,-80.52,-990.64,183.75,-691.25,-376.25,1,94.323,
01/01/2000,01:46:38.73,11.83,-80.40,-990.52,210.0,-708.75,-148.75,1,94.259,
01/01/2000,01:46:38.74,11.96,-80.28,-990.40,35.0,-673.75,-516.25,1,94.263,
01/01/2000,01:46:38.75,11.83,-80.03,-990.52,166.25,-700.0,-288.75,1,94.267,
01/01/2000,01:46:38.76,11.47,-80.28,-990.64,148.75,-638.75,-210.0,1,94.271,
01/01/2000,01:46:38.78,11.59,-80.28,-990.40,43.75,-717.50,-420.0,1,94.275,
01/01/2000,01:46:38.79,11.71,-80.52,-990.40,288.75,-708.75,-385.0,1,94.211,
01/01/2000,01:46:38.80,11.59,-80.52,-990.64,122.50,-691.25,-586.25,1,94.215,
01/01/2000,01:46:38.81,11.59,-80.40,-990.64,96.25,-770.0,-332.50,1,94.220,
01/01/2000,01:46:38.82,11.35,-80.28,-990.64,96.25,-700.0,-297.50,1,94.224,
01/01/2000,01:46:38.83,11.22,-80.40,-990.64,271.25,-638.75,-271.25,1,94.228,
01/01/2000,01:46:38.84,11.35,-80.40,-990.64,166.25,-647.50,-341.25,1,94.232,
01/01/2000,01:46:38.85,11.59,-80.52,-990.64,78.75,-647.50,-376.25,1,94.236,
01/01/2000,01:46:38.86,11.59,-80.52,-990.64,157.50,-665.0,-271.25,1,94.240,
01/01/2000,01:46:38.87,11.59,-80.28,-990.52,201.25,-708.75,-393.75,1,94.245,
01/01/2000,01:46:38.89,11.47,-80.15,-990.52,201.25,-682.50,-358.75,1,94.249,
01/01/2000,01:46:38.90,11.47,-80.15,-990.76,227.50,-682.50,-253.75,1,94.253,
01/01/2000,01:46:38.91,11.71,-80.28,-990.76,183.75,-708.75,-367.50,1,94.257,
01/01/2000,01:46:38.92,11.71,-80.40,-990.64,70.0,-735.0,-376.25,1,94.261,
01/01/2000,01:46:38.93,11.71,-80.40,-990.52,210.0,-691.25,-367.50,1,94.265,
01/01/2000,01:46:38.94,11.59,-80.28,-990.64,175.0,-735.0,-306.25,1,94.269,
01/01/2000,01:46:38.95,11.71,-79.91,-990.76,87.50,-761.25,-341.25,1,94.273,
01/01/2000,01:46:38.96,11.83,-79.91,-990.76,43.75,-603.75,-315.0,1,94.278,
01/01/2000,01:46:38.97,11.96,-80.15,-990.64,140.0,-752.50,-271.25,1,94.282,
01/01/2000,01:46:38.98,11.96,-80.28,-990.52,105.0,-595.0,-411.25,1,94.286,
01/01/2000,01:46:38.99,11.96,-80.40,-990.40,87.50,-735.0,-376.25,1,94.290,
01/01/2000,01:46:39.00,11.96,-80.40,-990.40,245.0,-770.0,-341.25,1,94.294,
01/01/2000,01:46:39.01,11.96,-80.28,-990.64,43.75,-700.0,-420.0,1,94.298,
01/01/2000,01:46:39.02,11.96,-80.28,-990.88,17.50,-743.75,-288.75,1,94.235,
01/01/2000,01:46:39.03,11.96,-80.40,-990.88,96.25,-717.50,-315.0,1,94.239,
01/01/2000,01:46:39.04,11.83,-80.52,-990.76,148.75,-717.50,-358.75,1,94.243,
01/01/2000,01:46:39.05,11.83,-80.52,-990.64,358.75,-813.75,-376.25,1,94.247,
01/01/2000,01:46:39.06,11.96,-80.40,-990.64,288.75,-691.25,-323.75,1,94.251,
01/01/2000,01:46:39.07,11.71,-80.40,-990.76,122.50,-691.25,-253.75,1,94.255,
01/01/2000,01:46:39.08,11.71,-80.40,-990.88,122.50,-717.50,-280.0,1,94.259,
01/01/2000,01:46:39.10,11.71,-80.28,-990.88,253.75,-612.50,-323.75,1,94.263,
01/01/2000,01:46:39.11,11.96,-80.40,-990.76,61.25,-586.25,-437.50,1,94.268,
01/01/2000,01:46:39.12,12.08,-80.40,-990.76,210.0,-612.50,-306.25,1,94.272,
01/01/2000,01:46:39.13,12.08,-80.52,-990.52,148.75,-735.0,-411.25,1,94.276,
01/01/2000,01:46:39.14,11.83,-80.52,-990.52,192.50,-630.0,-437.50,1,94.280,
01/01/2000,01:46:39.15,11.83,-80.28,-990.64,87.50,-612.50,-455.0,1,94.284,
01/01/2000,01:46:39.16,11.83,-80.15,-990.64,148.75,-691.25,-201.25,1,94.288,
01/01/2000,01:46:39.17,11.96,-80.28,-990.64,61.25,-612.50,-280.0,1,94.292,
01/01/2000,01:46:39.18,11.71,-80.40,-990.52,271.25,-612.50,-367.50,1,94.296,
01/01/2000,01:46:39.19,11.71,-80.64,-990.64,122.50,-778.75,-411.25,1,94.300,
01/01/2000,01:46:39.20,11.71,-80.28,-990.76,70.0,-647.50,-315.0,1,94.304,
01/01/2000,01:46:39.21,11.71,-80.15,-990.76,210.0,-665.0,-385.0,1,94.308,
01/01/2000,01:46:39.22,11.59,-80.03,-990.52,192.50,-665.0,-288.75,1,94.312,
01/01/2000,01:46:39.24,11.59,-80.03,-990.27,271.25,-752.50,-341.25,1,94.250,
01/01/2000,01:46:39.25,11.71,-80.40,-990.52,148.75,-682.50,-262.50,1,94.254,
01/01/2000,01:46:39.26,11.71,-80.52,-990.64,0.0,-735.0,-402.50,1,94.258,
01/01/2000,01:46:39.27,11.71,-80.28,-990.64,227.50,-735.0,-288.75,1,94.262,
01/01/2000,01:46:39.28,11.71,-80.28,-990.40,105.0,-735.0,-437.50,1,94.266,
01/01/2000,01:46:39.29,11.71,-80.03,-990.40,297.50,-603.75,-262.50,1,94.270,
01/01/2000,01:46:39.30,11.71,-80.15,-990.64,166.25,-673.75,-253.75,1,94.274,
01/01/2000,01:46:39.31,11.83,-80.28,-990.64,131.25,-665.0,-332.50,1,94.278,
01/01/2000,01:46:39.32,11.96,-80.28,-990.27,70.0,-691.25,-376.25,1,94.216,
01/01/2000,01:46:39.33,11.71,-80.28,-990.15,175.0,-665.0,-437.50,1,94.286,
01/01/2000,01:46:39.34,11.71,-80.03,-990.15,113.75,-603.75,-350.0,1,94.224,
01/01/2000,01:46:39.35,11.83,-80.03,-990.40,245.0,-612.50,-367.50,1,94.228,
01/01/2000,01:46:39.36,11.71,-80.15,-990.76,131.25,-647.50,-227.50,1,94.232,
01/01/2000,01:46:39.37,11.83,-80.15,-990.64,43.75,-726.25,-315.0,1,94.236,
01/01/2000,01:46:39.38,11.83,-80.28,-990.40,201.25,-761.25,-367.50,1,94.240,
01/01/2000,01:46:39.39,11.96,-80.15,-990.27,113.75,-752.50,-306.25,1,94.244,
01/01/2000,01:46:39.40,11.96,-80.28,-990.27,122.50,-691.25,-411.25,1,94.248,
01/01/2000,01:46:39.41,11.83,-80.15,-990.40,113.75,-682.50,-236.25,1,94.252,
01/01/2000,01:46:39.42,11.83,-80.15,-990.52,96.25,-656.25,-341.25,1,94.256,
01/01/2000,01:46:39.43,11.71,-80.15,-990.64,131.25,-656.25,-323.75,1,94.260,
01/01/2000,01:46:39.45,11.83,-80.28,-990.52,52.50,-630.0,-428.75,1,94.264,
01/01/2000,01:46:39.46,11.96,-80.28,-990.52,192.50,-656.25,-350.0,1,94.268,
01/01/2000,01:46:39.47,11.96,-80.28,-990.64,70.0,-691.25,-323.75,1,94.272,
01/01/2000,01:46:39.48,11.96,-80.28,-990.76,253.75,-726.25,-262.50,1,94.276,
01/01/2000,01:46:39.49,11.83,-80.28,-990.76,201.25,-656.25,-297.50,1,94.280,
01/01/2000,01:46:39.50,11.83,-80.28,-990.76,113.75,-700.0,-280.0,1,94.284,
01/01/2000,01:46:39.51,11.83,-80.40,-990.88,218.75,-726.25,-376.25,1,94.288,
01/01/2000,01:46:39.52,11.96,-80.40,-990.76,113.75,-700.0,-271.25,1,94.292,
01/01/2000,01:46:39.53,12.08,-80.52,-990.76,183.75,-682.50,-297.50,1,94.296,
01/01/2000,01:46:39.54,11.71,-80.52,-990.64,210.0,-612.50,-446.25,1,94.299,
01/01/2000,01:46:39.55,11.59,-80.52,-990.52,157.50,-595.0,-332.50,1,94.303,
01/01/2000,01:46:39.56,11.71,-80.28,-990.52,183.75,-717.50,-411.25,1,94.307,
01/01/2000,01:46:39.57,11.71,-80.28,-990.52,52.50,-621.25,-245.0,1,94.311,
01/01/2000,01:46:39.58,11.59,-80.40,-990.52,122.50,-673.75,-210.0,1,94.251,
01/01/2000,01:46:39.59,11.47,-80.52,-990.64,105.0,-700.0,-411.25,1,94.254,
01/01/2000,01:46:39.60,11.59,-80.40,-990.76,131.25,-708.75,-332.50,1,94.258,
01/01/2000,01:46:39.61,11.71,-80.28,-990.76,166.25,-778.75,-446.25,1,94.262,
01/01/2000,01:46:39.62,11.71,-80.28,-990.88,148.75,-665.0,-227.50,1,94.266,
01/01/2000,01:46:39.63,11.59,-80.28,-990.88,-17.50,-656.25,-420.0,1,94.270,
01/01/2000,01:46:39.64,11.59,-80.40,-990.64,131.25,-735.0,-411.25,1,94.274,
01/01/2000,01:46:39.66,11.96,-80.52,-990.76,157.50,-726.25,-367.50,1,94.278,
01/01/2000,01:46:39.67,11.96,-80.52,-990.64,157.50,-621.25,-341.25,1,94.282,
01/01/2000,01:46:39.68,11.83,-80.52,-990.64,192.50,-735.0,-315.0,1,94.286,
01/01/2000,01:46:39.69,11.59,-80.40,-990.64,148.75,-761.25,-420.0,1,94.290,
01/01/2000,01:46:39.70,11.59,-80.40,-990.76,183.75,-665.0,-315.0,1,94.293,
01/01/2000,01:46:39.71,11.71,-80.52,-991.01,113.75,-612.50,-323.75,1,94.297,
01/01/2000,01:46:39.72,11.71,-80.40,-990.88,218.75,-656.25,-367.50,1,94.301,
01/01/2000,01:46:39.73,11.71,-80.40,-990.88,113.75,-638.75,-411.25,1,94.305,
01/01/2000,01:46:39.74,11.71,-80.28,-990.88,87.50,-673.75,-297.50,1,94.309,
01/01/2000,01:46:39.75,11.71,-80.28,-991.13,245.0,-717.50,-376.25,1,94.313,
01/01/2000,01:46:39.76,11.71,-80.28,-991.13,218.75,-682.50,-271.25,1,94.317,
01/01/2000,01:46:39.77,11.71,-80.28,-991.01,253.75,-647.50,-446.25,1,94.320,
01/01/2000,01:46:39.78,11.59,-80.52,-990.76,175.0,-726.25,-332.50,1,94.261,
01/01/2000,01:46:39.80,12.08,-80.52,-990.52,210.0,-717.50,-175.0,1,94.265,
01/01/2000,01:46:39.81,12.20,-80.40,-990.64,113.75,-822.50,-332.50,1,94.268,
01/01/2000,01:46:39.82,11.71,-80.64,-990.76,113.75,-691.25,-411.25,1,94.272,
01/01/2000,01:46:39.83,11.83,-80.52,-991.01,35.0,-708.75,-455.0,1,94.276,
01/01/2000,01:46:39.84,11.96,-80.52,-991.01,166.25,-665.0,-393.75,1,94.280,
01/01/2000,01:46:39.85,11.96,-80.52,-990.88,113.75,-708.75,-157.50,1,94.284,
01/01/2000,01:46:39.86,11.96,-80.52,-990.76,122.50,-761.25,-367.50,1,94.288,
01/01/2000,01:46:39.87,11.71,-80.64,-990.64,131.25,-708.75,-332.50,1,94.228,
01/01/2000,01:46:39.88,11.71,-80.64,-990.64,166.25,-656.25,-472.50,1,94.232,
01/01/2000,01:46:39.89,11.83,-80.64,-990.88,26.25,-717.50,-385.0,1,94.236,
01/01/2000,01:46:39.90,11.96,-80.40,-990.88,43.75,-735.0,-323.75,1,94.240,
01/01/2000,01:46:39.91,11.96,-80.40,-990.64,140.0,-708.75,-288.75,1,94.244,
01/01/2000,01:46:39.92,11.96,-80.52,-990.52,61.25,-726.25,-332.50,1,94.247,
01/01/2000,01:46:39.93,11.83,-80.76,-990.52,297.50,-700.0,-376.25,1,94.251,
01/01/2000,01:46:39.94,11.96,-80.52,-990.64,236.25,-586.25,-201.25,1,94.255,
01/01/2000,01:46:39.95,11.96,-80.40,-990.64,122.50,-603.75,-411.25,1,94.259,
01/01/2000,01:46:39.96,11.96,-80.28,-990.52,122.50,-743.75,-227.50,1,94.263,
01/01/2000,01:46:39.97,11.96,-80.28,-990.40,105.0,-787.50,-306.25,1,94.267,
01/01/2000,01:46:39.98,11.83,-80.15,-990.64,26.25,-656.25,-385.0,1,94.270,
01/01/2000,01:46:39.99,11.83,-80.28,-990.64,175.0,-743.75,-385.0,1,94.274,
01/01/2000,01:46:40.01,11.83,-80.03,-990.88,96.25,-638.75,-428.75,1,94.278,
01/01/2000,01:46:40.02,11.96,-80.03,-990.88,148.75,-770.0,-253.75,1,94.282,
01/01/2000,01:46:40.03,11.83,-80.03,-990.64,78.75,-717.50,-376.25,1,94.286,
01/01/2000,01:46:40.04,11.71,-80.15,-990.64,113.75,-630.0,-297.50,1,94.290,
01/01/2000,01:46:40.05,11.71,-80.15,-990.64,105.0,-656.25,-350.0,1,94.293,
01/01/2000,01:46:40.06,11.71,-80.28,-990.76,140.0,-700.0,-315.0,1,94.297,
01/01/2000,01:46:40.07,11.83,-80.28,-990.64,140.0,-752.50,-332.50,1,94.301,
01/01/2000,01:46:40.08,11.71,-80.28,-990.52,201.25,-682.50,-393.75,1,94.305,
01/01/2000,01:46:40.09,11.71,-80.28,-990.52,166.25,-630.0,-332.50,1,94.308,
01/01/2000,01:46:40.10,11.71,-80.40,-990.64,236.25,-691.25,-350.0,1,94.312,
01/01/2000,01:46:40.11,11.83,-80.52,-990.88,210.0,-743.75,-350.0,1,94.316,
01/01/2000,01:46:40.12,11.83,-80.40,-990.64,192.50,-673.75,-393.75,1,94.320,
01/01/2000,01:46:40.13,11.83,-80.28,-990.52,148.75,-708.75,-332.50,1,94.323,
01/01/2000,01:46:40.14,11.96,-80.28,-990.52,148.75,-770.0,-341.25,1,94.265,
01/01/2000,01:46:40.15,11.96,-80.15,-990.64,87.50,-647.50,-280.0,1,94.269,
01/01/2000,01:46:40.16,11.96,-80.15,-990.64,105.0,-735.0,-393.75,1,94.273,
01/01/2000,01:46:40.17,11.83,-80.15,-990.64,175.0,-638.75,-280.0,1,94.276,
01/01/2000,01:46:40.18,11.71,-80.15,-990.40,105.0,-647.50,-341.25,1,94.280,
01/01/2000,01:46:40.19,11.96,-80.28,-990.64,157.50,-656.25,-385.0,1,94.284,
01/01/2000,01:46:40.20,11.96,-80.28,-990.76,61.25,-831.25,-280.0,1,94.288,
01/01/2000,01:46:40.22,11.71,-80.28,-990.88,105.0,-700.0,-236.25,1,94.291,
01/01/2000,01:46:40.23,11.71,-80.28,-990.88,35.0,-761.25,-358.75,1,94.295,
01/01/2000,01:46:40.24,11.59,-80.40,-990.76,262.50,-708.75,-455.0,1,94.299,
01/01/2000,01:46:40.25,11.71,-80.15,-990.88,87.50,-700.0,-402.50,1,94.303,
01/01/2000,01:46:40.26,11.71,-80.28,-990.88,192.50,-665.0,-306.25,1,94.306,
01/01/2000,01:46:40.27,11.71,-80.28,-990.64,175.0,-638.75,-306.25,1,94.310,
01/01/2000,01:46:40.28,11.71,-80.40,-990.52,122.50,-717.50,-323.75,1,94.314,
01/01/2000,01:46:40.29,11.71,-80.28,-990.64,175.0,-691.25,-332.50,1,94.317,
01/01/2000,01:46:40.30,11.71,-80.28,-990.52,192.50,-638.75,-376.25,1,94.321,
01/01/2000,01:46:40.32,11.71,-80.03,-990.52,166.25,-717.50,-245.0,1,94.263,
01/01/2000,01:46:40.33,11.71,-80.03,-990.40,96.25,-700.0,-297.50,1,94.267,
01/01/2000,01:46:40.34,11.83,-80.15,-990.40,157.50,-560.0,-455.0,1,94.271,
01/01/2000,01:46:40.35,11.83,-80.15,-990.64,113.75,-691.25,-323.75,1,94.275,
01/01/2000,01:46:40.36,11.96,-80.15,-990.64,70.0,-752.50,-350.0,1,94.278,
01/01/2000,01:46:40.37,11.96,-80.15,-990.52,26.25,-708.75,-411.25,1,94.282,
01/01/2000,01:46:40.38,11.96,-80.15,-990.64,105.0,-656.25,-385.0,1,94.286,
01/01/2000,01:46:40.39,12.08,-80.15,-990.76,210.0,-656.25,-218.75,1,94.289,
01/01/2000,01:46:40.40,11.96,-80.40,-990.76,157.50,-630.0,-393.75,1,94.293,
01/01/2000,01:46:40.41,11.96,-80.40,-990.88,175.0,-630.0,-288.75,1,94.297,
01/01/2000,01:46:40.42,12.08,-80.52,-990.88,166.25,-638.75,-446.25,1,94.301,
01/01/2000,01:46:40.43,12.08,-80.40,-990.64,148.75,-700.0,-315.0,1,94.304,
01/01/2000,01:46:40.44,11.96,-80.40,-990.64,148.75,-586.25,-376.25,1,94.308,
01/01/2000,01:46:40.45,11.96,-80.28,-990.64,201.25,-726.25,-350.0,1,94.312,
01/01/2000,01:46:40.46,11.96,-80.40,-990.52,227.50,-691.25,-420.0,1,94.315,
01/01/2000,01:46:40.47,12.08,-80.40,-990.40,131.25,-735.0,-236.25,1,94.319,
01/01/2000,01:46:40.48,11.96,-80.40,-990.40,218.75,-726.25,-385.0,1,94.323,
01/01/2000,01:46:40.49,11.96,-80.28,-990.52,271.25,-673.75,-323.75,1,94.326,
01/01/2000,01:46:40.50,11.96,-80.28,-990.64,70.0,-752.50,-297.50,1,94.269,
01/01/2000,01:46:40.51,11.83,-80.28,-990.76,105.0,-638.75,-350.0,1,94.273,
01/01/2000,01:46:40.52,12.08,-80.52,-990.76,157.50,-673.75,-341.25,1,94.277,
01/01/2000,01:46:40.53,12.20,-80.52,-990.64,157.50,-717.50,-376.25,1,94.280,
01/01/2000,01:46:40.54,12.20,-80.64,-990.40,218.75,-656.25,-376.25,1,94.284,
01/01/2000,01:46:40.55,12.20,-80.52,-990.40,122.50,-726.25,-350.0,1,94.288,
01/01/2000,01:46:40.57,12.08,-80.28,-990.64,131.25,-691.25,-376.25,1,94.291,
01/01/2000,01:46:40.58,12.08,-80.28,-990.64,122.50,-673.75,-332.50,1,94.295,
01/01/2000,01:46:40.59,11.96,-80.28,-990.76,87.50,-726.25,-315.0,1,94.299,
01/01/2000,01:46:40.60,11.83,-80.52,-990.64,166.25,-647.50,-332.50,1,94.302,
01/01/2000,01:46:40.61,12.08,-80.52,-990.52,201.25,-708.75,-350.0,1,94.306,
01/01/2000,01:46:40.62,11.96,-80.52,-990.52,175.0,-630.0,-341.25,1,94.309,
01/01/2000,01:46:40.63,11.71,-80.40,-990.76,166.25,-735.0,-350.0,1,94.313,
01/01/2000,01:46:40.64,11.71,-80.28,-990.76,96.25,-673.75,-385.0,1,94.257,
01/01/2000,01:46:40.65,11.71,-80.28,-990.64,157.50,-735.0,-385.0,1,94.260,
01/01/2000,01:46:40.66,11.71,-80.52,-990.40,166.25,-691.25,-323.75,1,94.264,
01/01/2000,01:46:40.67,11.71,-80.52,-990.40,131.25,-752.50,-358.75,1,94.268,
01/01/2000,01:46:40.68,11.59,-80.76,-990.64,131.25,-735.0,-411.25,1,94.271,
01/01/2000,01:46:40.69,11.47,-80.40,-990.64,70.0,-595.0,-245.0,1,94.275,
01/01/2000,01:46:40.70,11.59,-80.28,-990.64,227.50,-735.0,-393.75,1,94.278,
01/01/2000,01:46:40.72,11.59,-80.15,-990.64,113.75,-673.75,-280.0,1,94.282,
01/01/2000,01:46:40.73,11.71,-80.28,-990.64,183.75,-603.75,-376.25,1,94.286,
01/01/2000,01:46:40.74,11.96,-80.52,-990.64,70.0,-708.75,-315.0,1,94.289,
01/01/2000,01:46:40.75,11.96,-80.52,-990.52,306.25,-656.25,-437.50,1,94.293,
01/01/2000,01:46:40.76,11.83,-80.52,-990.52,166.25,-708.75,-411.25,1,94.297,
01/01/2000,01:46:40.77,11.71,-80.28,-990.52,183.75,-656.25,-341.25,1,94.300,
01/01/2000,01:46:40.78,11.59,-80.28,-990.64,253.75,-603.75,-183.75,1,94.304,
01/01/2000,01:46:40.79,11.59,-80.15,-990.64,227.50,-656.25,-376.25,1,94.307,
01/01/2000,01:46:40.80,11.59,-80.15,-990.40,227.50,-770.0,-350.0,1,94.311,
01/01/2000,01:46:40.81,12.08,-80.03,-990.15,105.0,-752.50,-280.0,1,94.315,
01/01/2000,01:46:40.82,12.20,-80.40,-990.03,253.75,-656.25,-350.0,1,94.259,
01/01/2000,01:46:40.84,11.71,-80.52,-990.40,175.0,-717.50,-323.75,1,94.262,
01/01/2000,01:46:40.85,11.47,-80.52,-990.76,131.25,-621.25,-446.25,1,94.266,
01/01/2000,01:46:40.86,11.83,-79.91,-991.13,96.25,-665.0,-411.25,1,94.270,
01/01/2000,01:46:40.87,12.08,-79.67,-990.88,105.0,-533.75,-271.25,1,94.273,
01/01/2000,01:46:40.88,12.20,-79.91,-990.27,105.0,-708.75,-157.50,1,94.277,
01/01/2000,01:46:40.89,12.08,-80.64,-989.91,218.75,-665.0,-411.25,1,94.280,
01/01/2000,01:46:40.90,11.96,-80.89,-990.27,131.25,-778.75,-516.25,1,94.284,
01/01/2000,01:46:40.91,11.96,-80.76,-990.76,227.50,-735.0,-533.75,1,94.288,
01/01/2000,01:46:40.92,11.96,-80.03,-991.01,-96.25,-761.25,-341.25,1,94.291,
01/01/2000,01:46:40.93,11.96,-79.67,-990.64,105.0,-735.0,-332.50,1,94.295,
01/01/2000,01:46:40.94,11.96,-79.79,-990.27,218.75,-717.50,-280.0,1,94.298,
01/01/2000,01:46:40.95,11.96,-80.15,-990.15,96.25,-612.50,-385.0,1,94.302,
01/01/2000,01:46:40.96,11.96,-80.76,-990.27,166.25,-638.75,-420.0,1,94.305,
01/01/2000,01:46:40.97,11.96,-80.89,-990.64,43.75,-700.0,-507.50,1,94.309,
01/01/2000,01:46:40.98,12.08,-80.40,-990.64,8.75,-586.25,-350.0,1,94.313,
01/01/2000,01:46:40.99,11.96,-80.03,-990.27,288.75,-682.50,-350.0,1,94.316,
01/01/2000,01:46:41.00,11.83,-79.79,-990.03,210.0,-761.25,-288.75,1,94.320,
01/01/2000,01:46:41.01,11.83,-80.03,-990.40,131.25,-673.75,-280.0,1,94.323,
01/01/2000,01:46:41.02,11.96,-80.15,-990.64,140.0,-708.75,-253.75,1,94.327,
01/01/2000,01:46:41.03,12.08,-80.40,-990.64,227.50,-708.75,-472.50,1,94.330,
01/01/2000,01:46:41.04,12.08,-80.40,-990.52,253.75,-682.50,-420.0,1,94.334,
01/01/2000,01:46:41.05,12.08,-80.03,-990.40,280.0,-813.75,-288.75,1,94.337,
01/01/2000,01:46:41.06,11.83,-79.79,-990.64,96.25,-761.25,-315.0,1,94.282,
01/01/2000,01:46:41.07,11.83,-79.79,-990.88,175.0,-743.75,-253.75,1,94.286,
01/01/2000,01:46:41.08,11.83,-80.15,-991.01,183.75,-682.50,-428.75,1,94.289,
01/01/2000,01:46:41.09,11.83,-80.40,-990.88,96.25,-586.25,-481.25,1,94.293,
01/01/2000,01:46:41.10,11.96,-80.28,-990.40,280.0,-752.50,-323.75,1,94.296,
01/01/2000,01:46:41.11,11.96,-80.28,-990.40,218.75,-708.75,-463.75,1,94.300,
01/01/2000,01:46:41.13,11.71,-80.40,-990.88,306.25,-665.0,-280.0,1,94.303,
01/01/2000,01:46:41.14,11.71,-80.28,-991.01,35.0,-656.25,-367.50,1,94.307,
01/01/2000,01:46:41.15,11.71,-80.15,-990.76,271.25,-630.0,-350.0,1,94.310,
01/01/2000,01:46:41.16,11.71,-80.03,-990.40,253.75,-533.75,-306.25,1,94.314,
01/01/2000,01:46:41.17,11.71,-80.28,-990.15,192.50,-630.0,-472.50,1,94.317,
01/01/2000,01:46:41.18,11.83,-80.52,-990.27,140.0,-621.25,-306.25,1,94.321,
01/01/2000,01:46:41.19,11.83,-80.76,-990.52,157.50,-682.50,-428.75,1,94.324,
01/01/2000,01:46:41.20,11.71,-80.52,-990.52,70.0,-717.50,-332.50,1,94.270,
01/01/2000,01:46:41.21,11.71,-80.28,-990.40,175.0,-743.75,-332.50,1,94.331,
01/01/2000,01:46:41.22,11.71,-80.15,-990.03,166.25,-682.50,-236.25,1,94.277,
01/01/2000,01:46:41.23,11.83,-80.40,-990.15,315.0,-682.50,-332.50,1,94.280,
01/01/2000,01:46:41.24,11.71,-80.52,-990.40,166.25,-770.0,-420.0,1,94.284,
01/01/2000,01:46:41.25,11.71,-80.52,-990.64,192.50,-665.0,-341.25,1,94.287,
01/01/2000,01:46:41.26,11.71,-80.40,-990.64,253.75,-708.75,-315.0,1,94.291,
01/01/2000,01:46:41.28,11.83,-80.03,-990.64,262.50,-752.50,-350.0,1,94.294,
01/01/2000,01:46:41.29,11.96,-80.03,-990.64,262.50,-743.75,-236.25,1,94.298,
01/01/2000,01:46:41.30,11.96,-80.15,-990.64,201.25,-621.25,-245.0,1,94.301,
01/01/2000,01:46:41.31,11.83,-80.40,-990.64,105.0,-708.75,-350.0,1,94.305,
01/01/2000,01:46:41.32,11.96,-80.40,-990.64,227.50,-743.75,-323.75,1,94.308,
01/01/2000,01:46:41.33,11.71,-80.15,-990.64,201.25,-770.0,-350.0,1,94.312,
01/01/2000,01:46:41.34,11.71,-79.91,-990.52,17.50,-612.50,-210.0,1,94.258,
01/01/2000,01:46:41.35,11.71,-80.03,-990.64,227.50,-656.25,-437.50,1,94.261,
01/01/2000,01:46:41.36,11.83,-80.40,-990.40,175.0,-638.75,-306.25,1,94.265,
01/01/2000,01:46:41.37,11.96,-80.40,-990.15,157.50,-682.50,-481.25,1,94.268,
01/01/2000,01:46:41.38,11.96,-80.28,-989.91,236.25,-691.25,-280.0,1,94.272,
01/01/2000,01:46:41.39,12.08,-80.15,-990.03,43.75,-682.50,-411.25,1,94.275,
01/01/2000,01:46:41.40,12.08,-80.03,-990.27,96.25,-560.0,-8.75,1,94.279,
01/01/2000,01:46:41.41,11.71,-80.15,-990.40,113.75,-612.50,-665.0,1,94.282,
01/01/2000,01:46:41.42,11.59,-80.40,-990.27,271.25,-630.0,-288.75,1,94.286,
01/01/2000,01:46:41.43,11.83,-80.40,-990.15,236.25,-708.75,-638.75,1,94.289,
01/01/2000,01:46:41.44,11.96,-80.28,-989.91,87.50,-691.25,-175.0,1,94.293,
01/01/2000,01:46:41.46,11.96,-80.28,-990.03,306.25,-647.50,-166.25,1,94.296,
01/01/2000,01:46:41.46,11.83,-80.40,-990.15,113.75,-726.25,-297.50,1,94.300,
01/01/2000,01:46:41.48,11.83,-80.52,-990.27,140.0,-726.25,-595.0,1,94.303,
01/01/2000,01:46:41.49,11.96,-80.28,-990.27,183.75,-656.25,-420.0,1,94.306,
01/01/2000,01:46:41.50,11.96,-80.40,-990.15,166.25,-708.75,-367.50,1,94.310,
01/01/2000,01:46:41.51,11.83,-80.40,-990.27,227.50,-682.50,-288.75,1,94.313,
01/01/2000,01:46:41.52,11.83,-80.52,-990.15,227.50,-665.0,-393.75,1,94.317,
01/01/2000,01:46:41.53,11.83,-80.52,-990.40,157.50,-665.0,-280.0,1,94.320,
01/01/2000,01:46:41.54,11.71,-80.28,-990.64,122.50,-656.25,-376.25,1,94.324,
01/01/2000,01:46:41.55,11.96,-80.03,-990.52,262.50,-603.75,-271.25,1,94.270,
01/01/2000,01:46:41.56,11.83,-80.03,-990.15,227.50,-638.75,-227.50,1,94.274,
01/01/2000,01:46:41.57,11.71,-80.28,-990.27,78.75,-603.75,-245.0,1,94.277,
01/01/2000,01:46:41.58,11.71,-80.28,-990.52,140.0,-796.25,-455.0,1,94.281,
01/01/2000,01:46:41.59,11.83,-80.28,-990.64,87.50,-647.50,-288.75,1,94.284,
01/01/2000,01:46:41.60,11.71,-80.28,-990.64,148.75,-700.0,-385.0,1,94.287,
01/01/2000,01:46:41.61,11.71,-80.03,-990.27,183.75,-656.25,-341.25,1,94.291,
01/01/2000,01:46:41.63,11.96,-80.03,-990.15,218.75,-700.0,-385.0,1,94.294,
01/01/2000,01:46:41.64,11.96,-80.28,-990.27,218.75,-726.25,-350.0,1,94.298,
01/01/2000,01:46:41.65,11.96,-80.52,-990.52,105.0,-708.75,-306.25,1,94.301,
01/01/2000,01:46:41.66,11.83,-80.52,-990.52,96.25,-673.75,-367.50,1,94.305,
01/01/2000,01:46:41.67,11.83,-80.28,-990.40,113.75,-691.25,-376.25,1,94.308,
01/01/2000,01:46:41.68,11.71,-80.28,-990.40,271.25,-560.0,-288.75,1,94.311,
01/01/2000,01:46:41.69,11.96,-80.03,-990.52,105.0,-752.50,-210.0,1,94.315,
01/01/2000,01:46:41.70,11.96,-80.28,-990.52,183.75,-770.0,-385.0,1,94.318,
01/01/2000,01:46:41.71,11.96,-80.28,-990.52,166.25,-612.50,-393.75,1,94.322,
