rtcDate,rtcTime,aX,aY,aZ,gX,gY,gZ,dataRdy,output_Hz,
01/01/2000,00:55:46.84,19.15,-48.31,-854.37,166.25,-673.75,-341.25,1,0.0,
01/01/2000,00:55:46.86,19.76,-50.02,-879.13,288.75,-638.75,-332.50,1,100.0,
01/01/2000,00:55:46.87,20.25,-51.00,-899.51,210.0,-708.75,-297.50,1,100.0,
01/01/2000,00:55:46.88,20.74,-51.48,-910.85,210.0,-691.25,-350.0,1,100.0,
01/01/2000,00:55:46.89,20.74,-52.22,-920.61,105.0,-700.0,-253.75,1,100.0,
01/01/2000,00:55:46.90,20.98,-52.70,-929.40,105.0,-656.25,-332.50,1,100.0,
01/01/2000,00:55:46.91,20.98,-53.44,-940.74,166.25,-752.50,-315.0,1,100.0,
01/01/2000,00:55:46.92,21.23,-53.80,-947.21,105.0,-743.75,-367.50,1,100.0,
01/01/2000,00:55:46.93,21.47,-54.05,-953.06,271.25,-665.0,-297.50,1,100.0,
01/01/2000,00:55:46.94,21.59,-54.41,-957.94,113.75,-708.75,-306.25,1,100.0,
01/01/2000,00:55:46.95,21.84,-54.90,-964.17,210.0,-787.50,-437.50,1,100.0,
01/01/2000,00:55:46.96,21.96,-54.90,-967.70,192.50,-665.0,-341.25,1,100.0,
01/01/2000,00:55:46.97,22.08,-55.02,-971.00,166.25,-691.25,-262.50,1,100.0,
01/01/2000,00:55:46.98,22.20,-55.14,-975.27,218.75,-735.0,-350.0,1,93.333,
01/01/2000,00:55:46.99,22.20,-55.27,-977.34,236.25,-682.50,-288.75,1,93.750,
01/01/2000,00:55:47.00,22.20,-55.39,-979.17,341.25,-761.25,-280.0,1,94.118,
01/01/2000,00:55:47.01,22.20,-55.63,-980.88,201.25,-691.25,-341.25,1,94.444,
01/01/2000,00:55:47.02,22.20,-55.63,-982.95,175.0,-708.75,-455.0,1,94.737,
01/01/2000,00:55:47.03,22.33,-55.75,-984.54,113.75,-778.75,-411.25,1,95.0,
01/01/2000,00:55:47.04,22.33,-55.75,-985.64,253.75,-761.25,-358.75,1,95.238,
01/01/2000,00:55:47.05,22.20,-55.63,-986.49,-8.75,-770.0,-367.50,1,95.455,
01/01/2000,00:55:47.06,22.33,-55.63,-987.35,96.25,-761.25,-341.25,1,95.652,
01/01/2000,00:55:47.07,22.57,-55.75,-987.96,192.50,-735.0,-420.0,1,95.833,
01/01/2000,00:55:47.08,22.57,-55.88,-988.44,227.50,-717.50,-385.0,1,96.0,
01/01/2000,00:55:47.09,22.57,-56.00,-989.18,157.50,-673.75,-385.0,1,96.154,
01/01/2000,00:55:47.10,22.45,-56.00,-990.03,227.50,-735.0,-350.0,1,96.296,
01/01/2000,00:55:47.11,22.57,-55.88,-990.40,131.25,-787.50,-402.50,1,96.429,
01/01/2000,00:55:47.13,22.69,-55.63,-991.13,210.0,-761.25,-350.0,1,96.552,
01/01/2000,00:55:47.14,22.69,-55.88,-991.37,227.50,-700.0,-306.25,1,96.667,
01/01/2000,00:55:47.15,22.69,-55.88,-991.49,105.0,-682.50,-341.25,1,96.774,
01/01/2000,00:55:47.16,22.57,-55.88,-991.62,210.0,-717.50,-420.0,1,96.875,
01/01/2000,00:55:47.17,22.69,-55.63,-991.98,183.75,-700.0,-297.50,1,96.970,
01/01/2000,00:55:47.18,22.69,-55.75,-992.23,201.25,-770.0,-280.0,1,97.059,
01/01/2000,00:55:47.19,22.57,-55.88,-992.47,61.25,-612.50,-262.50,1,97.143,
01/01/2000,00:55:47.20,22.45,-56.00,-992.47,148.75,-647.50,-385.0,1,94.595,
01/01/2000,00:55:47.21,22.57,-56.00,-992.47,227.50,-630.0,-315.0,1,97.297,
01/01/2000,00:55:47.22,22.81,-55.88,-992.59,61.25,-691.25,-376.25,1,94.872,
01/01/2000,00:55:47.23,22.81,-56.00,-992.71,201.25,-656.25,-358.75,1,95.0,
01/01/2000,00:55:47.24,22.45,-56.12,-992.71,210.0,-621.25,-323.75,1,95.122,
01/01/2000,00:55:47.25,22.20,-56.24,-992.71,253.75,-761.25,-385.0,1,95.238,
01/01/2000,00:55:47.27,22.45,-56.24,-992.84,218.75,-743.75,-341.25,1,95.349,
01/01/2000,00:55:47.28,22.69,-56.24,-992.96,306.25,-656.25,-323.75,1,95.455,
01/01/2000,00:55:47.29,22.69,-56.36,-992.71,35.0,-717.50,-323.75,1,95.556,
01/01/2000,00:55:47.30,22.45,-56.36,-992.35,131.25,-726.25,-245.0,1,95.652,
01/01/2000,00:55:47.31,22.69,-56.24,-992.47,61.25,-682.50,-490.0,1,95.745,
01/01/2000,00:55:47.32,22.69,-56.12,-992.84,175.0,-691.25,-332.50,1,95.833,
01/01/2000,00:55:47.33,22.94,-55.88,-992.96,105.0,-726.25,-262.50,1,95.918,
01/01/2000,00:55:47.34,22.81,-56.12,-992.96,26.25,-621.25,-218.75,1,96.0,
01/01/2000,00:55:47.35,22.45,-56.36,-992.84,166.25,-708.75,-481.25,1,96.078,
01/01/2000,00:55:47.36,22.69,-56.24,-993.20,122.50,-717.50,-350.0,1,94.340,
01/01/2000,00:55:47.37,22.69,-56.24,-993.32,166.25,-691.25,-341.25,1,94.444,
01/01/2000,00:55:47.39,22.69,-56.12,-993.32,78.75,-638.75,-350.0,1,94.545,
01/01/2000,00:55:47.40,22.33,-56.12,-993.20,367.50,-910.0,-315.0,1,94.643,
01/01/2000,00:55:47.41,22.33,-56.00,-993.20,192.50,-787.50,-393.75,1,94.737,
01/01/2000,00:55:47.42,22.45,-56.12,-993.20,201.25,-595.0,-280.0,1,94.828,
01/01/2000,00:55:47.43,22.45,-56.36,-993.32,70.0,-673.75,-315.0,1,94.915,
01/01/2000,00:55:47.44,22.20,-56.49,-993.32,105.0,-778.75,-367.50,1,95.0,
01/01/2000,00:55:47.45,22.20,-56.24,-993.08,140.0,-743.75,-393.75,1,95.082,
01/01/2000,00:55:47.46,22.08,-56.24,-992.96,113.75,-735.0,-472.50,1,95.161,
01/01/2000,00:55:47.47,22.45,-56.00,-993.20,35.0,-700.0,-227.50,1,95.238,
01/01/2000,00:55:47.48,21.47,-56.49,-993.57,175.0,-638.75,-105.0,1,95.313,
01/01/2000,00:55:47.49,21.72,-56.36,-993.81,262.50,-656.25,-647.50,1,95.385,
01/01/2000,00:55:47.50,22.57,-56.00,-993.57,-8.75,-691.25,-525.0,1,95.455,
01/01/2000,00:55:47.51,22.57,-56.00,-992.84,157.50,-700.0,-35.0,1,95.522,
01/01/2000,00:55:47.52,21.96,-56.12,-992.84,43.75,-743.75,-8.75,1,95.588,
01/01/2000,00:55:47.53,21.47,-56.61,-993.32,280.0,-708.75,-393.75,1,95.652,
01/01/2000,00:55:47.54,21.96,-56.12,-993.57,148.75,-691.25,-761.25,1,95.714,
01/01/2000,00:55:47.55,22.33,-55.88,-993.57,157.50,-603.75,-87.50,1,94.444,
01/01/2000,00:55:47.56,22.20,-55.88,-993.08,166.25,-787.50,-131.25,1,94.521,
01/01/2000,00:55:47.57,22.08,-56.49,-992.47,26.25,-638.75,-507.50,1,94.595,
01/01/2000,00:55:47.58,21.96,-56.61,-992.84,306.25,-647.50,-332.50,1,94.667,
01/01/2000,00:55:47.59,22.20,-56.49,-993.32,26.25,-656.25,-350.0,1,94.737,
01/01/2000,00:55:47.60,22.20,-56.61,-993.57,288.75,-638.75,-358.75,1,94.805,
01/01/2000,00:55:47.62,22.20,-56.12,-993.08,122.50,-761.25,-271.25,1,94.872,
01/01/2000,00:55:47.63,21.96,-56.24,-992.59,218.75,-708.75,-236.25,1,94.937,
01/01/2000,00:55:47.64,21.96,-56.36,-992.84,78.75,-682.50,-358.75,1,95.0,
01/01/2000,00:55:47.65,22.08,-56.49,-993.32,201.25,-665.0,-306.25,1,95.062,
01/01/2000,00:55:47.66,22.20,-56.49,-993.45,201.25,-735.0,-288.75,1,95.122,
01/01/2000,00:55:47.67,21.96,-56.49,-993.08,271.25,-752.50,-437.50,1,95.181,
01/01/2000,00:55:47.68,21.84,-56.00,-992.59,113.75,-840.0,-280.0,1,95.238,
01/01/2000,00:55:47.69,22.08,-56.12,-992.71,210.0,-743.75,-358.75,1,95.294,
01/01/2000,00:55:47.70,22.08,-56.36,-992.96,78.75,-761.25,-323.75,1,95.349,
01/01/2000,00:55:47.71,22.20,-56.61,-993.08,183.75,-647.50,-385.0,1,95.402,
01/01/2000,00:55:47.72,22.20,-56.61,-992.96,87.50,-770.0,-367.50,1,95.455,
01/01/2000,00:55:47.73,22.08,-56.24,-992.59,166.25,-682.50,-297.50,1,95.506,
01/01/2000,00:55:47.74,21.96,-56.12,-992.59,140.0,-752.50,-323.75,1,95.556,
01/01/2000,00:55:47.75,22.20,-56.00,-992.84,192.50,-682.50,-253.75,1,95.604,
01/01/2000,00:55:47.76,22.33,-56.12,-993.08,201.25,-665.0,-350.0,1,94.624,
01/01/2000,00:55:47.77,22.33,-56.36,-993.08,148.75,-691.25,-306.25,1,94.681,
01/01/2000,00:55:47.78,22.08,-56.36,-992.84,87.50,-743.75,-367.50,1,94.737,
01/01/2000,00:55:47.79,22.20,-56.24,-992.71,148.75,-752.50,-332.50,1,94.792,
01/01/2000,00:55:47.80,22.45,-56.12,-993.08,87.50,-822.50,-210.0,1,94.845,
01/01/2000,00:55:47.81,22.45,-56.36,-993.20,122.50,-595.0,-262.50,1,94.898,
01/01/2000,00:55:47.83,22.45,-56.36,-993.20,192.50,-638.75,-297.50,1,94.949,
01/01/2000,00:55:47.84,22.45,-56.36,-993.08,227.50,-743.75,-393.75,1,95.0,
01/01/2000,00:55:47.85,22.33,-56.36,-992.84,183.75,-682.50,-315.0,1,95.050,
01/01/2000,00:55:47.86,22.33,-56.36,-993.08,78.75,-665.0,-271.25,1,95.098,
01/01/2000,00:55:47.87,22.33,-56.24,-993.32,70.0,-691.25,-367.50,1,94.231,
01/01/2000,00:55:47.88,22.20,-56.36,-993.45,157.50,-691.25,-271.25,1,94.286,
01/01/2000,00:55:47.89,22.20,-56.49,-993.32,26.25,-717.50,-393.75,1,94.340,
01/01/2000,00:55:47.90,22.20,-56.36,-993.20,96.25,-770.0,-341.25,1,94.393,
01/01/2000,00:55:47.91,22.33,-56.36,-993.20,78.75,-656.25,-227.50,1,94.444,
01/01/2000,00:55:47.92,22.20,-56.36,-993.20,183.75,-656.25,-402.50,1,94.495,
01/01/2000,00:55:47.93,22.45,-56.36,-993.32,61.25,-717.50,-376.25,1,94.545,
01/01/2000,00:55:47.94,22.45,-56.36,-993.32,166.25,-638.75,-385.0,1,94.595,
01/01/2000,00:55:47.96,22.45,-56.36,-993.20,131.25,-682.50,-280.0,1,94.643,
01/01/2000,00:55:47.96,22.33,-56.49,-993.08,192.50,-621.25,-393.75,1,94.690,
01/01/2000,00:55:47.98,22.33,-56.36,-993.08,227.50,-612.50,-341.25,1,94.737,
01/01/2000,00:55:47.99,22.33,-56.36,-993.08,183.75,-673.75,-367.50,1,94.783,
01/01/2000,00:55:48.00,22.20,-56.36,-993.32,140.0,-735.0,-367.50,1,94.828,
01/01/2000,00:55:48.01,22.20,-56.36,-993.32,70.0,-761.25,-315.0,1,94.872,
01/01/2000,00:55:48.02,22.20,-56.36,-992.96,201.25,-586.25,-280.0,1,94.915,
01/01/2000,00:55:48.03,22.33,-56.36,-993.08,218.75,-682.50,-350.0,1,94.958,
01/01/2000,00:55:48.04,22.20,-56.36,-993.32,157.50,-665.0,-323.75,1,95.0,
01/01/2000,00:55:48.05,22.20,-56.36,-993.45,192.50,-761.25,-420.0,1,95.041,
01/01/2000,00:55:48.06,22.20,-56.12,-993.57,105.0,-752.50,-236.25,1,95.082,
01/01/2000,00:55:48.07,22.33,-56.12,-993.69,210.0,-743.75,-341.25,1,95.122,
01/01/2000,00:55:48.08,22.45,-56.12,-993.57,61.25,-822.50,-245.0,1,95.161,
01/01/2000,00:55:48.09,22.45,-56.36,-993.32,253.75,-700.0,-315.0,1,95.200,
01/01/2000,00:55:48.10,22.33,-56.36,-993.32,201.25,-770.0,-315.0,1,95.238,
01/01/2000,00:55:48.11,22.33,-56.24,-993.20,175.0,-682.50,-341.25,1,94.531,
01/01/2000,00:55:48.12,22.33,-56.12,-993.32,245.0,-656.25,-280.0,1,94.574,
01/01/2000,00:55:48.13,22.20,-56.12,-993.32,61.25,-743.75,-350.0,1,94.615,
01/01/2000,00:55:48.14,22.20,-56.12,-993.32,166.25,-726.25,-323.75,1,94.656,
01/01/2000,00:55:48.15,22.45,-56.36,-993.20,175.0,-682.50,-367.50,1,94.697,
01/01/2000,00:55:48.16,22.45,-56.49,-993.20,192.50,-665.0,-332.50,1,94.737,
01/01/2000,00:55:48.17,22.45,-56.36,-993.20,236.25,-700.0,-385.0,1,94.776,
01/01/2000,00:55:48.19,22.45,-56.12,-993.32,148.75,-647.50,-262.50,1,94.815,
01/01/2000,00:55:48.20,22.45,-56.00,-993.32,140.0,-752.50,-288.75,1,94.853,
01/01/2000,00:55:48.21,22.57,-56.12,-993.32,280.0,-691.25,-341.25,1,94.891,
01/01/2000,00:55:48.22,22.45,-56.36,-993.20,122.50,-691.25,-402.50,1,94.928,
01/01/2000,00:55:48.23,22.57,-56.49,-993.08,131.25,-682.50,-332.50,1,94.964,
01/01/2000,00:55:48.24,22.69,-56.61,-993.08,113.75,-778.75,-297.50,1,95.0,
01/01/2000,00:55:48.25,22.57,-56.36,-993.32,70.0,-638.75,-271.25,1,95.035,
01/01/2000,00:55:48.26,22.45,-56.24,-993.32,96.25,-752.50,-306.25,1,95.070,
01/01/2000,00:55:48.27,22.57,-56.24,-993.08,87.50,-796.25,-376.25,1,95.105,
01/01/2000,00:55:48.28,22.45,-56.24,-993.08,218.75,-691.25,-472.50,1,94.483,
01/01/2000,00:55:48.29,22.45,-56.36,-993.08,245.0,-761.25,-332.50,1,95.172,
01/01/2000,00:55:48.30,22.33,-56.61,-993.20,140.0,-673.75,-420.0,1,94.558,
01/01/2000,00:55:48.31,22.33,-56.61,-993.32,148.75,-796.25,-385.0,1,94.595,
01/01/2000,00:55:48.33,22.33,-56.61,-993.32,210.0,-630.0,-411.25,1,94.631,
01/01/2000,00:55:48.34,22.20,-56.61,-993.32,245.0,-708.75,-315.0,1,94.667,
01/01/2000,00:55:48.35,22.20,-56.49,-993.08,35.0,-778.75,-271.25,1,94.702,
01/01/2000,00:55:48.36,22.33,-56.49,-992.96,192.50,-735.0,-428.75,1,94.737,
01/01/2000,00:55:48.37,21.84,-56.49,-993.20,166.25,-630.0,-323.75,1,94.771,
01/01/2000,00:55:48.38,22.20,-56.36,-993.20,253.75,-647.50,-498.75,1,94.805,
01/01/2000,00:55:48.39,23.06,-56.12,-992.84,157.50,-831.25,-157.50,1,94.839,
01/01/2000,00:55:48.40,22.81,-56.61,-992.59,26.25,-770.0,183.75,1,94.268,
01/01/2000,00:55:48.41,21.84,-56.97,-992.96,113.75,-761.25,26.25,1,94.304,
01/01/2000,00:55:48.42,21.72,-56.85,-993.32,87.50,-630.0,-936.25,1,94.340,
01/01/2000,00:55:48.43,22.57,-56.24,-993.57,157.50,-682.50,-875.0,1,94.375,
01/01/2000,00:55:48.44,22.94,-55.63,-993.45,43.75,-752.50,148.75,1,94.410,
01/01/2000,00:55:48.45,22.45,-56.00,-992.96,218.75,-603.75,516.25,1,94.444,
01/01/2000,00:55:48.46,22.08,-56.49,-992.71,157.50,-682.50,-691.25,1,94.479,
01/01/2000,00:55:48.47,22.08,-56.85,-993.20,218.75,-665.0,-971.25,1,94.512,
01/01/2000,00:55:48.48,22.45,-56.49,-993.57,227.50,-761.25,-533.75,1,94.545,
01/01/2000,00:55:48.49,22.45,-56.12,-993.57,140.0,-743.75,-70.0,1,94.578,
01/01/2000,00:55:48.50,22.45,-55.88,-992.96,113.75,-673.75,-227.50,1,94.611,
01/01/2000,00:55:48.51,22.08,-55.88,-992.47,175.0,-726.25,-341.25,1,94.643,
01/01/2000,00:55:48.52,22.20,-56.36,-992.84,192.50,-647.50,-306.25,1,94.675,
01/01/2000,00:55:48.54,22.45,-56.49,-993.20,210.0,-656.25,-367.50,1,94.706,
01/01/2000,00:55:48.55,22.94,-56.49,-993.45,280.0,-682.50,-236.25,1,94.737,
01/01/2000,00:55:48.56,22.45,-56.36,-992.84,192.50,-673.75,-306.25,1,94.767,
01/01/2000,00:55:48.57,22.20,-56.24,-992.35,157.50,-787.50,-323.75,1,94.798,
01/01/2000,00:55:48.58,22.20,-56.24,-992.47,210.0,-656.25,-315.0,1,94.828,
01/01/2000,00:55:48.59,22.45,-56.24,-992.84,183.75,-665.0,-367.50,1,94.857,
01/01/2000,00:55:48.60,22.57,-56.36,-993.20,78.75,-752.50,-245.0,1,94.886,
01/01/2000,00:55:48.61,22.45,-56.61,-992.71,140.0,-726.25,-393.75,1,94.915,
01/01/2000,00:55:48.62,22.08,-56.36,-992.35,131.25,-656.25,-367.50,1,94.944,
01/01/2000,00:55:48.63,22.08,-56.24,-992.47,236.25,-778.75,-332.50,1,94.972,
01/01/2000,00:55:48.64,22.20,-56.24,-992.96,78.75,-700.0,-323.75,1,95.0,
01/01/2000,00:55:48.65,22.57,-56.24,-993.32,140.0,-673.75,-192.50,1,95.028,
01/01/2000,00:55:48.66,22.33,-56.61,-992.96,78.75,-735.0,-288.75,1,95.055,
01/01/2000,00:55:48.67,21.96,-56.61,-992.35,148.75,-691.25,-411.25,1,94.565,
01/01/2000,00:55:48.68,22.08,-56.36,-992.59,96.25,-770.0,-463.75,1,94.595,
01/01/2000,00:55:48.69,22.45,-56.36,-992.96,175.0,-621.25,-385.0,1,94.624,
01/01/2000,00:55:48.70,22.45,-56.36,-993.32,43.75,-673.75,-218.75,1,94.652,
01/01/2000,00:55:48.71,22.45,-56.49,-993.32,122.50,-700.0,-280.0,1,94.681,
01/01/2000,00:55:48.72,22.08,-56.61,-992.84,218.75,-638.75,-393.75,1,94.709,
01/01/2000,00:55:48.73,22.08,-56.49,-992.84,87.50,-717.50,-376.25,1,94.737,
01/01/2000,00:55:48.75,22.33,-56.24,-993.20,122.50,-665.0,-420.0,1,94.764,
01/01/2000,00:55:48.76,22.45,-56.12,-993.32,201.25,-752.50,-271.25,1,94.792,
01/01/2000,00:55:48.77,22.33,-56.12,-993.32,131.25,-735.0,-420.0,1,94.819,
01/01/2000,00:55:48.78,22.08,-56.24,-993.08,157.50,-630.0,-323.75,1,94.845,
01/01/2000,00:55:48.79,22.20,-56.12,-992.96,280.0,-717.50,-411.25,1,94.872,
01/01/2000,00:55:48.80,22.45,-56.12,-992.84,96.25,-717.50,-218.75,1,94.898,
01/01/2000,00:55:48.81,22.45,-56.24,-992.96,218.75,-752.50,-271.25,1,94.924,
01/01/2000,00:55:48.82,22.08,-56.49,-992.84,140.0,-691.25,-323.75,1,94.949,
01/01/2000,00:55:48.83,21.96,-56.36,-992.84,113.75,-708.75,-341.25,1,94.975,
01/01/2000,00:55:48.84,22.33,-56.12,-992.84,236.25,-630.0,-332.50,1,94.527,
01/01/2000,00:55:48.85,22.57,-56.12,-992.84,201.25,-708.75,-253.75,1,95.025,
01/01/2000,00:55:48.86,22.57,-56.12,-992.84,140.0,-735.0,-323.75,1,94.581,
01/01/2000,00:55:48.87,22.57,-56.36,-992.84,122.50,-761.25,-367.50,1,94.608,
01/01/2000,00:55:48.89,22.33,-56.36,-992.96,43.75,-752.50,-446.25,1,94.634,
01/01/2000,00:55:48.90,22.45,-56.12,-993.20,96.25,-726.25,-367.50,1,94.660,
01/01/2000,00:55:48.91,22.57,-55.88,-993.20,183.75,-717.50,-271.25,1,94.686,
01/01/2000,00:55:48.92,22.45,-55.88,-993.08,52.50,-595.0,-288.75,1,94.712,
01/01/2000,00:55:48.93,22.20,-56.12,-992.84,122.50,-700.0,-350.0,1,94.737,
01/01/2000,00:55:48.94,22.20,-56.36,-992.96,201.25,-805.0,-393.75,1,94.762,
01/01/2000,00:55:48.95,22.45,-56.36,-993.08,96.25,-726.25,-341.25,1,94.787,
01/01/2000,00:55:48.96,22.45,-56.24,-992.96,166.25,-743.75,-306.25,1,94.366,
01/01/2000,00:55:48.97,22.45,-56.12,-992.84,113.75,-665.0,-315.0,1,94.393,
01/01/2000,00:55:48.98,22.33,-56.24,-992.84,148.75,-735.0,-323.75,1,94.419,
01/01/2000,00:55:48.99,22.33,-56.12,-992.96,113.75,-586.25,-472.50,1,94.444,
01/01/2000,00:55:49.00,22.45,-56.12,-992.96,140.0,-691.25,-341.25,1,94.470,
01/01/2000,00:55:49.01,22.45,-56.12,-992.96,175.0,-673.75,-428.75,1,94.495,
01/01/2000,00:55:49.02,22.33,-56.12,-992.84,210.0,-708.75,-376.25,1,94.521,
01/01/2000,00:55:49.03,22.20,-56.00,-992.84,52.50,-717.50,-297.50,1,94.545,
01/01/2000,00:55:49.04,22.20,-56.00,-992.84,192.50,-647.50,-306.25,1,94.570,
01/01/2000,00:55:49.05,22.45,-56.12,-993.08,148.75,-700.0,-367.50,1,94.595,
01/01/2000,00:55:49.06,22.45,-56.24,-993.08,96.25,-647.50,-323.75,1,94.619,
01/01/2000,00:55:49.07,22.45,-56.36,-992.84,122.50,-682.50,-463.75,1,94.643,
01/01/2000,00:55:49.08,22.45,-56.36,-992.84,262.50,-586.25,-306.25,1,94.667,
01/01/2000,00:55:49.10,22.20,-56.36,-992.84,166.25,-630.0,-428.75,1,94.690,
01/01/2000,00:55:49.11,22.20,-56.36,-993.08,157.50,-682.50,-201.25,1,94.714,
01/01/2000,00:55:49.12,22.45,-56.36,-993.20,192.50,-656.25,-262.50,1,94.737,
01/01/2000,00:55:49.13,22.45,-56.36,-993.08,148.75,-743.75,-367.50,1,94.760,
01/01/2000,00:55:49.14,22.33,-56.61,-992.84,183.75,-665.0,-376.25,1,94.783,
01/01/2000,00:55:49.15,22.33,-56.61,-992.84,166.25,-665.0,-402.50,1,94.805,
01/01/2000,00:55:49.16,22.45,-56.49,-992.96,78.75,-796.25,-376.25,1,94.828,
01/01/2000,00:55:49.17,22.45,-56.12,-993.20,218.75,-682.50,-227.50,1,94.850,
01/01/2000,00:55:49.18,22.45,-56.12,-993.08,96.25,-647.50,-323.75,1,94.872,
01/01/2000,00:55:49.19,22.20,-56.36,-992.84,236.25,-612.50,-227.50,1,94.894,
01/01/2000,00:55:49.20,22.45,-56.61,-992.84,96.25,-735.0,-402.50,1,94.915,
01/01/2000,00:55:49.21,22.45,-56.61,-993.08,131.25,-787.50,-280.0,1,94.937,
01/01/2000,00:55:49.22,22.45,-56.49,-993.08,183.75,-691.25,-262.50,1,94.958,
01/01/2000,00:55:49.23,22.33,-56.36,-992.84,192.50,-700.0,-306.25,1,94.583,
01/01/2000,00:55:49.24,22.20,-56.36,-992.59,236.25,-630.0,-402.50,1,94.606,
01/01/2000,00:55:49.25,22.33,-56.24,-992.59,140.0,-883.75,-280.0,1,94.628,
01/01/2000,00:55:49.26,22.45,-56.36,-992.84,157.50,-691.25,-280.0,1,94.650,
01/01/2000,00:55:49.27,22.45,-56.36,-992.84,166.25,-735.0,-376.25,1,94.672,
01/01/2000,00:55:49.28,22.33,-56.49,-992.71,131.25,-595.0,-323.75,1,94.694,
01/01/2000,00:55:49.29,22.20,-56.24,-992.84,157.50,-647.50,-367.50,1,94.715,
01/01/2000,00:55:49.31,22.33,-56.12,-992.84,262.50,-673.75,-245.0,1,94.737,
01/01/2000,00:55:49.32,22.45,-56.24,-993.08,201.25,-665.0,-288.75,1,94.758,
01/01/2000,00:55:49.33,22.33,-56.61,-992.96,43.75,-787.50,-350.0,1,94.779,
01/01/2000,00:55:49.34,22.33,-56.49,-993.08,52.50,-647.50,-402.50,1,94.800,
01/01/2000,00:55:49.35,22.33,-56.49,-993.08,227.50,-708.75,-463.75,1,94.821,
01/01/2000,00:55:49.36,22.45,-56.12,-993.08,166.25,-822.50,-402.50,1,94.841,
01/01/2000,00:55:49.37,22.20,-56.12,-992.84,166.25,-612.50,-323.75,1,94.862,
01/01/2000,00:55:49.38,22.33,-56.12,-992.59,157.50,-726.25,-306.25,1,94.510,
01/01/2000,00:55:49.39,22.45,-56.36,-992.59,288.75,-638.75,-262.50,1,94.531,
01/01/2000,00:55:49.41,22.33,-56.36,-992.59,140.0,-708.75,-402.50,1,94.553,
01/01/2000,00:55:49.42,22.20,-56.12,-992.59,70.0,-805.0,-446.25,1,94.574,
01/01/2000,00:55:49.43,22.33,-56.00,-992.59,166.25,-595.0,-253.75,1,94.595,
01/01/2000,00:55:49.44,22.20,-56.00,-992.59,210.0,-770.0,-297.50,1,94.615,
01/01/2000,00:55:49.45,22.20,-56.24,-992.59,87.50,-752.50,-306.25,1,94.636,
01/01/2000,00:55:49.46,22.20,-56.36,-992.47,183.75,-673.75,-385.0,1,94.656,
01/01/2000,00:55:49.47,22.20,-56.36,-992.35,323.75,-708.75,-280.0,1,94.677,
01/01/2000,00:55:49.48,22.33,-56.36,-992.35,61.25,-647.50,-358.75,1,94.697,
01/01/2000,00:55:49.49,22.45,-56.12,-992.47,175.0,-717.50,-358.75,1,94.717,
01/01/2000,00:55:49.50,22.45,-56.24,-992.59,157.50,-656.25,-428.75,1,94.737,
01/01/2000,00:55:49.51,22.45,-56.24,-992.59,8.75,-726.25,-306.25,1,94.757,
01/01/2000,00:55:49.52,22.45,-56.12,-992.59,166.25,-761.25,-245.0,1,94.776,
01/01/2000,00:55:49.53,22.45,-56.24,-992.71,183.75,-691.25,-323.75,1,94.796,
01/01/2000,00:55:49.54,22.45,-56.12,-992.71,148.75,-647.50,-393.75,1,94.815,
01/01/2000,00:55:49.55,22.33,-56.12,-992.71,183.75,-673.75,-315.0,1,94.834,
01/01/2000,00:55:49.56,22.20,-56.12,-992.71,210.0,-691.25,-315.0,1,94.853,
01/01/2000,00:55:49.57,22.33,-56.00,-992.84,210.0,-752.50,-315.0,1,94.872,
01/01/2000,00:55:49.58,22.45,-55.88,-992.96,35.0,-656.25,-350.0,1,94.891,
01/01/2000,00:55:49.59,22.33,-56.00,-992.84,131.25,-735.0,-271.25,1,94.565,
01/01/2000,00:55:49.60,22.33,-56.00,-992.71,157.50,-612.50,-350.0,1,94.585,
01/01/2000,00:55:49.61,22.33,-55.88,-992.84,157.50,-665.0,-288.75,1,94.604,
01/01/2000,00:55:49.62,22.45,-55.75,-992.84,157.50,-752.50,-481.25,1,94.624,
01/01/2000,00:55:49.63,22.33,-55.75,-992.96,236.25,-638.75,-393.75,1,94.643,
01/01/2000,00:55:49.65,22.20,-55.75,-992.96,96.25,-743.75,-315.0,1,94.662,
01/01/2000,00:55:49.66,22.20,-56.12,-992.59,218.75,-770.0,-446.25,1,94.681,
01/01/2000,00:55:49.67,22.45,-56.12,-992.71,157.50,-638.75,-306.25,1,94.700,
01/01/2000,00:55:49.68,22.57,-56.12,-992.71,148.75,-682.50,-376.25,1,94.718,
01/01/2000,00:55:49.69,22.69,-56.24,-992.96,70.0,-735.0,-332.50,1,94.737,
01/01/2000,00:55:49.70,22.57,-56.12,-992.84,157.50,-586.25,-402.50,1,94.755,
01/01/2000,00:55:49.71,22.57,-56.12,-992.71,113.75,-595.0,-358.75,1,94.774,
01/01/2000,00:55:49.72,22.45,-56.24,-992.47,0.0,-630.0,-306.25,1,94.792,
01/01/2000,00:55:49.73,22.57,-56.24,-992.47,61.25,-778.75,-358.75,1,94.810,
01/01/2000,00:55:49.74,22.57,-56.24,-992.47,201.25,-796.25,-463.75,1,94.502,
01/01/2000,00:55:49.75,22.45,-56.12,-992.59,175.0,-673.75,-376.25,1,94.521,
01/01/2000,00:55:49.76,22.45,-56.12,-992.59,175.0,-743.75,-420.0,1,94.539,
01/01/2000,00:55:49.77,22.45,-56.00,-992.47,105.0,-735.0,-341.25,1,94.558,
01/01/2000,00:55:49.78,22.45,-56.00,-992.47,175.0,-630.0,-323.75,1,94.576,
01/01/2000,00:55:49.79,22.45,-56.00,-992.35,70.0,-752.50,-350.0,1,94.595,
01/01/2000,00:55:49.81,22.20,-56.12,-992.47,122.50,-726.25,-376.25,1,94.613,
01/01/2000,00:55:49.82,22.20,-56.12,-992.59,157.50,-656.25,-367.50,1,94.631,
01/01/2000,00:55:49.83,22.33,-55.88,-992.47,122.50,-691.25,-341.25,1,94.649,
01/01/2000,00:55:49.84,22.45,-55.88,-992.35,122.50,-673.75,-262.50,1,94.667,
01/01/2000,00:55:49.85,22.33,-56.00,-992.35,148.75,-717.50,-262.50,1,94.684,
01/01/2000,00:55:49.86,22.45,-56.12,-992.59,52.50,-665.0,-288.75,1,94.702,
01/01/2000,00:55:49.87,22.57,-56.36,-992.59,131.25,-708.75,-341.25,1,94.719,
01/01/2000,00:55:49.88,22.57,-56.24,-992.47,271.25,-743.75,-385.0,1,94.737,
01/01/2000,00:55:49.89,22.45,-56.12,-992.47,105.0,-708.75,-306.25,1,94.754,
01/01/2000,00:55:49.90,22.33,-56.12,-992.59,140.0,-901.25,-210.0,1,94.771,
01/01/2000,00:55:49.91,22.33,-56.36,-992.71,175.0,-682.50,-332.50,1,94.481,
01/01/2000,00:55:49.92,22.20,-56.36,-992.71,148.75,-647.50,-411.25,1,94.498,
01/01/2000,00:55:49.94,22.45,-56.24,-992.84,131.25,-647.50,-420.0,1,94.516,
01/01/2000,00:55:49.95,22.33,-56.12,-992.59,78.75,-656.25,-376.25,1,94.534,
01/01/2000,00:55:49.96,22.20,-56.12,-992.59,131.25,-770.0,-288.75,1,94.551,
01/01/2000,00:55:49.97,21.96,-56.12,-992.59,8.75,-673.75,-385.0,1,94.569,
01/01/2000,00:55:49.98,22.08,-56.12,-992.59,157.50,-796.25,-332.50,1,94.586,
01/01/2000,00:55:49.99,22.20,-56.12,-992.59,227.50,-796.25,-385.0,1,94.603,
01/01/2000,00:55:50.00,22.20,-56.00,-992.59,183.75,-673.75,-385.0,1,94.620,
01/01/2000,00:55:50.01,22.45,-56.12,-992.47,271.25,-656.25,-236.25,1,94.637,
01/01/2000,00:55:50.02,22.33,-56.12,-992.35,227.50,-656.25,-358.75,1,94.654,
01/01/2000,00:55:50.03,22.33,-56.12,-992.35,61.25,-673.75,-341.25,1,94.671,
01/01/2000,00:55:50.04,22.33,-56.12,-992.35,122.50,-717.50,-306.25,1,94.688,
01/01/2000,00:55:50.05,22.33,-56.12,-992.23,105.0,-761.25,-367.50,1,94.704,
01/01/2000,00:55:50.06,22.20,-56.24,-992.23,262.50,-595.0,-262.50,1,94.720,
01/01/2000,00:55:50.07,22.33,-56.24,-992.10,113.75,-717.50,-402.50,1,94.737,
01/01/2000,00:55:50.08,22.33,-56.12,-992.35,157.50,-700.0,-393.75,1,94.753,
01/01/2000,00:55:50.09,22.45,-56.12,-992.23,253.75,-717.50,-385.0,1,94.769,
01/01/2000,00:55:50.10,22.45,-56.00,-992.23,70.0,-682.50,-341.25,1,94.785,
01/01/2000,00:55:50.11,22.45,-56.00,-992.10,113.75,-665.0,-315.0,1,94.801,
01/01/2000,00:55:50.12,22.45,-56.12,-992.10,140.0,-717.50,-315.0,1,94.817,
01/01/2000,00:55:50.13,22.45,-56.36,-992.10,140.0,-665.0,-402.50,1,94.833,
01/01/2000,00:55:50.14,22.69,-56.36,-992.10,183.75,-691.25,-402.50,1,94.848,
01/01/2000,00:55:50.15,22.57,-56.12,-992.10,218.75,-700.0,-332.50,1,94.578,
01/01/2000,00:55:50.16,22.45,-55.88,-992.10,61.25,-621.25,-358.75,1,94.595,
01/01/2000,00:55:50.17,22.45,-55.88,-992.10,157.50,-778.75,-236.25,1,94.611,
01/01/2000,00:55:50.18,22.33,-56.12,-992.10,140.0,-822.50,-341.25,1,94.627,
01/01/2000,00:55:50.19,22.45,-56.00,-992.10,113.75,-665.0,-315.0,1,94.643,
01/01/2000,00:55:50.20,22.33,-56.12,-992.23,227.50,-638.75,-350.0,1,94.659,
01/01/2000,00:55:50.22,22.45,-56.00,-992.23,61.25,-586.25,-315.0,1,94.675,
01/01/2000,00:55:50.23,22.45,-55.88,-992.23,175.0,-682.50,-350.0,1,94.690,
01/01/2000,00:55:50.24,22.57,-55.88,-992.23,140.0,-665.0,-341.25,1,94.706,
01/01/2000,00:55:50.25,22.57,-56.00,-992.10,105.0,-735.0,-350.0,1,94.721,
01/01/2000,00:55:50.26,22.57,-55.88,-992.10,87.50,-665.0,-332.50,1,94.737,
01/01/2000,00:55:50.27,22.69,-55.88,-992.10,175.0,-761.25,-402.50,1,94.752,
01/01/2000,00:55:50.28,22.69,-55.88,-992.10,166.25,-665.0,-323.75,1,94.767,
01/01/2000,00:55:50.29,22.57,-56.00,-992.10,175.0,-726.25,-332.50,1,94.783,
01/01/2000,00:55:50.30,22.57,-56.12,-992.23,52.50,-752.50,-428.75,1,94.798,
01/01/2000,00:55:50.31,22.57,-56.12,-992.10,236.25,-682.50,-280.0,1,94.813,
01/01/2000,00:55:50.32,22.45,-56.12,-992.23,192.50,-647.50,-402.50,1,94.828,
01/01/2000,00:55:50.33,22.45,-56.00,-992.23,148.75,-743.75,-323.75,1,94.842,
01/01/2000,00:55:50.34,22.57,-55.88,-992.10,245.0,-673.75,-376.25,1,94.587,
01/01/2000,00:55:50.35,22.45,-55.88,-991.98,96.25,-770.0,-297.50,1,94.872,
01/01/2000,00:55:50.37,22.20,-55.88,-992.10,87.50,-700.0,-315.0,1,94.618,
01/01/2000,00:55:50.38,22.20,-56.00,-992.10,262.50,-726.25,-280.0,1,94.633,
01/01/2000,00:55:50.39,22.33,-55.88,-992.10,253.75,-708.75,-280.0,1,94.648,
01/01/2000,00:55:50.40,22.45,-56.00,-991.98,192.50,-691.25,-288.75,1,94.663,
01/01/2000,00:55:50.41,22.33,-56.00,-992.10,96.25,-656.25,-376.25,1,94.678,
01/01/2000,00:55:50.42,22.20,-55.88,-992.35,210.0,-761.25,-315.0,1,94.693,
01/01/2000,00:55:50.43,22.45,-55.63,-992.10,140.0,-700.0,-245.0,1,94.444,
01/01/2000,00:55:50.44,22.45,-55.88,-991.98,192.50,-726.25,-297.50,1,94.460,
01/01/2000,00:55:50.45,22.20,-56.00,-991.98,201.25,-770.0,-385.0,1,94.475,
01/01/2000,00:55:50.46,22.20,-56.12,-992.10,166.25,-586.25,-315.0,1,94.490,
01/01/2000,00:55:50.47,22.33,-56.12,-992.10,70.0,-621.25,-341.25,1,94.505,
01/01/2000,00:55:50.48,22.20,-56.12,-992.23,148.75,-726.25,-280.0,1,94.521,
01/01/2000,00:55:50.49,22.20,-56.00,-991.98,157.50,-621.25,-341.25,1,94.536,
01/01/2000,00:55:50.50,22.20,-56.00,-991.86,201.25,-787.50,-262.50,1,94.550,
01/01/2000,00:55:50.51,22.20,-56.12,-991.98,218.75,-665.0,-306.25,1,94.565,
01/01/2000,00:55:50.52,22.20,-56.36,-992.23,148.75,-656.25,-428.75,1,94.580,
01/01/2000,00:55:50.53,22.33,-56.24,-992.23,113.75,-691.25,-420.0,1,94.595,
01/01/2000,00:55:50.54,22.45,-56.12,-992.10,166.25,-630.0,-297.50,1,94.609,
01/01/2000,00:55:50.55,22.45,-56.00,-991.86,148.75,-656.25,-236.25,1,94.624,
01/01/2000,00:55:50.56,22.20,-56.12,-991.98,341.25,-673.75,-376.25,1,94.638,
01/01/2000,00:55:50.58,22.20,-56.12,-992.10,87.50,-787.50,-280.0,1,94.652,
01/01/2000,00:55:50.59,22.20,-56.12,-992.10,105.0,-682.50,-341.25,1,94.667,
01/01/2000,00:55:50.60,22.33,-56.12,-992.10,131.25,-805.0,-358.75,1,94.681,
01/01/2000,00:55:50.61,22.33,-56.00,-992.10,288.75,-621.25,-358.75,1,94.695,
01/01/2000,00:55:50.62,22.45,-56.12,-992.23,78.75,-735.0,-297.50,1,94.709,
01/01/2000,00:55:50.63,22.45,-56.12,-992.59,210.0,-673.75,-262.50,1,94.723,
01/01/2000,00:55:50.64,22.69,-56.36,-992.71,218.75,-638.75,-350.0,1,94.488,
01/01/2000,00:55:50.65,22.45,-56.49,-992.47,148.75,-647.50,-376.25,1,94.503,
01/01/2000,00:55:50.66,22.33,-56.49,-992.35,262.50,-691.25,-192.50,1,94.517,
01/01/2000,00:55:50.67,22.45,-56.36,-992.47,201.25,-717.50,-323.75,1,94.531,
01/01/2000,00:55:50.68,22.57,-56.12,-992.59,122.50,-778.75,-376.25,1,94.545,
01/01/2000,00:55:50.69,22.81,-56.00,-992.96,96.25,-726.25,-297.50,1,94.560,
01/01/2000,00:55:50.70,22.94,-56.12,-992.84,96.25,-542.50,-332.50,1,94.574,
01/01/2000,00:55:50.72,22.94,-56.12,-992.59,140.0,-665.0,-420.0,1,94.588,
01/01/2000,00:55:50.73,22.81,-56.12,-992.47,253.75,-761.25,-385.0,1,94.602,
01/01/2000,00:55:50.74,22.69,-56.12,-992.59,175.0,-630.0,-376.25,1,94.615,
01/01/2000,00:55:50.75,22.69,-55.88,-992.47,96.25,-743.75,-332.50,1,94.629,
01/01/2000,00:55:50.76,22.69,-55.88,-992.35,157.50,-682.50,-262.50,1,94.643,
01/01/2000,00:55:50.77,22.57,-56.12,-992.47,131.25,-700.0,-350.0,1,94.656,
01/01/2000,00:55:50.78,22.45,-56.24,-992.59,78.75,-586.25,-288.75,1,94.670,
01/01/2000,00:55:50.79,22.45,-56.36,-992.35,201.25,-621.25,-350.0,1,94.684,
01/01/2000,00:55:50.80,22.69,-56.24,-992.35,183.75,-813.75,-323.75,1,94.697,
01/01/2000,00:55:50.81,22.45,-56.12,-992.35,166.25,-796.25,-245.0,1,94.710,
01/01/2000,00:55:50.82,22.45,-56.12,-992.35,183.75,-743.75,-306.25,1,94.724,
01/01/2000,00:55:50.83,22.57,-56.12,-992.59,157.50,-682.50,-402.50,1,94.737,
01/01/2000,00:55:50.84,22.57,-56.12,-992.47,113.75,-691.25,-323.75,1,94.750,
01/01/2000,00:55:50.85,22.69,-56.24,-992.35,166.25,-691.25,-341.25,1,94.527,
01/01/2000,00:55:50.86,22.69,-56.12,-992.35,113.75,-665.0,-306.25,1,94.541,
01/01/2000,00:55:50.87,22.69,-56.24,-992.47,218.75,-700.0,-323.75,1,94.554,
01/01/2000,00:55:50.88,22.57,-56.12,-992.59,113.75,-656.25,-402.50,1,94.568,
01/01/2000,00:55:50.89,22.57,-56.24,-992.71,148.75,-665.0,-428.75,1,94.581,
01/01/2000,00:55:50.90,22.57,-56.24,-992.59,218.75,-665.0,-280.0,1,94.595,
01/01/2000,00:55:50.91,22.57,-56.12,-992.35,105.0,-743.75,-516.25,1,94.608,
01/01/2000,00:55:50.93,22.45,-56.12,-992.35,113.75,-621.25,-297.50,1,94.390,
01/01/2000,00:55:50.94,22.33,-56.00,-992.47,201.25,-700.0,-437.50,1,94.404,
01/01/2000,00:55:50.95,22.45,-56.12,-992.59,105.0,-761.25,-437.50,1,94.417,
01/01/2000,00:55:50.96,22.57,-56.12,-992.59,157.50,-700.0,-245.0,1,94.431,
01/01/2000,00:55:50.97,22.33,-56.12,-992.35,210.0,-726.25,-437.50,1,94.444,
01/01/2000,00:55:50.98,22.20,-56.36,-992.23,122.50,-603.75,-367.50,1,94.458,
01/01/2000,00:55:50.99,22.20,-56.24,-992.35,61.25,-708.75,-358.75,1,94.471,
01/01/2000,00:55:51.01,22.20,-56.36,-992.59,166.25,-708.75,-376.25,1,94.484,
01/01/2000,00:55:51.02,22.20,-56.24,-992.71,140.0,-621.25,-393.75,1,94.498,
01/01/2000,00:55:51.03,22.20,-56.24,-992.59,105.0,-708.75,-297.50,1,94.511,
01/01/2000,00:55:51.04,22.20,-56.36,-992.35,87.50,-665.0,-341.25,1,94.524,
01/01/2000,00:55:51.05,22.08,-56.49,-992.59,140.0,-595.0,-315.0,1,94.537,
01/01/2000,00:55:51.06,21.96,-56.49,-992.59,262.50,-717.50,-411.25,1,94.550,
01/01/2000,00:55:51.07,22.08,-56.36,-992.59,105.0,-656.25,-393.75,1,94.563,
01/01/2000,00:55:51.08,22.20,-56.12,-992.59,262.50,-717.50,-297.50,1,94.575,
01/01/2000,00:55:51.09,22.08,-56.12,-992.47,70.0,-673.75,-288.75,1,94.588,
01/01/2000,00:55:51.10,22.08,-56.12,-992.47,140.0,-778.75,-350.0,1,94.601,
01/01/2000,00:55:51.11,22.08,-56.36,-992.59,61.25,-787.50,-288.75,1,94.614,
01/01/2000,00:55:51.12,22.08,-56.36,-992.59,70.0,-682.50,-393.75,1,94.626,
01/01/2000,00:55:51.13,22.20,-56.12,-992.71,113.75,-656.25,-367.50,1,94.639,
01/01/2000,00:55:51.14,22.20,-56.12,-992.59,70.0,-743.75,-428.75,1,94.651,
01/01/2000,00:55:51.15,22.08,-56.12,-992.35,105.0,-700.0,-323.75,1,94.664,
01/01/2000,00:55:51.16,22.08,-56.36,-992.47,218.75,-691.25,-350.0,1,94.676,
01/01/2000,00:55:51.17,22.33,-56.49,-992.59,78.75,-603.75,-306.25,1,94.688,
01/01/2000,00:55:51.18,22.45,-56.36,-992.59,175.0,-638.75,-280.0,1,94.700,
01/01/2000,00:55:51.19,22.33,-56.24,-992.59,210.0,-577.50,-376.25,1,94.713,
01/01/2000,00:55:51.20,22.20,-56.24,-992.35,236.25,-621.25,-280.0,1,94.725,
01/01/2000,00:55:51.21,22.08,-56.36,-992.47,113.75,-743.75,-358.75,1,94.521,
01/01/2000,00:55:51.22,22.45,-56.61,-992.84,52.50,-595.0,-367.50,1,94.533,
01/01/2000,00:55:51.23,22.45,-56.49,-992.84,201.25,-770.0,-332.50,1,94.545,
01/01/2000,00:55:51.24,22.33,-56.36,-992.59,210.0,-743.75,-332.50,1,94.558,
01/01/2000,00:55:51.25,22.20,-56.36,-992.35,245.0,-621.25,-358.75,1,94.570,
01/01/2000,00:55:51.26,22.20,-56.36,-992.35,192.50,-700.0,-323.75,1,94.582,
01/01/2000,00:55:51.28,22.45,-56.36,-992.84,113.75,-665.0,-236.25,1,94.595,
01/01/2000,00:55:51.29,22.45,-56.36,-992.71,183.75,-708.75,-306.25,1,94.607,
01/01/2000,00:55:51.30,22.20,-56.36,-992.59,105.0,-708.75,-341.25,1,94.619,
01/01/2000,00:55:51.31,22.20,-56.36,-992.35,236.25,-691.25,-358.75,1,94.631,
01/01/2000,00:55:51.32,22.45,-56.36,-992.35,131.25,-822.50,-280.0,1,94.643,
01/01/2000,00:55:51.33,22.33,-56.36,-992.47,26.25,-665.0,-201.25,1,94.655,
01/01/2000,00:55:51.34,22.20,-56.49,-992.59,262.50,-700.0,-280.0,1,94.667,
01/01/2000,00:55:51.35,21.96,-56.49,-992.35,166.25,-682.50,-385.0,1,94.678,
01/01/2000,00:55:51.36,22.08,-56.49,-992.47,87.50,-752.50,-350.0,1,94.690,
01/01/2000,00:55:51.37,22.08,-56.49,-992.59,78.75,-682.50,-376.25,1,94.702,
01/01/2000,00:55:51.38,22.20,-56.61,-992.71,140.0,-700.0,-367.50,1,94.714,
01/01/2000,00:55:51.39,22.33,-56.61,-992.59,78.75,-603.75,-280.0,1,94.725,
01/01/2000,00:55:51.40,22.20,-56.61,-992.59,245.0,-778.75,-262.50,1,94.737,
01/01/2000,00:55:51.41,22.20,-56.61,-992.71,245.0,-630.0,-411.25,1,94.748,
01/01/2000,00:55:51.42,22.20,-56.61,-992.71,175.0,-647.50,-420.0,1,94.553,
01/01/2000,00:55:51.43,22.20,-56.49,-992.59,157.50,-612.50,-341.25,1,94.565,
01/01/2000,00:55:51.45,22.08,-56.61,-992.47,113.75,-656.25,-437.50,1,94.577,
01/01/2000,00:55:51.46,21.96,-56.61,-992.59,236.25,-647.50,-385.0,1,94.384,
01/01/2000,00:55:51.47,22.20,-56.49,-992.59,271.25,-700.0,-280.0,1,94.397,
01/01/2000,00:55:51.48,22.33,-56.49,-992.47,166.25,-673.75,-341.25,1,94.409,
01/01/2000,00:55:51.49,22.20,-56.49,-992.35,192.50,-778.75,-367.50,1,94.421,
01/01/2000,00:55:51.50,22.08,-56.49,-992.47,105.0,-638.75,-402.50,1,94.433,
01/01/2000,00:55:51.51,22.20,-56.36,-992.59,105.0,-673.75,-332.50,1,94.444,
01/01/2000,00:55:51.52,22.20,-56.36,-992.59,218.75,-603.75,-323.75,1,94.456,
01/01/2000,00:55:51.53,22.08,-56.36,-992.71,96.25,-647.50,-393.75,1,94.468,
01/01/2000,00:55:51.54,21.96,-56.36,-992.71,87.50,-656.25,-280.0,1,94.480,
01/01/2000,00:55:51.55,21.96,-56.36,-992.59,218.75,-726.25,-446.25,1,94.492,
01/01/2000,00:55:51.57,22.08,-56.49,-992.59,236.25,-691.25,-341.25,1,94.503,
01/01/2000,00:55:51.58,22.08,-56.36,-992.71,306.25,-682.50,-288.75,1,94.515,
01/01/2000,00:55:51.59,21.84,-56.36,-992.71,175.0,-682.50,-385.0,1,94.526,
01/01/2000,00:55:51.60,21.72,-56.36,-992.71,175.0,-761.25,-323.75,1,94.538,
01/01/2000,00:55:51.61,21.96,-56.36,-992.47,210.0,-700.0,-262.50,1,94.549,
01/01/2000,00:55:51.62,21.84,-56.24,-992.35,96.25,-665.0,-288.75,1,94.561,
01/01/2000,00:55:51.63,21.72,-56.36,-992.47,122.50,-630.0,-393.75,1,94.572,
01/01/2000,00:55:51.64,21.96,-56.24,-992.59,236.25,-638.75,-262.50,1,94.583,
01/01/2000,00:55:51.65,22.20,-56.24,-992.47,0.0,-822.50,-332.50,1,94.595,
01/01/2000,00:55:51.66,21.96,-56.36,-992.47,157.50,-743.75,-245.0,1,94.606,
01/01/2000,00:55:51.67,21.96,-56.36,-992.35,131.25,-682.50,-393.75,1,94.617,
01/01/2000,00:55:51.68,22.20,-56.36,-992.35,157.50,-761.25,-402.50,1,94.628,
01/01/2000,00:55:51.69,22.33,-56.12,-992.59,218.75,-673.75,-367.50,1,94.639,
01/01/2000,00:55:51.70,22.20,-56.36,-992.47,105.0,-656.25,-315.0,1,94.456,
01/01/2000,00:55:51.71,22.20,-56.36,-992.47,87.50,-735.0,-428.75,1,94.467,
01/01/2000,00:55:51.72,22.33,-56.36,-992.59,148.75,-770.0,-332.50,1,94.479,
01/01/2000,00:55:51.73,22.45,-56.24,-992.84,43.75,-638.75,-376.25,1,94.490,
01/01/2000,00:55:51.74,22.45,-56.24,-992.71,148.75,-700.0,-428.75,1,94.501,
01/01/2000,00:55:51.75,22.57,-56.24,-992.59,210.0,-805.0,-323.75,1,94.512,
01/01/2000,00:55:51.76,22.33,-56.49,-992.35,148.75,-603.75,-306.25,1,94.523,
01/01/2000,00:55:51.78,22.20,-56.61,-992.59,122.50,-691.25,-297.50,1,94.534,
01/01/2000,00:55:51.79,22.33,-56.49,-992.71,183.75,-796.25,-358.75,1,94.545,
01/01/2000,00:55:51.80,22.69,-56.12,-992.71,122.50,-673.75,-297.50,1,94.556,
01/01/2000,00:55:51.81,22.69,-56.12,-992.35,166.25,-586.25,-315.0,1,94.567,
01/01/2000,00:55:51.82,21.96,-56.36,-992.47,157.50,-673.75,-288.75,1,94.578,
01/01/2000,00:55:51.83,21.84,-56.61,-992.59,78.75,-735.0,-498.75,1,94.589,
01/01/2000,00:55:51.84,22.45,-56.36,-992.59,183.75,-621.25,-455.0,1,94.600,
01/01/2000,00:55:51.85,22.45,-56.12,-992.47,43.75,-673.75,-262.50,1,94.611,
01/01/2000,00:55:51.86,22.20,-56.36,-992.35,17.50,-691.25,-367.50,1,94.622,
01/01/2000,00:55:51.87,21.84,-56.36,-992.23,175.0,-656.25,-446.25,1,94.632,
01/01/2000,00:55:51.88,22.20,-56.36,-992.35,78.75,-665.0,-393.75,1,94.455,
01/01/2000,00:55:51.89,22.57,-56.24,-992.59,332.50,-700.0,-201.25,1,94.466,
01/01/2000,00:55:51.90,22.45,-56.12,-992.47,201.25,-717.50,-323.75,1,94.477,
01/01/2000,00:55:51.92,22.33,-56.36,-992.35,122.50,-656.25,-385.0,1,94.488,
01/01/2000,00:55:51.93,22.33,-56.12,-992.10,78.75,-682.50,-332.50,1,94.499,
01/01/2000,00:55:51.94,22.45,-56.24,-992.35,210.0,-787.50,-385.0,1,94.510,
01/01/2000,00:55:51.95,22.69,-56.49,-992.47,192.50,-761.25,-306.25,1,94.521,
01/01/2000,00:55:51.96,22.57,-56.36,-992.23,131.25,-603.75,-253.75,1,94.531,
01/01/2000,00:55:51.97,22.20,-56.24,-992.23,192.50,-700.0,-288.75,1,94.542,
01/01/2000,00:55:51.98,22.45,-56.24,-992.35,175.0,-700.0,-323.75,1,94.553,
01/01/2000,00:55:51.99,22.57,-56.24,-992.47,122.50,-691.25,-350.0,1,94.380,
01/01/2000,00:55:52.00,22.57,-56.36,-992.71,218.75,-691.25,-297.50,1,94.391,
01/01/2000,00:55:52.01,22.57,-56.49,-992.71,26.25,-682.50,-350.0,1,94.402,
01/01/2000,00:55:52.02,22.57,-56.36,-992.59,122.50,-708.75,-227.50,1,94.412,
01/01/2000,00:55:52.03,22.69,-56.36,-992.47,236.25,-770.0,-341.25,1,94.423,
01/01/2000,00:55:52.04,22.69,-56.24,-992.47,61.25,-630.0,-393.75,1,94.434,
01/01/2000,00:55:52.05,22.57,-56.36,-992.59,210.0,-735.0,-323.75,1,94.444,
01/01/2000,00:55:52.06,22.45,-56.36,-992.59,262.50,-612.50,-367.50,1,94.455,
01/01/2000,00:55:52.07,22.33,-56.36,-992.59,218.75,-700.0,-367.50,1,94.466,
01/01/2000,00:55:52.08,22.45,-56.12,-992.59,52.50,-682.50,-332.50,1,94.476,
01/01/2000,00:55:52.09,22.45,-56.12,-992.59,262.50,-647.50,-236.25,1,94.487,
01/01/2000,00:55:52.10,22.20,-56.36,-992.71,105.0,-752.50,-262.50,1,94.497,
01/01/2000,00:55:52.11,22.08,-56.49,-992.84,218.75,-787.50,-498.75,1,94.508,
01/01/2000,00:55:52.13,22.33,-56.36,-992.84,210.0,-708.75,-262.50,1,94.518,
01/01/2000,00:55:52.14,22.33,-56.12,-992.84,140.0,-665.0,-385.0,1,94.528,
01/01/2000,00:55:52.15,22.20,-56.12,-992.59,113.75,-612.50,-358.75,1,94.539,
01/01/2000,00:55:52.16,22.08,-56.12,-992.59,175.0,-726.25,-297.50,1,94.549,
01/01/2000,00:55:52.17,22.20,-56.12,-992.84,183.75,-735.0,-402.50,1,94.559,
01/01/2000,00:55:52.18,22.20,-56.12,-992.84,166.25,-761.25,-315.0,1,94.569,
01/01/2000,00:55:52.19,22.20,-56.12,-992.84,140.0,-735.0,-280.0,1,94.579,
01/01/2000,00:55:52.20,22.20,-56.12,-992.59,183.75,-647.50,-315.0,1,94.590,
01/01/2000,00:55:52.21,22.33,-56.12,-992.59,140.0,-735.0,-341.25,1,94.600,
01/01/2000,00:55:52.22,22.45,-56.12,-992.84,26.25,-647.50,-323.75,1,94.610,
01/01/2000,00:55:52.23,22.33,-56.36,-992.84,122.50,-673.75,-455.0,1,94.620,
01/01/2000,00:55:52.24,22.20,-56.24,-992.84,192.50,-735.0,-367.50,1,94.630,
01/01/2000,00:55:52.25,22.20,-56.36,-992.84,245.0,-778.75,-323.75,1,94.640,
01/01/2000,00:55:52.26,22.20,-56.36,-992.71,183.75,-682.50,-175.0,1,94.475,
01/01/2000,00:55:52.27,22.33,-56.12,-992.84,157.50,-787.50,-306.25,1,94.485,
01/01/2000,00:55:52.28,22.20,-56.36,-992.84,245.0,-778.75,-393.75,1,94.495,
01/01/2000,00:55:52.29,22.33,-56.49,-992.71,288.75,-577.50,-341.25,1,94.505,
01/01/2000,00:55:52.30,22.08,-56.61,-992.59,227.50,-700.0,-376.25,1,94.516,
01/01/2000,00:55:52.31,22.20,-56.36,-992.71,210.0,-656.25,-358.75,1,94.526,
01/01/2000,00:55:52.32,22.20,-56.36,-992.84,201.25,-717.50,-481.25,1,94.536,
01/01/2000,00:55:52.34,22.20,-56.36,-992.71,148.75,-700.0,-201.25,1,94.545,
01/01/2000,00:55:52.35,22.20,-56.61,-992.71,148.75,-533.75,-428.75,1,94.555,
01/01/2000,00:55:52.36,22.08,-56.73,-992.59,183.75,-586.25,-533.75,1,94.565,
01/01/2000,00:55:52.37,22.33,-56.12,-992.71,96.25,-708.75,-271.25,1,94.575,
01/01/2000,00:55:52.38,22.33,-56.24,-992.84,131.25,-682.50,-420.0,1,94.585,
01/01/2000,00:55:52.39,22.33,-56.36,-992.71,131.25,-542.50,-122.50,1,94.595,
01/01/2000,00:55:52.40,22.20,-56.36,-992.59,52.50,-673.75,-393.75,1,94.604,
01/01/2000,00:55:52.41,22.33,-56.61,-992.59,166.25,-770.0,-411.25,1,94.614,
01/01/2000,00:55:52.42,22.45,-56.12,-992.59,70.0,-682.50,-376.25,1,94.624,
01/01/2000,00:55:52.43,22.45,-56.36,-992.59,157.50,-665.0,-175.0,1,94.633,
01/01/2000,00:55:52.44,22.20,-56.24,-992.59,113.75,-647.50,-218.75,1,94.643,
01/01/2000,00:55:52.45,22.20,-56.24,-992.71,183.75,-656.25,-341.25,1,94.484,
01/01/2000,00:55:52.47,22.45,-56.36,-992.71,52.50,-595.0,-472.50,1,94.494,
01/01/2000,00:55:52.48,22.69,-56.36,-992.71,122.50,-700.0,-288.75,1,94.504,
01/01/2000,00:55:52.49,22.45,-56.24,-992.59,175.0,-700.0,-385.0,1,94.513,
01/01/2000,00:55:52.50,22.20,-56.24,-992.59,122.50,-682.50,-332.50,1,94.523,
01/01/2000,00:55:52.51,22.33,-56.12,-992.59,113.75,-717.50,-332.50,1,94.533,
01/01/2000,00:55:52.52,22.57,-56.12,-992.71,35.0,-735.0,-385.0,1,94.542,
01/01/2000,00:55:52.53,22.69,-56.24,-992.71,105.0,-770.0,-201.25,1,94.552,
01/01/2000,00:55:52.54,22.33,-56.36,-992.47,201.25,-717.50,-341.25,1,94.561,
01/01/2000,00:55:52.55,22.08,-56.24,-992.35,166.25,-735.0,-376.25,1,94.571,
01/01/2000,00:55:52.56,22.33,-56.36,-992.59,210.0,-673.75,-411.25,1,94.580,
01/01/2000,00:55:52.57,22.45,-56.12,-992.71,61.25,-577.50,-210.0,1,94.590,
01/01/2000,00:55:52.58,22.45,-56.36,-992.59,140.0,-735.0,-280.0,1,94.599,
01/01/2000,00:55:52.59,22.20,-56.36,-992.35,175.0,-735.0,-332.50,1,94.609,
01/01/2000,00:55:52.60,22.08,-56.36,-992.35,96.25,-682.50,-367.50,1,94.618,
01/01/2000,00:55:52.61,22.33,-56.36,-992.71,210.0,-778.75,-306.25,1,94.627,
01/01/2000,00:55:52.62,22.45,-56.49,-993.08,43.75,-665.0,-271.25,1,94.473,
01/01/2000,00:55:52.63,22.45,-56.61,-992.84,166.25,-752.50,-367.50,1,94.483,
01/01/2000,00:55:52.64,22.08,-56.61,-992.47,61.25,-647.50,-350.0,1,94.492,
01/01/2000,00:55:52.65,22.20,-56.49,-992.35,70.0,-673.75,-350.0,1,94.502,
01/01/2000,00:55:52.66,22.45,-56.36,-992.84,175.0,-831.25,-297.50,1,94.511,
01/01/2000,00:55:52.67,22.45,-56.36,-992.96,43.75,-726.25,-253.75,1,94.521,
01/01/2000,00:55:52.69,22.20,-56.49,-992.84,61.25,-638.75,-323.75,1,94.530,
01/01/2000,00:55:52.70,22.20,-56.61,-992.71,218.75,-726.25,-455.0,1,94.539,
01/01/2000,00:55:52.71,22.45,-56.24,-992.71,245.0,-735.0,-315.0,1,94.549,
01/01/2000,00:55:52.72,22.45,-56.12,-992.96,131.25,-691.25,-245.0,1,94.558,
01/01/2000,00:55:52.73,22.45,-56.12,-993.08,61.25,-743.75,-315.0,1,94.567,
01/01/2000,00:55:52.74,22.20,-56.24,-992.96,26.25,-665.0,-367.50,1,94.576,
01/01/2000,00:55:52.75,22.20,-56.24,-992.96,61.25,-726.25,-402.50,1,94.585,
01/01/2000,00:55:52.76,22.33,-56.24,-993.08,175.0,-586.25,-306.25,1,94.595,
01/01/2000,00:55:52.77,22.45,-56.00,-993.08,140.0,-673.75,-393.75,1,94.604,
01/01/2000,00:55:52.78,22.33,-56.12,-993.08,192.50,-752.50,-236.25,1,94.613,
01/01/2000,00:55:52.79,22.33,-56.12,-992.96,218.75,-752.50,-350.0,1,94.622,
01/01/2000,00:55:52.80,22.20,-56.24,-992.96,183.75,-787.50,-332.50,1,94.631,
01/01/2000,00:55:52.81,22.45,-56.12,-992.84,157.50,-822.50,-367.50,1,94.640,
01/01/2000,00:55:52.82,22.57,-56.12,-992.71,175.0,-612.50,-358.75,1,94.649,
01/01/2000,00:55:52.83,22.20,-56.00,-992.59,70.0,-665.0,-271.25,1,94.500,
01/01/2000,00:55:52.84,22.08,-56.24,-992.59,201.25,-621.25,-385.0,1,94.509,
01/01/2000,00:55:52.85,22.33,-56.12,-992.59,245.0,-717.50,-350.0,1,94.518,
01/01/2000,00:55:52.86,22.45,-56.12,-992.35,175.0,-770.0,-288.75,1,94.527,
01/01/2000,00:55:52.87,22.33,-56.24,-992.47,140.0,-665.0,-253.75,1,94.536,
01/01/2000,00:55:52.88,22.20,-56.36,-992.59,201.25,-691.25,-306.25,1,94.545,
01/01/2000,00:55:52.90,22.33,-56.24,-992.71,227.50,-717.50,-341.25,1,94.554,
01/01/2000,00:55:52.91,22.45,-56.12,-992.84,236.25,-682.50,-297.50,1,94.563,
01/01/2000,00:55:52.92,22.45,-56.12,-992.84,131.25,-551.25,-297.50,1,94.572,
01/01/2000,00:55:52.93,22.45,-56.12,-992.84,61.25,-787.50,-341.25,1,94.581,
01/01/2000,00:55:52.94,22.45,-56.24,-992.71,140.0,-726.25,-367.50,1,94.590,
01/01/2000,00:55:52.95,22.33,-56.24,-992.71,140.0,-708.75,-428.75,1,94.599,
01/01/2000,00:55:52.96,22.20,-56.36,-992.59,297.50,-875.0,-367.50,1,94.608,
01/01/2000,00:55:52.98,22.08,-56.00,-992.59,148.75,-656.25,-341.25,1,94.463,
01/01/2000,00:55:52.99,22.20,-56.12,-992.59,113.75,-665.0,-183.75,1,94.472,
01/01/2000,00:55:53.00,22.08,-56.24,-992.59,218.75,-691.25,-385.0,1,94.481,
01/01/2000,00:55:53.01,21.96,-56.24,-992.59,175.0,-560.0,-350.0,1,94.489,
01/01/2000,00:55:53.02,22.08,-56.12,-992.59,218.75,-770.0,-411.25,1,94.498,
01/01/2000,00:55:53.03,22.20,-56.00,-992.47,227.50,-735.0,-306.25,1,94.507,
01/01/2000,00:55:53.04,22.20,-55.88,-992.35,131.25,-673.75,-315.0,1,94.516,
01/01/2000,00:55:53.05,22.08,-56.12,-992.35,78.75,-673.75,-332.50,1,94.525,
01/01/2000,00:55:53.06,22.20,-56.36,-992.59,236.25,-638.75,-411.25,1,94.534,
01/01/2000,00:55:53.07,22.20,-56.49,-992.84,140.0,-656.25,-385.0,1,94.543,
01/01/2000,00:55:53.08,22.33,-56.49,-992.84,61.25,-638.75,-367.50,1,94.551,
01/01/2000,00:55:53.09,22.33,-56.49,-992.59,131.25,-560.0,-306.25,1,94.560,
01/01/2000,00:55:53.10,22.20,-56.36,-992.47,183.75,-848.75,-315.0,1,94.569,
01/01/2000,00:55:53.11,22.08,-56.36,-992.59,87.50,-708.75,-393.75,1,94.577,
01/01/2000,00:55:53.12,22.08,-56.36,-992.71,183.75,-761.25,-271.25,1,94.586,
01/01/2000,00:55:53.13,21.96,-56.36,-992.71,183.75,-595.0,-341.25,1,94.595,
01/01/2000,00:55:53.14,22.08,-56.12,-992.47,122.50,-647.50,-402.50,1,94.603,
01/01/2000,00:55:53.15,22.20,-56.12,-992.35,166.25,-700.0,-393.75,1,94.612,
01/01/2000,00:55:53.16,22.20,-56.12,-992.47,166.25,-752.50,-271.25,1,94.620,
01/01/2000,00:55:53.17,22.20,-56.36,-992.59,271.25,-761.25,-332.50,1,94.629,
01/01/2000,00:55:53.18,22.20,-56.36,-992.84,-8.75,-735.0,-271.25,1,94.488,
01/01/2000,00:55:53.19,22.33,-56.24,-992.96,157.50,-743.75,-350.0,1,94.497,
01/01/2000,00:55:53.20,22.33,-56.36,-992.84,148.75,-743.75,-332.50,1,94.505,
01/01/2000,00:55:53.21,22.45,-56.24,-992.71,105.0,-778.75,-218.75,1,94.514,
01/01/2000,00:55:53.22,22.33,-56.36,-992.59,350.0,-647.50,-393.75,1,94.523,
01/01/2000,00:55:53.23,22.45,-56.36,-992.59,245.0,-647.50,-455.0,1,94.531,
01/01/2000,00:55:53.25,22.57,-56.36,-992.71,183.75,-752.50,-306.25,1,94.540,
01/01/2000,00:55:53.26,22.33,-56.36,-992.71,201.25,-656.25,-288.75,1,94.548,
01/01/2000,00:55:53.27,22.08,-56.24,-992.71,131.25,-691.25,-253.75,1,94.557,
01/01/2000,00:55:53.28,21.96,-56.24,-992.71,8.75,-910.0,-420.0,1,94.565,
01/01/2000,00:55:53.29,22.45,-56.00,-992.96,122.50,-647.50,-350.0,1,94.574,
01/01/2000,00:55:53.30,22.69,-56.12,-992.96,70.0,-708.75,-358.75,1,94.582,
01/01/2000,00:55:53.31,22.45,-56.24,-992.84,157.50,-778.75,-358.75,1,94.590,
01/01/2000,00:55:53.32,22.20,-56.36,-992.84,166.25,-638.75,-393.75,1,94.599,
01/01/2000,00:55:53.33,22.33,-56.12,-992.84,288.75,-603.75,-420.0,1,94.607,
01/01/2000,00:55:53.34,22.45,-55.88,-993.08,26.25,-717.50,-341.25,1,94.615,
01/01/2000,00:55:53.35,22.20,-55.88,-992.84,245.0,-682.50,-288.75,1,94.624,
01/01/2000,00:55:53.36,22.20,-56.00,-992.59,140.0,-770.0,-367.50,1,94.632,
01/01/2000,00:55:53.37,22.08,-56.24,-992.47,78.75,-761.25,-315.0,1,94.640,
01/01/2000,00:55:53.38,22.20,-56.12,-992.59,175.0,-673.75,-385.0,1,94.648,
01/01/2000,00:55:53.39,22.33,-56.12,-992.84,210.0,-612.50,-306.25,1,94.512,
01/01/2000,00:55:53.40,22.20,-56.12,-992.96,-8.75,-682.50,-271.25,1,94.521,
01/01/2000,00:55:53.41,22.08,-56.12,-993.08,113.75,-595.0,-385.0,1,94.529,
01/01/2000,00:55:53.42,21.96,-56.00,-993.20,201.25,-813.75,-297.50,1,94.537,
01/01/2000,00:55:53.43,22.20,-56.12,-993.08,148.75,-787.50,-306.25,1,94.545,
01/01/2000,00:55:53.44,22.33,-56.24,-992.96,70.0,-822.50,-280.0,1,94.554,
01/01/2000,00:55:53.46,22.20,-56.36,-992.84,192.50,-595.0,-385.0,1,94.562,
01/01/2000,00:55:53.47,22.20,-56.49,-992.84,140.0,-612.50,-280.0,1,94.570,
01/01/2000,00:55:53.48,22.08,-56.36,-992.96,175.0,-726.25,-306.25,1,94.436,
01/01/2000,00:55:53.49,22.20,-56.49,-993.08,201.25,-656.25,-358.75,1,94.444,
01/01/2000,00:55:53.50,22.08,-56.61,-993.08,210.0,-787.50,-297.50,1,94.453,
01/01/2000,00:55:53.51,22.20,-56.73,-992.84,245.0,-630.0,-341.25,1,94.461,
01/01/2000,00:55:53.52,22.08,-56.61,-992.84,306.25,-787.50,-402.50,1,94.469,
01/01/2000,00:55:53.53,22.08,-56.61,-992.84,201.25,-700.0,-245.0,1,94.478,
01/01/2000,00:55:53.54,22.20,-56.36,-993.08,148.75,-673.75,-280.0,1,94.486,
01/01/2000,00:55:53.56,22.20,-56.36,-992.96,96.25,-770.0,-315.0,1,94.494,
01/01/2000,00:55:53.56,22.20,-56.36,-992.71,183.75,-665.0,-367.50,1,94.502,
01/01/2000,00:55:53.58,22.20,-56.24,-992.71,271.25,-682.50,-332.50,1,94.510,
01/01/2000,00:55:53.59,22.20,-56.36,-992.71,26.25,-778.75,-306.25,1,94.519,
01/01/2000,00:55:53.60,22.33,-56.36,-992.84,148.75,-708.75,-385.0,1,94.527,
01/01/2000,00:55:53.61,22.33,-56.36,-992.84,148.75,-743.75,-376.25,1,94.535,
01/01/2000,00:55:53.62,22.33,-56.49,-992.96,113.75,-603.75,-393.75,1,94.543,
01/01/2000,00:55:53.63,22.08,-56.36,-992.96,183.75,-700.0,-332.50,1,94.551,
01/01/2000,00:55:53.64,22.20,-56.49,-992.84,26.25,-726.25,-402.50,1,94.559,
01/01/2000,00:55:53.65,22.33,-56.36,-992.84,105.0,-770.0,-350.0,1,94.567,
01/01/2000,00:55:53.66,22.33,-56.36,-992.84,183.75,-682.50,-306.25,1,94.575,
01/01/2000,00:55:53.67,22.45,-56.36,-992.84,157.50,-630.0,-428.75,1,94.583,
01/01/2000,00:55:53.68,22.45,-56.12,-992.84,175.0,-673.75,-385.0,1,94.591,
01/01/2000,00:55:53.69,22.57,-56.12,-992.71,122.50,-647.50,-393.75,1,94.599,
01/01/2000,00:55:53.70,22.45,-56.12,-992.71,131.25,-726.25,-262.50,1,94.606,
01/01/2000,00:55:53.71,22.45,-56.24,-992.47,175.0,-691.25,-323.75,1,94.614,
01/01/2000,00:55:53.72,22.45,-56.24,-992.59,218.75,-586.25,-463.75,1,94.622,
01/01/2000,00:55:53.73,22.57,-56.12,-992.59,52.50,-656.25,-262.50,1,94.630,
01/01/2000,00:55:53.74,22.45,-56.12,-992.47,87.50,-700.0,-315.0,1,94.501,
01/01/2000,00:55:53.75,22.45,-56.12,-992.35,157.50,-673.75,-376.25,1,94.509,
01/01/2000,00:55:53.76,22.45,-56.12,-992.35,61.25,-708.75,-332.50,1,94.517,
01/01/2000,00:55:53.77,22.45,-56.36,-992.59,131.25,-726.25,-367.50,1,94.524,
01/01/2000,00:55:53.78,22.45,-56.12,-992.71,78.75,-638.75,-367.50,1,94.532,
01/01/2000,00:55:53.79,22.45,-56.00,-992.59,166.25,-857.50,-341.25,1,94.540,
01/01/2000,00:55:53.81,22.33,-56.12,-992.59,148.75,-612.50,-227.50,1,94.548,
01/01/2000,00:55:53.82,22.20,-56.12,-992.59,201.25,-647.50,-376.25,1,94.556,
01/01/2000,00:55:53.83,22.33,-56.24,-992.71,227.50,-743.75,-306.25,1,94.564,
01/01/2000,00:55:53.84,22.33,-56.12,-992.96,175.0,-717.50,-367.50,1,94.571,
01/01/2000,00:55:53.85,22.20,-56.12,-992.84,148.75,-717.50,-332.50,1,94.579,
01/01/2000,00:55:53.86,22.20,-56.12,-992.84,175.0,-682.50,-323.75,1,94.587,
01/01/2000,00:55:53.87,22.33,-56.00,-992.71,70.0,-787.50,-350.0,1,94.595,
01/01/2000,00:55:53.88,22.45,-56.00,-992.84,140.0,-691.25,-271.25,1,94.468,
01/01/2000,00:55:53.89,22.33,-56.00,-992.71,210.0,-761.25,-402.50,1,94.476,
01/01/2000,00:55:53.90,22.20,-56.12,-992.71,201.25,-717.50,-463.75,1,94.484,
01/01/2000,00:55:53.91,22.33,-56.12,-992.59,78.75,-708.75,-367.50,1,94.492,
01/01/2000,00:55:53.92,22.45,-56.12,-992.59,157.50,-656.25,-350.0,1,94.499,
01/01/2000,00:55:53.93,22.33,-56.12,-992.71,236.25,-770.0,-210.0,1,94.507,
01/01/2000,00:55:53.94,22.33,-56.12,-992.84,26.25,-647.50,-350.0,1,94.515,
01/01/2000,00:55:53.96,22.33,-56.36,-992.71,61.25,-708.75,-446.25,1,94.522,
01/01/2000,00:55:53.97,22.33,-56.24,-992.84,148.75,-726.25,-411.25,1,94.530,
01/01/2000,00:55:53.98,22.45,-56.24,-992.71,175.0,-665.0,-315.0,1,94.538,
01/01/2000,00:55:53.99,22.45,-56.24,-992.71,280.0,-726.25,-262.50,1,94.545,
01/01/2000,00:55:54.00,22.45,-56.36,-992.71,70.0,-691.25,-323.75,1,94.553,
01/01/2000,00:55:54.01,22.57,-56.36,-992.71,8.75,-665.0,-358.75,1,94.561,
01/01/2000,00:55:54.02,22.57,-56.36,-992.71,210.0,-595.0,-297.50,1,94.568,
01/01/2000,00:55:54.03,22.69,-56.24,-992.71,297.50,-700.0,-350.0,1,94.444,
01/01/2000,00:55:54.04,22.69,-56.24,-992.84,183.75,-787.50,-332.50,1,94.452,
01/01/2000,00:55:54.05,22.57,-56.36,-992.84,245.0,-708.75,-358.75,1,94.460,
01/01/2000,00:55:54.06,22.33,-56.36,-992.96,245.0,-796.25,-358.75,1,94.467,
01/01/2000,00:55:54.07,22.45,-56.24,-993.08,218.75,-735.0,-315.0,1,94.475,
01/01/2000,00:55:54.08,22.57,-56.12,-992.96,218.75,-682.50,-446.25,1,94.483,
01/01/2000,00:55:54.09,22.69,-56.24,-993.08,262.50,-638.75,-358.75,1,94.490,
01/01/2000,00:55:54.10,22.45,-56.36,-993.08,8.75,-805.0,-253.75,1,94.498,
01/01/2000,00:55:54.11,22.45,-56.36,-993.08,35.0,-770.0,-446.25,1,94.505,
01/01/2000,00:55:54.12,22.57,-56.24,-992.96,87.50,-673.75,-332.50,1,94.513,
01/01/2000,00:55:54.13,22.57,-56.36,-992.84,140.0,-735.0,-341.25,1,94.521,
01/01/2000,00:55:54.15,22.45,-56.36,-992.71,122.50,-743.75,-341.25,1,94.528,
01/01/2000,00:55:54.15,22.33,-56.36,-992.71,183.75,-778.75,-420.0,1,94.536,
01/01/2000,00:55:54.17,22.45,-56.36,-992.59,8.75,-717.50,-297.50,1,94.543,
01/01/2000,00:55:54.18,22.45,-56.36,-992.71,280.0,-691.25,-288.75,1,94.550,
01/01/2000,00:55:54.19,22.45,-56.24,-992.84,113.75,-787.50,-271.25,1,94.558,
01/01/2000,00:55:54.20,22.45,-56.12,-992.84,78.75,-743.75,-350.0,1,94.565,
01/01/2000,00:55:54.21,22.45,-56.00,-992.71,70.0,-735.0,-341.25,1,94.573,
01/01/2000,00:55:54.22,22.45,-56.12,-992.59,122.50,-805.0,-332.50,1,94.580,
01/01/2000,00:55:54.23,22.20,-56.00,-992.59,183.75,-665.0,-455.0,1,94.587,
01/01/2000,00:55:54.24,22.57,-55.88,-992.71,306.25,-761.25,-315.0,1,94.595,
01/01/2000,00:55:54.25,22.45,-56.00,-992.71,113.75,-708.75,-315.0,1,94.602,
01/01/2000,00:55:54.26,22.33,-56.12,-992.71,262.50,-665.0,-306.25,1,94.609,
01/01/2000,00:55:54.27,22.33,-56.12,-992.84,245.0,-630.0,-358.75,1,94.616,
01/01/2000,00:55:54.28,22.69,-56.00,-993.08,70.0,-612.50,-192.50,1,94.624,
01/01/2000,00:55:54.29,22.69,-56.00,-993.08,122.50,-630.0,-341.25,1,94.631,
01/01/2000,00:55:54.30,22.45,-56.12,-992.84,297.50,-743.75,-323.75,1,94.511,
01/01/2000,00:55:54.31,22.33,-56.12,-992.71,78.75,-726.25,-402.50,1,94.519,
01/01/2000,00:55:54.32,22.45,-56.12,-992.96,218.75,-682.50,-306.25,1,94.526,
01/01/2000,00:55:54.33,22.57,-56.12,-993.08,280.0,-656.25,-166.25,1,94.533,
01/01/2000,00:55:54.34,22.45,-56.24,-992.84,192.50,-796.25,-385.0,1,94.541,
01/01/2000,00:55:54.35,22.20,-56.24,-992.59,131.25,-630.0,-253.75,1,94.548,
01/01/2000,00:55:54.36,22.33,-56.24,-992.59,52.50,-700.0,-358.75,1,94.555,
01/01/2000,00:55:54.38,22.45,-56.36,-992.84,227.50,-726.25,-245.0,1,94.562,
01/01/2000,00:55:54.39,22.45,-56.24,-992.84,131.25,-778.75,-358.75,1,94.570,
01/01/2000,00:55:54.40,22.45,-56.12,-992.84,0.0,-717.50,-411.25,1,94.577,
01/01/2000,00:55:54.41,22.45,-56.12,-992.96,192.50,-787.50,-306.25,1,94.584,
01/01/2000,00:55:54.42,22.45,-56.12,-992.84,96.25,-735.0,-341.25,1,94.591,
01/01/2000,00:55:54.43,22.45,-56.24,-992.84,306.25,-787.50,-472.50,1,94.598,
01/01/2000,00:55:54.44,22.57,-56.24,-992.84,61.25,-700.0,-306.25,1,94.605,
01/01/2000,00:55:54.45,22.57,-56.12,-992.84,8.75,-787.50,-315.0,1,94.612,
01/01/2000,00:55:54.46,22.33,-56.12,-992.84,253.75,-700.0,-376.25,1,94.619,
01/01/2000,00:55:54.47,22.33,-56.00,-992.84,122.50,-665.0,-402.50,1,94.503,
01/01/2000,00:55:54.48,22.33,-56.00,-992.71,131.25,-752.50,-323.75,1,94.634,
01/01/2000,00:55:54.49,22.45,-56.00,-992.71,166.25,-708.75,-253.75,1,94.517,
01/01/2000,00:55:54.51,22.45,-56.00,-992.71,192.50,-630.0,-315.0,1,94.524,
01/01/2000,00:55:54.52,22.45,-56.00,-992.59,96.25,-691.25,-315.0,1,94.531,
01/01/2000,00:55:54.53,22.45,-55.88,-992.47,192.50,-551.25,-288.75,1,94.538,
01/01/2000,00:55:54.54,22.33,-56.00,-992.59,131.25,-673.75,-210.0,1,94.545,
01/01/2000,00:55:54.55,22.20,-56.00,-992.47,166.25,-717.50,-376.25,1,94.553,
01/01/2000,00:55:54.56,22.20,-56.00,-992.59,201.25,-735.0,-332.50,1,94.560,
01/01/2000,00:55:54.57,22.20,-56.00,-992.71,332.50,-673.75,-358.75,1,94.567,
01/01/2000,00:55:54.58,22.33,-55.88,-992.59,166.25,-630.0,-323.75,1,94.574,
01/01/2000,00:55:54.59,22.20,-55.88,-992.59,166.25,-778.75,-332.50,1,94.581,
01/01/2000,00:55:54.60,22.20,-55.88,-992.59,253.75,-735.0,-280.0,1,94.588,
01/01/2000,00:55:54.61,22.45,-56.00,-992.84,105.0,-743.75,-402.50,1,94.595,
01/01/2000,00:55:54.62,22.33,-56.12,-992.84,253.75,-656.25,-332.50,1,94.602,
01/01/2000,00:55:54.63,22.20,-56.00,-992.71,43.75,-560.0,-315.0,1,94.608,
01/01/2000,00:55:54.64,22.33,-56.12,-992.47,245.0,-673.75,-420.0,1,94.615,
01/01/2000,00:55:54.65,22.20,-56.12,-992.47,192.50,-595.0,-455.0,1,94.622,
01/01/2000,00:55:54.66,22.33,-56.12,-992.71,227.50,-735.0,-297.50,1,94.508,
01/01/2000,00:55:54.67,22.45,-56.24,-992.71,166.25,-796.25,-236.25,1,94.515,
01/01/2000,00:55:54.68,22.45,-56.12,-992.59,61.25,-743.75,-280.0,1,94.522,
01/01/2000,00:55:54.69,22.45,-56.12,-992.59,96.25,-700.0,-288.75,1,94.529,
01/01/2000,00:55:54.70,22.45,-56.12,-992.59,227.50,-691.25,-306.25,1,94.536,
01/01/2000,00:55:54.71,22.45,-56.12,-992.59,183.75,-700.0,-367.50,1,94.543,
01/01/2000,00:55:54.73,22.57,-56.24,-992.59,175.0,-682.50,-323.75,1,94.550,
01/01/2000,00:55:54.74,22.45,-56.12,-992.47,192.50,-735.0,-253.75,1,94.557,
01/01/2000,00:55:54.75,22.45,-56.12,-992.35,122.50,-726.25,-350.0,1,94.564,
01/01/2000,00:55:54.76,22.45,-56.00,-992.47,262.50,-691.25,-280.0,1,94.571,
01/01/2000,00:55:54.77,22.57,-56.12,-992.71,192.50,-656.25,-402.50,1,94.578,
01/01/2000,00:55:54.78,22.57,-56.36,-992.71,-35.0,-665.0,-245.0,1,94.584,
01/01/2000,00:55:54.79,22.45,-56.36,-992.59,96.25,-691.25,-455.0,1,94.591,
01/01/2000,00:55:54.80,22.69,-56.24,-992.59,236.25,-735.0,-376.25,1,94.479,
01/01/2000,00:55:54.81,22.69,-56.12,-992.59,236.25,-665.0,-262.50,1,94.486,
01/01/2000,00:55:54.82,22.81,-56.12,-992.47,210.0,-673.75,-280.0,1,94.493,
01/01/2000,00:55:54.83,22.69,-56.12,-992.47,210.0,-743.75,-341.25,1,94.500,
01/01/2000,00:55:54.84,22.45,-56.24,-992.35,122.50,-656.25,-297.50,1,94.507,
01/01/2000,00:55:54.85,22.45,-56.12,-992.47,175.0,-700.0,-350.0,1,94.514,
01/01/2000,00:55:54.86,22.33,-56.24,-992.59,210.0,-621.25,-297.50,1,94.521,
01/01/2000,00:55:54.88,22.20,-56.24,-992.71,236.25,-682.50,-332.50,1,94.527,
01/01/2000,00:55:54.89,22.33,-56.12,-992.59,140.0,-787.50,-350.0,1,94.534,
01/01/2000,00:55:54.90,23.18,-56.24,-991.98,140.0,-805.0,-210.0,1,94.541,
01/01/2000,00:55:54.91,22.94,-56.49,-991.86,122.50,-761.25,-148.75,1,94.548,
01/01/2000,00:55:54.92,22.20,-56.85,-992.10,122.50,-743.75,-280.0,1,94.554,
01/01/2000,00:55:54.93,21.72,-56.73,-992.71,201.25,-717.50,-525.0,1,94.561,
01/01/2000,00:55:54.94,22.45,-56.00,-993.08,70.0,-857.50,-577.50,1,94.568,
01/01/2000,00:55:54.95,22.94,-55.75,-992.47,131.25,-603.75,-78.75,1,94.575,
01/01/2000,00:55:54.96,22.57,-56.36,-991.98,192.50,-796.25,-8.75,1,94.581,
01/01/2000,00:55:54.97,22.33,-56.85,-991.98,140.0,-691.25,-428.75,1,94.588,
01/01/2000,00:55:54.98,22.45,-56.97,-992.35,113.75,-726.25,-542.50,1,94.595,
01/01/2000,00:55:54.99,22.45,-56.61,-992.84,148.75,-682.50,-463.75,1,94.601,
01/01/2000,00:55:55.00,22.45,-55.88,-992.71,131.25,-691.25,-271.25,1,94.608,
01/01/2000,00:55:55.02,22.33,-55.75,-991.74,140.0,-665.0,-245.0,1,94.499,
01/01/2000,00:55:55.03,22.08,-56.36,-991.86,96.25,-778.75,-358.75,1,94.505,
01/01/2000,00:55:55.04,22.20,-56.73,-992.35,210.0,-726.25,-446.25,1,94.512,
01/01/2000,00:55:55.05,22.45,-56.73,-992.71,262.50,-603.75,-376.25,1,94.519,
01/01/2000,00:55:55.06,22.45,-56.24,-992.35,166.25,-673.75,-437.50,1,94.526,
01/01/2000,00:55:55.07,22.08,-55.88,-992.10,175.0,-647.50,-288.75,1,94.532,
01/01/2000,00:55:55.08,22.20,-55.75,-992.10,113.75,-656.25,-341.25,1,94.539,
01/01/2000,00:55:55.09,22.45,-55.88,-992.71,78.75,-700.0,-297.50,1,94.545,
01/01/2000,00:55:55.10,22.57,-56.36,-993.08,201.25,-691.25,-367.50,1,94.552,
01/01/2000,00:55:55.11,22.33,-56.49,-992.71,70.0,-770.0,-376.25,1,94.559,
01/01/2000,00:55:55.12,22.20,-56.36,-992.10,166.25,-691.25,-393.75,1,94.565,
01/01/2000,00:55:55.13,22.08,-56.12,-991.74,105.0,-805.0,-288.75,1,94.572,
01/01/2000,00:55:55.14,22.20,-55.75,-992.10,157.50,-761.25,-245.0,1,94.578,
01/01/2000,00:55:55.15,22.20,-55.75,-992.59,253.75,-761.25,-236.25,1,94.471,
01/01/2000,00:55:55.16,22.33,-56.00,-992.59,122.50,-682.50,-358.75,1,94.478,
01/01/2000,00:55:55.17,22.20,-56.36,-991.86,166.25,-743.75,-393.75,1,94.484,
01/01/2000,00:55:55.18,22.20,-56.24,-991.74,131.25,-647.50,-393.75,1,94.491,
01/01/2000,00:55:55.19,22.45,-56.12,-991.86,148.75,-700.0,-367.50,1,94.498,
01/01/2000,00:55:55.20,22.57,-55.88,-992.23,210.0,-700.0,-253.75,1,94.504,
01/01/2000,00:55:55.21,22.45,-55.88,-992.59,201.25,-665.0,-332.50,1,94.511,
01/01/2000,00:55:55.22,22.20,-55.88,-992.47,201.25,-682.50,-341.25,1,94.517,
01/01/2000,00:55:55.23,22.20,-56.00,-992.10,236.25,-673.75,-367.50,1,94.524,
01/01/2000,00:55:55.24,22.33,-56.12,-992.10,201.25,-673.75,-280.0,1,94.530,
01/01/2000,00:55:55.25,22.45,-56.24,-992.35,201.25,-691.25,-420.0,1,94.537,
01/01/2000,00:55:55.26,22.45,-56.36,-992.59,140.0,-717.50,-332.50,1,94.543,
01/01/2000,00:55:55.27,22.33,-56.36,-992.59,166.25,-787.50,-350.0,1,94.550,
01/01/2000,00:55:55.28,22.20,-56.12,-992.59,201.25,-638.75,-376.25,1,94.556,
01/01/2000,00:55:55.30,22.20,-56.12,-992.47,131.25,-656.25,-385.0,1,94.563,
01/01/2000,00:55:55.31,22.45,-55.88,-992.59,210.0,-647.50,-288.75,1,94.569,
01/01/2000,00:55:55.32,22.33,-56.12,-992.71,201.25,-726.25,-297.50,1,94.575,
01/01/2000,00:55:55.33,22.20,-56.24,-992.84,245.0,-700.0,-393.75,1,94.582,
01/01/2000,00:55:55.34,22.08,-56.24,-993.08,227.50,-682.50,-376.25,1,94.588,
01/01/2000,00:55:55.35,22.20,-56.24,-993.08,192.50,-621.25,-323.75,1,94.595,
01/01/2000,00:55:55.36,22.33,-56.24,-992.96,166.25,-603.75,-315.0,1,94.490,
01/01/2000,00:55:55.37,22.20,-56.61,-992.96,183.75,-621.25,-367.50,1,94.496,
01/01/2000,00:55:55.38,22.08,-56.49,-992.84,157.50,-700.0,-367.50,1,94.503,
01/01/2000,00:55:55.39,22.20,-56.36,-992.71,0.0,-630.0,-315.0,1,94.509,
01/01/2000,00:55:55.40,22.20,-56.36,-992.84,227.50,-673.75,-297.50,1,94.516,
01/01/2000,00:55:55.41,22.20,-56.36,-993.08,113.75,-595.0,-271.25,1,94.522,
01/01/2000,00:55:55.42,21.96,-56.36,-993.20,78.75,-752.50,-367.50,1,94.529,
01/01/2000,00:55:55.44,22.20,-56.12,-993.08,201.25,-612.50,-367.50,1,94.535,
01/01/2000,00:55:55.45,22.69,-56.00,-992.84,175.0,-612.50,-323.75,1,94.541,
01/01/2000,00:55:55.46,22.69,-56.12,-992.47,131.25,-682.50,-315.0,1,94.548,
01/01/2000,00:55:55.47,22.45,-56.24,-992.47,236.25,-717.50,-411.25,1,94.554,
01/01/2000,00:55:55.48,22.08,-56.36,-992.71,271.25,-822.50,-402.50,1,94.560,
01/01/2000,00:55:55.49,22.08,-56.12,-993.08,192.50,-603.75,-385.0,1,94.566,
01/01/2000,00:55:55.50,22.08,-55.75,-993.20,113.75,-665.0,-201.25,1,94.573,
01/01/2000,00:55:55.51,22.20,-55.63,-992.84,166.25,-577.50,-175.0,1,94.579,
01/01/2000,00:55:55.52,22.57,-56.12,-992.35,175.0,-866.25,-315.0,1,94.476,
01/01/2000,00:55:55.54,22.45,-56.61,-992.59,96.25,-787.50,-420.0,1,94.483,
01/01/2000,00:55:55.55,22.45,-56.49,-992.84,175.0,-726.25,-385.0,1,94.489,
01/01/2000,00:55:55.56,22.57,-56.12,-992.84,201.25,-805.0,-393.75,1,94.495,
01/01/2000,00:55:55.57,22.45,-55.88,-992.59,43.75,-708.75,-315.0,1,94.502,
01/01/2000,00:55:55.58,22.45,-55.75,-992.47,148.75,-708.75,-192.50,1,94.508,
01/01/2000,00:55:55.59,22.45,-56.12,-992.59,131.25,-761.25,-341.25,1,94.514,
01/01/2000,00:55:55.60,22.45,-56.49,-992.71,166.25,-682.50,-315.0,1,94.521,
01/01/2000,00:55:55.61,22.45,-56.73,-992.84,122.50,-708.75,-411.25,1,94.527,
01/01/2000,00:55:55.62,22.45,-56.36,-992.71,280.0,-761.25,-376.25,1,94.533,
01/01/2000,00:55:55.63,22.69,-55.88,-992.35,262.50,-726.25,-262.50,1,94.539,
01/01/2000,00:55:55.64,22.57,-55.75,-992.10,183.75,-603.75,-218.75,1,94.545,
01/01/2000,00:55:55.65,22.45,-55.88,-992.59,175.0,-691.25,-358.75,1,94.552,
01/01/2000,00:55:55.66,22.45,-56.36,-992.84,113.75,-726.25,-437.50,1,94.558,
01/01/2000,00:55:55.67,22.69,-56.36,-992.96,8.75,-691.25,-350.0,1,94.564,
01/01/2000,00:55:55.68,22.69,-56.24,-992.47,192.50,-682.50,-385.0,1,94.570,
01/01/2000,00:55:55.69,22.57,-56.12,-992.23,113.75,-656.25,-350.0,1,94.576,
01/01/2000,00:55:55.70,22.45,-56.12,-992.23,17.50,-743.75,-315.0,1,94.582,
01/01/2000,00:55:55.71,22.69,-56.36,-992.71,183.75,-603.75,-402.50,1,94.482,
01/01/2000,00:55:55.72,22.69,-56.36,-992.71,236.25,-735.0,-323.75,1,94.488,
01/01/2000,00:55:55.73,22.57,-56.36,-992.59,113.75,-743.75,-358.75,1,94.494,
01/01/2000,00:55:55.74,22.45,-56.24,-992.23,227.50,-761.25,-332.50,1,94.501,
01/01/2000,00:55:55.75,22.33,-56.24,-992.23,297.50,-638.75,-367.50,1,94.507,
01/01/2000,00:55:55.76,22.45,-56.12,-992.59,166.25,-761.25,-323.75,1,94.513,
01/01/2000,00:55:55.77,22.69,-56.12,-992.71,131.25,-673.75,-253.75,1,94.519,
01/01/2000,00:55:55.79,22.45,-56.36,-992.35,148.75,-638.75,-192.50,1,94.525,
01/01/2000,00:55:55.80,22.33,-56.24,-992.10,218.75,-691.25,-350.0,1,94.531,
01/01/2000,00:55:55.81,22.45,-56.36,-992.10,148.75,-743.75,-367.50,1,94.537,
01/01/2000,00:55:55.82,22.69,-56.24,-992.35,70.0,-822.50,-245.0,1,94.543,
01/01/2000,00:55:55.83,22.45,-56.36,-992.47,192.50,-647.50,-323.75,1,94.549,
01/01/2000,00:55:55.84,22.20,-56.36,-992.47,87.50,-735.0,-367.50,1,94.556,
01/01/2000,00:55:55.85,22.20,-56.36,-992.35,236.25,-805.0,-428.75,1,94.562,
01/01/2000,00:55:55.86,22.20,-56.24,-992.35,70.0,-796.25,-297.50,1,94.568,
01/01/2000,00:55:55.87,22.33,-56.24,-992.35,96.25,-673.75,-271.25,1,94.574,
01/01/2000,00:55:55.88,22.33,-56.49,-992.35,332.50,-735.0,-297.50,1,94.580,
01/01/2000,00:55:55.89,22.20,-56.49,-992.10,0.0,-770.0,-341.25,1,94.586,
01/01/2000,00:55:55.90,22.20,-56.61,-992.10,227.50,-700.0,-350.0,1,94.592,
01/01/2000,00:55:55.91,22.08,-56.36,-992.35,183.75,-656.25,-323.75,1,94.598,
01/01/2000,00:55:55.92,22.20,-56.12,-992.35,70.0,-638.75,-350.0,1,94.499,
01/01/2000,00:55:55.94,22.33,-56.24,-992.35,96.25,-700.0,-227.50,1,94.505,
01/01/2000,00:55:55.94,22.20,-56.49,-992.35,192.50,-682.50,-376.25,1,94.512,
01/01/2000,00:55:55.96,22.20,-56.49,-992.23,8.75,-708.75,-332.50,1,94.518,
01/01/2000,00:55:55.97,22.33,-56.36,-992.10,245.0,-708.75,-297.50,1,94.524,
01/01/2000,00:55:55.98,22.33,-56.36,-992.23,-17.50,-770.0,-280.0,1,94.530,
01/01/2000,00:55:55.99,22.20,-56.36,-992.35,192.50,-647.50,-411.25,1,94.536,
01/01/2000,00:55:56.00,22.20,-56.36,-992.35,245.0,-743.75,-315.0,1,94.541,
01/01/2000,00:55:56.01,22.20,-56.36,-992.23,175.0,-717.50,-323.75,1,94.547,
01/01/2000,00:55:56.02,22.08,-56.24,-992.10,192.50,-752.50,-306.25,1,94.553,
01/01/2000,00:55:56.04,22.20,-56.00,-992.10,157.50,-717.50,-446.25,1,94.457,
01/01/2000,00:55:56.05,22.20,-56.00,-992.10,218.75,-708.75,-385.0,1,94.463,
01/01/2000,00:55:56.06,22.20,-55.75,-992.35,70.0,-752.50,-420.0,1,94.469,
01/01/2000,00:55:56.07,22.33,-56.00,-992.35,236.25,-656.25,-271.25,1,94.475,
01/01/2000,00:55:56.08,22.20,-56.00,-992.35,236.25,-691.25,-376.25,1,94.481,
01/01/2000,00:55:56.09,22.20,-56.12,-992.35,78.75,-726.25,-455.0,1,94.486,
01/01/2000,00:55:56.10,22.20,-56.00,-992.47,157.50,-761.25,-280.0,1,94.492,
01/01/2000,00:55:56.11,22.20,-56.24,-992.59,52.50,-700.0,-385.0,1,94.498,
01/01/2000,00:55:56.12,22.20,-56.12,-992.35,157.50,-717.50,-446.25,1,94.504,
01/01/2000,00:55:56.13,22.20,-56.24,-992.35,140.0,-656.25,-280.0,1,94.510,
01/01/2000,00:55:56.14,22.33,-56.12,-992.35,271.25,-691.25,-271.25,1,94.516,
01/01/2000,00:55:56.15,22.33,-56.12,-992.23,96.25,-726.25,-428.75,1,94.522,
01/01/2000,00:55:56.16,22.33,-56.12,-992.10,35.0,-577.50,-332.50,1,94.528,
01/01/2000,00:55:56.17,22.33,-56.12,-992.23,96.25,-630.0,-288.75,1,94.534,
01/01/2000,00:55:56.18,22.33,-55.88,-992.35,52.50,-612.50,-341.25,1,94.540,
01/01/2000,00:55:56.19,22.45,-56.00,-992.35,245.0,-805.0,-227.50,1,94.545,
01/01/2000,00:55:56.20,22.33,-56.00,-992.47,96.25,-708.75,-393.75,1,94.551,
01/01/2000,00:55:56.21,22.45,-56.00,-992.23,192.50,-708.75,-376.25,1,94.456,
01/01/2000,00:55:56.22,22.33,-56.00,-992.23,280.0,-708.75,-323.75,1,94.462,
01/01/2000,00:55:56.23,22.20,-56.00,-992.23,70.0,-682.50,-323.75,1,94.468,
01/01/2000,00:55:56.24,22.33,-56.00,-992.35,175.0,-630.0,-411.25,1,94.474,
01/01/2000,00:55:56.25,22.45,-55.88,-992.47,227.50,-603.75,-288.75,1,94.480,
01/01/2000,00:55:56.26,22.57,-56.00,-992.59,201.25,-682.50,-323.75,1,94.486,
01/01/2000,00:55:56.27,22.57,-56.12,-992.47,105.0,-717.50,-420.0,1,94.492,
01/01/2000,00:55:56.29,22.45,-56.24,-992.35,157.50,-717.50,-315.0,1,94.497,
01/01/2000,00:55:56.30,22.45,-56.36,-992.10,113.75,-700.0,-446.25,1,94.503,
01/01/2000,00:55:56.31,22.57,-56.12,-992.35,52.50,-708.75,-420.0,1,94.509,
01/01/2000,00:55:56.32,22.69,-55.88,-992.47,131.25,-691.25,-393.75,1,94.515,
01/01/2000,00:55:56.33,22.69,-55.88,-992.35,210.0,-700.0,-288.75,1,94.521,
01/01/2000,00:55:56.34,22.69,-55.88,-992.23,105.0,-656.25,-288.75,1,94.526,
01/01/2000,00:55:56.35,22.45,-56.12,-992.23,192.50,-612.50,-341.25,1,94.532,
01/01/2000,00:55:56.36,22.57,-56.00,-992.35,227.50,-673.75,-315.0,1,94.538,
01/01/2000,00:55:56.37,22.69,-56.12,-992.59,43.75,-726.25,-367.50,1,94.544,
01/01/2000,00:55:56.38,22.57,-56.00,-992.35,105.0,-761.25,-323.75,1,94.549,
01/01/2000,00:55:56.39,22.45,-56.00,-992.10,210.0,-752.50,-280.0,1,94.555,
01/01/2000,00:55:56.40,22.45,-56.12,-992.10,70.0,-577.50,-402.50,1,94.561,
01/01/2000,00:55:56.41,22.45,-56.12,-992.35,148.75,-691.25,-315.0,1,94.566,
01/01/2000,00:55:56.42,22.57,-56.12,-992.47,166.25,-673.75,-376.25,1,94.473,
01/01/2000,00:55:56.43,22.33,-56.12,-992.35,70.0,-638.75,-393.75,1,94.479,
01/01/2000,00:55:56.44,22.20,-56.12,-992.35,218.75,-717.50,-402.50,1,94.485,
01/01/2000,00:55:56.45,22.45,-56.12,-992.35,131.25,-743.75,-411.25,1,94.491,
01/01/2000,00:55:56.46,22.45,-56.12,-992.59,148.75,-726.25,-315.0,1,94.496,
01/01/2000,00:55:56.47,22.45,-56.12,-992.47,192.50,-770.0,-306.25,1,94.502,
01/01/2000,00:55:56.48,22.33,-56.12,-992.47,70.0,-630.0,-253.75,1,94.508,
01/01/2000,00:55:56.50,22.45,-56.12,-992.35,35.0,-743.75,-350.0,1,94.513,
01/01/2000,00:55:56.51,22.57,-56.12,-992.47,201.25,-787.50,-358.75,1,94.519,
01/01/2000,00:55:56.52,22.45,-56.12,-992.59,157.50,-717.50,-350.0,1,94.525,
01/01/2000,00:55:56.53,22.45,-56.12,-992.59,140.0,-770.0,-367.50,1,94.530,
01/01/2000,00:55:56.54,22.45,-56.00,-992.59,148.75,-691.25,-437.50,1,94.439,
01/01/2000,00:55:56.55,22.45,-56.00,-992.71,262.50,-621.25,-306.25,1,94.444,
01/01/2000,00:55:56.56,22.45,-56.00,-992.59,52.50,-726.25,-280.0,1,94.450,
01/01/2000,00:55:56.57,22.45,-56.12,-992.59,271.25,-787.50,-402.50,1,94.456,
01/01/2000,00:55:56.58,22.45,-56.00,-992.71,113.75,-638.75,-350.0,1,94.462,
01/01/2000,00:55:56.59,22.45,-56.12,-992.47,131.25,-735.0,-385.0,1,94.467,
01/01/2000,00:55:56.60,22.45,-56.12,-992.59,131.25,-752.50,-315.0,1,94.473,
01/01/2000,00:55:56.61,22.45,-56.12,-992.59,210.0,-682.50,-385.0,1,94.479,
01/01/2000,00:55:56.62,22.45,-56.24,-992.59,131.25,-691.25,-280.0,1,94.484,
01/01/2000,00:55:56.64,22.45,-56.12,-992.47,157.50,-717.50,-332.50,1,94.490,
01/01/2000,00:55:56.65,22.33,-56.12,-992.47,175.0,-621.25,-393.75,1,94.495,
01/01/2000,00:55:56.66,22.20,-56.24,-992.47,122.50,-761.25,-332.50,1,94.501,
01/01/2000,00:55:56.67,22.33,-56.12,-992.35,218.75,-708.75,-288.75,1,94.507,
01/01/2000,00:55:56.68,22.33,-56.24,-992.23,148.75,-665.0,-420.0,1,94.512,
01/01/2000,00:55:56.69,22.33,-56.24,-992.10,52.50,-630.0,-341.25,1,94.518,
01/01/2000,00:55:56.70,22.20,-56.36,-992.10,157.50,-691.25,-350.0,1,94.523,
01/01/2000,00:55:56.71,22.33,-56.24,-992.23,131.25,-603.75,-280.0,1,94.529,
01/01/2000,00:55:56.72,22.45,-56.24,-992.35,227.50,-752.50,-341.25,1,94.534,
01/01/2000,00:55:56.73,22.57,-56.12,-992.23,175.0,-796.25,-271.25,1,94.540,
01/01/2000,00:55:56.74,22.69,-56.12,-992.23,210.0,-630.0,-367.50,1,94.545,
01/01/2000,00:55:56.75,22.69,-56.24,-992.23,61.25,-691.25,-376.25,1,94.551,
01/01/2000,00:55:56.76,22.57,-56.24,-992.35,315.0,-700.0,-341.25,1,94.556,
01/01/2000,00:55:56.77,22.57,-56.12,-992.47,43.75,-708.75,-358.75,1,94.467,
01/01/2000,00:55:56.78,22.69,-56.00,-992.35,218.75,-603.75,-350.0,1,94.472,
01/01/2000,00:55:56.79,22.57,-55.88,-992.23,61.25,-691.25,-280.0,1,94.478,
01/01/2000,00:55:56.80,22.45,-55.88,-992.10,245.0,-691.25,-402.50,1,94.483,
01/01/2000,00:55:56.81,22.45,-56.00,-992.10,105.0,-656.25,-332.50,1,94.489,
01/01/2000,00:55:56.82,22.45,-56.12,-992.23,-52.50,-700.0,-393.75,1,94.494,
01/01/2000,00:55:56.83,22.45,-56.00,-992.10,148.75,-735.0,-245.0,1,94.500,
01/01/2000,00:55:56.85,22.45,-55.88,-992.10,96.25,-787.50,-227.50,1,94.505,
01/01/2000,00:55:56.86,22.33,-55.88,-992.23,192.50,-665.0,-245.0,1,94.511,
01/01/2000,00:55:56.87,22.45,-55.88,-992.23,201.25,-700.0,-358.75,1,94.516,
01/01/2000,00:55:56.88,22.45,-56.00,-992.23,61.25,-647.50,-376.25,1,94.522,
01/01/2000,00:55:56.89,22.45,-56.12,-992.23,78.75,-735.0,-402.50,1,94.527,
01/01/2000,00:55:56.90,22.33,-56.12,-992.23,52.50,-761.25,-332.50,1,94.533,
01/01/2000,00:55:56.91,22.33,-56.12,-992.10,227.50,-726.25,-332.50,1,94.538,
01/01/2000,00:55:56.92,22.45,-56.12,-992.35,218.75,-621.25,-402.50,1,94.450,
01/01/2000,00:55:56.93,22.45,-56.12,-992.23,105.0,-700.0,-315.0,1,94.455,
01/01/2000,00:55:56.94,22.45,-56.36,-992.10,227.50,-796.25,-271.25,1,94.461,
01/01/2000,00:55:56.95,22.45,-56.49,-991.98,122.50,-840.0,-350.0,1,94.466,
01/01/2000,00:55:56.96,22.45,-56.36,-991.98,17.50,-822.50,-350.0,1,94.472,
01/01/2000,00:55:56.97,22.45,-56.49,-992.10,52.50,-717.50,-332.50,1,94.477,
01/01/2000,00:55:56.99,22.33,-56.36,-992.47,35.0,-717.50,-280.0,1,94.483,
01/01/2000,00:55:57.00,22.45,-56.24,-992.23,201.25,-647.50,-122.50,1,94.488,
01/01/2000,00:55:57.01,22.33,-56.12,-992.10,166.25,-822.50,-428.75,1,94.494,
01/01/2000,00:55:57.02,22.20,-56.24,-992.10,192.50,-700.0,-411.25,1,94.499,
01/01/2000,00:55:57.03,22.20,-56.36,-992.23,183.75,-603.75,-271.25,1,94.504,
01/01/2000,00:55:57.04,22.20,-56.12,-992.35,175.0,-682.50,-376.25,1,94.510,
01/01/2000,00:55:57.05,22.20,-56.00,-992.35,227.50,-778.75,-236.25,1,94.423,
01/01/2000,00:55:57.07,22.20,-56.12,-992.23,131.25,-691.25,-420.0,1,94.428,
01/01/2000,00:55:57.08,22.33,-56.12,-992.35,43.75,-717.50,-446.25,1,94.434,
01/01/2000,00:55:57.09,22.45,-56.00,-992.35,192.50,-638.75,-262.50,1,94.439,
01/01/2000,00:55:57.10,22.57,-55.88,-992.35,52.50,-665.0,-306.25,1,94.444,
01/01/2000,00:55:57.11,22.45,-55.88,-992.47,105.0,-778.75,-385.0,1,94.450,
01/01/2000,00:55:57.12,22.33,-55.88,-992.35,96.25,-726.25,-280.0,1,94.455,
01/01/2000,00:55:57.13,22.33,-55.88,-992.10,157.50,-630.0,-297.50,1,94.461,
01/01/2000,00:55:57.14,22.33,-55.75,-992.35,183.75,-743.75,-306.25,1,94.466,
01/01/2000,00:55:57.15,22.33,-56.00,-992.35,87.50,-638.75,-297.50,1,94.471,
01/01/2000,00:55:57.16,22.33,-56.12,-992.23,148.75,-717.50,-367.50,1,94.477,
01/01/2000,00:55:57.17,22.20,-56.12,-992.35,280.0,-796.25,-332.50,1,94.482,
01/01/2000,00:55:57.18,22.33,-56.00,-992.35,105.0,-638.75,-376.25,1,94.487,
01/01/2000,00:55:57.19,22.33,-56.00,-992.35,87.50,-621.25,-385.0,1,94.493,
01/01/2000,00:55:57.20,22.20,-56.12,-992.35,87.50,-638.75,-367.50,1,94.498,
01/01/2000,00:55:57.21,22.20,-56.00,-992.10,113.75,-577.50,-297.50,1,94.503,
01/01/2000,00:55:57.22,22.33,-56.12,-992.23,131.25,-595.0,-297.50,1,94.509,
01/01/2000,00:55:57.23,22.45,-56.24,-992.23,183.75,-621.25,-385.0,1,94.514,
01/01/2000,00:55:57.24,22.45,-56.24,-992.23,306.25,-761.25,-332.50,1,94.519,
01/01/2000,00:55:57.25,22.45,-56.12,-992.10,227.50,-700.0,-358.75,1,94.524,
01/01/2000,00:55:57.26,22.57,-56.12,-992.10,175.0,-656.25,-245.0,1,94.530,
01/01/2000,00:55:57.27,22.57,-56.24,-992.23,157.50,-568.75,-367.50,1,94.444,
01/01/2000,00:55:57.29,22.57,-56.12,-992.35,175.0,-647.50,-288.75,1,94.450,
01/01/2000,00:55:57.29,22.57,-56.36,-992.10,43.75,-770.0,-332.50,1,94.455,
01/01/2000,00:55:57.31,22.33,-56.24,-992.10,157.50,-752.50,-306.25,1,94.460,
01/01/2000,00:55:57.32,22.33,-56.12,-992.10,227.50,-735.0,-376.25,1,94.466,
01/01/2000,00:55:57.33,22.45,-56.12,-992.35,148.75,-595.0,-341.25,1,94.471,
01/01/2000,00:55:57.34,22.45,-56.12,-992.23,201.25,-682.50,-245.0,1,94.476,
01/01/2000,00:55:57.35,22.33,-56.24,-992.23,236.25,-647.50,-367.50,1,94.481,
01/01/2000,00:55:57.36,22.33,-56.36,-992.23,166.25,-708.75,-236.25,1,94.487,
01/01/2000,00:55:57.37,22.45,-56.36,-992.35,175.0,-673.75,-428.75,1,94.492,
01/01/2000,00:55:57.38,22.45,-56.24,-992.35,78.75,-735.0,-297.50,1,94.497,
01/01/2000,00:55:57.39,22.33,-56.36,-992.35,166.25,-621.25,-385.0,1,94.502,
01/01/2000,00:55:57.40,22.33,-56.36,-992.35,96.25,-621.25,-306.25,1,94.508,
01/01/2000,00:55:57.41,22.45,-56.36,-992.23,183.75,-691.25,-367.50,1,94.423,
01/01/2000,00:55:57.42,22.57,-56.36,-992.23,227.50,-673.75,-332.50,1,94.429,
01/01/2000,00:55:57.43,22.57,-56.36,-992.10,218.75,-743.75,-376.25,1,94.434,
01/01/2000,00:55:57.44,22.57,-56.12,-992.10,157.50,-761.25,-358.75,1,94.439,
01/01/2000,00:55:57.45,22.57,-56.12,-992.23,96.25,-735.0,-297.50,1,94.444,
01/01/2000,00:55:57.46,22.45,-56.00,-992.23,148.75,-770.0,-437.50,1,94.450,
01/01/2000,00:55:57.47,22.45,-56.12,-992.10,157.50,-735.0,-455.0,1,94.455,
01/01/2000,00:55:57.49,22.45,-56.00,-992.10,87.50,-700.0,-288.75,1,94.460,
01/01/2000,00:55:57.50,22.69,-56.12,-992.10,105.0,-813.75,-358.75,1,94.465,
01/01/2000,00:55:57.51,22.57,-56.00,-992.10,210.0,-691.25,-428.75,1,94.470,
01/01/2000,00:55:57.52,22.57,-55.88,-992.10,70.0,-673.75,-385.0,1,94.476,
01/01/2000,00:55:57.53,22.57,-55.88,-992.35,157.50,-621.25,-315.0,1,94.481,
01/01/2000,00:55:57.54,22.57,-55.88,-992.35,166.25,-665.0,-280.0,1,94.486,
01/01/2000,00:55:57.55,22.57,-55.88,-992.23,157.50,-621.25,-350.0,1,94.491,
01/01/2000,00:55:57.56,22.57,-56.00,-992.10,218.75,-708.75,-385.0,1,94.408,
01/01/2000,00:55:57.58,22.69,-55.88,-992.10,166.25,-735.0,-280.0,1,94.413,
01/01/2000,00:55:57.59,22.57,-55.88,-992.23,122.50,-735.0,-253.75,1,94.419,
01/01/2000,00:55:57.60,22.57,-55.88,-992.35,183.75,-665.0,-315.0,1,94.424,
01/01/2000,00:55:57.61,22.45,-56.00,-992.35,113.75,-726.25,-323.75,1,94.429,
01/01/2000,00:55:57.62,22.33,-56.00,-992.35,87.50,-752.50,-393.75,1,94.434,
01/01/2000,00:55:57.63,22.45,-55.88,-992.59,61.25,-621.25,-367.50,1,94.439,
01/01/2000,00:55:57.64,22.57,-55.63,-992.35,166.25,-665.0,-332.50,1,94.444,
01/01/2000,00:55:57.65,22.45,-55.63,-992.35,35.0,-638.75,-262.50,1,94.450,
01/01/2000,00:55:57.66,22.33,-55.88,-992.35,122.50,-673.75,-393.75,1,94.455,
01/01/2000,00:55:57.67,22.33,-55.88,-992.35,140.0,-761.25,-288.75,1,94.460,
01/01/2000,00:55:57.68,22.33,-56.00,-992.47,227.50,-717.50,-411.25,1,94.465,
01/01/2000,00:55:57.69,22.33,-56.12,-992.47,332.50,-673.75,-367.50,1,94.470,
01/01/2000,00:55:57.70,22.33,-56.12,-992.35,218.75,-726.25,-280.0,1,94.475,
01/01/2000,00:55:57.71,22.33,-56.12,-992.35,148.75,-700.0,-376.25,1,94.480,
01/01/2000,00:55:57.72,22.33,-56.12,-992.35,192.50,-761.25,-297.50,1,94.485,
01/01/2000,00:55:57.73,22.33,-56.12,-992.23,52.50,-743.75,-236.25,1,94.490,
01/01/2000,00:55:57.74,22.20,-56.24,-992.10,148.75,-638.75,-332.50,1,94.495,
01/01/2000,00:55:57.75,22.20,-56.24,-992.10,140.0,-656.25,-358.75,1,94.500,
01/01/2000,00:55:57.76,22.33,-56.12,-992.10,140.0,-752.50,-306.25,1,94.419,
01/01/2000,00:55:57.77,22.33,-56.12,-992.10,140.0,-752.50,-306.25,1,94.424,
01/01/2000,00:55:57.78,22.45,-56.00,-992.23,201.25,-717.50,-341.25,1,94.429,
01/01/2000,00:55:57.79,22.45,-56.12,-992.35,262.50,-691.25,-358.75,1,94.434,
01/01/2000,00:55:57.80,22.57,-56.00,-992.35,52.50,-726.25,-341.25,1,94.439,
01/01/2000,00:55:57.81,22.45,-56.12,-992.10,113.75,-700.0,-245.0,1,94.444,
01/01/2000,00:55:57.82,22.69,-56.12,-991.98,96.25,-778.75,-306.25,1,94.450,
01/01/2000,00:55:57.84,22.69,-56.00,-991.86,140.0,-656.25,-271.25,1,94.455,
01/01/2000,00:55:57.85,22.57,-55.88,-992.10,157.50,-665.0,-367.50,1,94.460,
01/01/2000,00:55:57.86,22.45,-56.12,-992.23,236.25,-708.75,-341.25,1,94.465,
01/01/2000,00:55:57.87,22.45,-55.88,-992.10,122.50,-761.25,-332.50,1,94.470,
01/01/2000,00:55:57.88,22.45,-56.00,-992.10,288.75,-717.50,-350.0,1,94.475,
01/01/2000,00:55:57.89,22.57,-55.88,-992.23,201.25,-665.0,-262.50,1,94.480,
01/01/2000,00:55:57.90,22.45,-55.88,-992.10,157.50,-717.50,-463.75,1,94.485,
01/01/2000,00:55:57.91,22.33,-56.00,-992.10,201.25,-805.0,-367.50,1,94.490,
01/01/2000,00:55:57.92,22.33,-56.00,-992.10,183.75,-743.75,-297.50,1,94.495,
01/01/2000,00:55:57.93,22.57,-55.88,-992.10,96.25,-770.0,-245.0,1,94.500,
01/01/2000,00:55:57.94,22.45,-55.88,-992.10,43.75,-682.50,-210.0,1,94.505,
01/01/2000,00:55:57.95,22.20,-56.12,-991.98,218.75,-726.25,-367.50,1,94.509,
01/01/2000,00:55:57.96,22.20,-56.12,-991.86,271.25,-656.25,-280.0,1,94.514,
01/01/2000,00:55:57.98,22.57,-56.12,-992.10,245.0,-673.75,-350.0,1,94.434,
01/01/2000,00:55:57.99,22.57,-55.88,-992.10,210.0,-682.50,-411.25,1,94.439,
01/01/2000,00:55:58.00,22.45,-56.12,-992.10,280.0,-743.75,-210.0,1,94.444,
01/01/2000,00:55:58.01,22.57,-56.12,-991.98,183.75,-673.75,-411.25,1,94.449,
01/01/2000,00:55:58.02,22.57,-56.12,-992.23,192.50,-630.0,-315.0,1,94.454,
01/01/2000,00:55:58.03,22.69,-56.00,-992.35,201.25,-743.75,-332.50,1,94.459,
01/01/2000,00:55:58.04,22.45,-55.88,-992.35,43.75,-761.25,-411.25,1,94.464,
01/01/2000,00:55:58.05,22.45,-56.00,-992.10,218.75,-638.75,-306.25,1,94.469,
01/01/2000,00:55:58.06,22.33,-56.12,-992.10,236.25,-708.75,-288.75,1,94.474,
01/01/2000,00:55:58.07,22.20,-56.12,-992.35,140.0,-752.50,-350.0,1,94.395,
01/01/2000,00:55:58.08,22.20,-56.00,-992.35,148.75,-761.25,-236.25,1,94.400,
01/01/2000,00:55:58.09,22.20,-56.12,-992.35,288.75,-595.0,-288.75,1,94.405,
01/01/2000,00:55:58.10,22.20,-56.12,-992.23,210.0,-726.25,-376.25,1,94.410,
01/01/2000,00:55:58.11,22.20,-56.12,-992.23,166.25,-770.0,-385.0,1,94.415,
01/01/2000,00:55:58.13,22.33,-56.24,-992.35,157.50,-708.75,-393.75,1,94.420,
01/01/2000,00:55:58.14,22.20,-56.12,-992.35,157.50,-673.75,-367.50,1,94.425,
01/01/2000,00:55:58.15,22.20,-56.12,-992.23,131.25,-665.0,-280.0,1,94.430,
01/01/2000,00:55:58.16,22.20,-56.12,-992.10,96.25,-735.0,-385.0,1,94.435,
01/01/2000,00:55:58.17,22.20,-56.12,-992.35,52.50,-735.0,-280.0,1,94.440,
01/01/2000,00:55:58.18,22.33,-56.24,-992.35,210.0,-673.75,-315.0,1,94.444,
01/01/2000,00:55:58.19,22.33,-56.12,-992.23,192.50,-691.25,-367.50,1,94.449,
01/01/2000,00:55:58.20,22.33,-56.24,-992.10,201.25,-665.0,-288.75,1,94.454,
01/01/2000,00:55:58.21,22.33,-56.12,-991.86,218.75,-735.0,-262.50,1,94.459,
01/01/2000,00:55:58.22,22.45,-56.00,-991.74,105.0,-778.75,-315.0,1,94.464,
01/01/2000,00:55:58.23,22.33,-56.12,-991.86,140.0,-612.50,-367.50,1,94.469,
01/01/2000,00:55:58.24,22.33,-56.24,-991.98,131.25,-682.50,-227.50,1,94.474,
01/01/2000,00:55:58.25,22.33,-56.12,-992.10,148.75,-595.0,-385.0,1,94.479,
01/01/2000,00:55:58.26,22.33,-56.12,-992.23,192.50,-743.75,-350.0,1,94.483,
01/01/2000,00:55:58.27,22.33,-56.00,-992.10,157.50,-656.25,-271.25,1,94.488,
01/01/2000,00:55:58.28,22.33,-56.12,-992.23,175.0,-726.25,-402.50,1,94.493,
01/01/2000,00:55:58.29,22.45,-56.24,-992.35,192.50,-726.25,-332.50,1,94.498,
01/01/2000,00:55:58.30,22.45,-56.36,-992.47,175.0,-708.75,-323.75,1,94.503,
01/01/2000,00:55:58.31,22.33,-56.36,-992.47,113.75,-612.50,-341.25,1,94.507,
01/01/2000,00:55:58.32,22.33,-56.36,-992.35,218.75,-691.25,-341.25,1,94.512,
01/01/2000,00:55:58.33,22.33,-56.12,-992.10,140.0,-612.50,-323.75,1,94.435,
01/01/2000,00:55:58.34,22.33,-56.12,-992.10,96.25,-551.25,-341.25,1,94.440,
01/01/2000,00:55:58.35,22.45,-56.12,-992.10,236.25,-682.50,-411.25,1,94.444,
01/01/2000,00:55:58.36,22.33,-56.12,-992.23,253.75,-638.75,-411.25,1,94.449,
01/01/2000,00:55:58.37,22.33,-56.12,-992.23,122.50,-770.0,-245.0,1,94.454,
01/01/2000,00:55:58.38,22.45,-55.88,-991.98,227.50,-700.0,-315.0,1,94.459,
01/01/2000,00:55:58.40,22.45,-55.88,-991.86,70.0,-726.25,-245.0,1,94.464,
01/01/2000,00:55:58.41,22.45,-56.12,-991.86,87.50,-673.75,-420.0,1,94.468,
01/01/2000,00:55:58.42,22.45,-56.12,-991.98,35.0,-708.75,-376.25,1,94.473,
01/01/2000,00:55:58.43,22.45,-56.12,-992.10,122.50,-743.75,-402.50,1,94.478,
01/01/2000,00:55:58.44,22.45,-56.12,-991.98,61.25,-700.0,-297.50,1,94.483,
01/01/2000,00:55:58.45,22.45,-56.12,-991.86,218.75,-673.75,-262.50,1,94.488,
01/01/2000,00:55:58.46,22.33,-56.49,-991.98,105.0,-682.50,-332.50,1,94.492,
01/01/2000,00:55:58.47,22.20,-56.36,-992.23,105.0,-638.75,-393.75,1,94.497,
01/01/2000,00:55:58.48,22.33,-56.61,-992.23,271.25,-621.25,-323.75,1,94.502,
01/01/2000,00:55:58.49,22.45,-56.36,-992.10,201.25,-796.25,-332.50,1,94.506,
01/01/2000,00:55:58.50,22.45,-56.36,-991.98,148.75,-761.25,-323.75,1,94.511,
01/01/2000,00:55:58.51,22.45,-56.36,-991.98,245.0,-708.75,-455.0,1,94.516,
01/01/2000,00:55:58.52,22.45,-56.36,-992.10,140.0,-717.50,-323.75,1,94.521,
01/01/2000,00:55:58.54,22.57,-56.36,-992.47,70.0,-656.25,-358.75,1,94.444,
01/01/2000,00:55:58.55,22.69,-56.12,-992.35,253.75,-743.75,-411.25,1,94.449,
01/01/2000,00:55:58.56,22.69,-56.00,-992.10,105.0,-665.0,-175.0,1,94.454,
01/01/2000,00:55:58.57,22.57,-56.12,-991.74,175.0,-726.25,-402.50,1,94.459,
01/01/2000,00:55:58.58,22.33,-56.24,-991.98,166.25,-726.25,-385.0,1,94.463,
01/01/2000,00:55:58.59,22.33,-56.24,-992.10,271.25,-752.50,-411.25,1,94.468,
01/01/2000,00:55:58.60,22.20,-56.12,-992.23,236.25,-717.50,-393.75,1,94.473,
01/01/2000,00:55:58.61,22.45,-56.12,-991.86,8.75,-752.50,-183.75,1,94.397,
01/01/2000,00:55:58.62,22.45,-56.24,-991.62,332.50,-621.25,-385.0,1,94.482,
01/01/2000,00:55:58.63,22.45,-56.12,-991.62,350.0,-726.25,-341.25,1,94.407,
01/01/2000,00:55:58.64,22.45,-56.36,-991.98,183.75,-708.75,-402.50,1,94.412,
01/01/2000,00:55:58.65,22.20,-56.24,-992.10,218.75,-665.0,-323.75,1,94.416,
01/01/2000,00:55:58.66,22.33,-56.00,-991.86,-8.75,-673.75,-358.75,1,94.421,
01/01/2000,00:55:58.67,22.33,-56.12,-991.86,297.50,-770.0,-323.75,1,94.426,
01/01/2000,00:55:58.68,22.33,-56.12,-991.86,201.25,-735.0,-210.0,1,94.430,
01/01/2000,00:55:58.69,22.57,-56.36,-991.86,157.50,-700.0,-481.25,1,94.435,
01/01/2000,00:55:58.70,22.33,-56.61,-991.98,96.25,-717.50,-341.25,1,94.440,
01/01/2000,00:55:58.71,22.33,-56.36,-991.98,61.25,-577.50,-393.75,1,94.444,
01/01/2000,00:55:58.72,22.20,-56.12,-991.98,280.0,-778.75,-428.75,1,94.449,
01/01/2000,00:55:58.73,22.20,-55.88,-991.98,148.75,-691.25,-236.25,1,94.454,
01/01/2000,00:55:58.75,22.20,-55.88,-992.10,262.50,-665.0,-402.50,1,94.458,
01/01/2000,00:55:58.76,22.20,-56.12,-992.10,183.75,-647.50,-271.25,1,94.463,
01/01/2000,00:55:58.77,22.20,-56.36,-991.98,157.50,-665.0,-402.50,1,94.468,
01/01/2000,00:55:58.78,22.20,-56.24,-991.86,17.50,-665.0,-358.75,1,94.472,
01/01/2000,00:55:58.79,22.33,-56.00,-991.74,105.0,-665.0,-358.75,1,94.477,
01/01/2000,00:55:58.80,22.45,-55.88,-991.98,157.50,-647.50,-201.25,1,94.482,
01/01/2000,00:55:58.81,22.57,-56.00,-991.86,105.0,-630.0,-253.75,1,94.486,
01/01/2000,00:55:58.82,22.45,-56.24,-991.86,61.25,-708.75,-358.75,1,94.491,
01/01/2000,00:55:58.83,22.45,-56.49,-991.86,245.0,-647.50,-350.0,1,94.495,
01/01/2000,00:55:58.84,22.57,-56.36,-991.98,175.0,-770.0,-315.0,1,94.500,
01/01/2000,00:55:58.85,22.57,-56.12,-992.10,140.0,-682.50,-306.25,1,94.505,
01/01/2000,00:55:58.86,22.45,-56.12,-992.10,201.25,-691.25,-201.25,1,94.431,
01/01/2000,00:55:58.87,22.20,-56.24,-992.23,253.75,-735.0,-332.50,1,94.514,
01/01/2000,00:55:58.88,22.20,-56.24,-992.23,262.50,-665.0,-306.25,1,94.440,
01/01/2000,00:55:58.90,22.45,-56.24,-992.35,166.25,-665.0,-350.0,1,94.444,
01/01/2000,00:55:58.91,22.45,-56.24,-992.47,192.50,-752.50,-280.0,1,94.449,
01/01/2000,00:55:58.92,22.45,-56.12,-992.59,96.25,-700.0,-323.75,1,94.454,
01/01/2000,00:55:58.93,22.45,-56.12,-992.59,192.50,-577.50,-280.0,1,94.458,
01/01/2000,00:55:58.94,22.33,-56.24,-992.84,218.75,-691.25,-332.50,1,94.463,
01/01/2000,00:55:58.95,22.45,-56.12,-992.71,175.0,-717.50,-245.0,1,94.467,
01/01/2000,00:55:58.96,22.69,-56.00,-992.59,236.25,-691.25,-402.50,1,94.472,
01/01/2000,00:55:58.97,22.45,-56.00,-992.47,262.50,-630.0,-262.50,1,94.477,
01/01/2000,00:55:58.98,22.45,-56.12,-992.59,70.0,-673.75,-297.50,1,94.481,
01/01/2000,00:55:58.99,22.45,-56.12,-992.59,148.75,-638.75,-306.25,1,94.486,
01/01/2000,00:55:59.00,22.45,-56.12,-992.59,262.50,-682.50,-271.25,1,94.490,
01/01/2000,00:55:59.01,22.45,-56.12,-992.59,122.50,-691.25,-376.25,1,94.495,
01/01/2000,00:55:59.02,22.20,-56.12,-992.35,210.0,-665.0,-271.25,1,94.499,
01/01/2000,00:55:59.03,22.20,-56.24,-992.35,105.0,-743.75,-297.50,1,94.426,
01/01/2000,00:55:59.04,22.08,-56.24,-992.35,210.0,-708.75,-350.0,1,94.431,
01/01/2000,00:55:59.05,22.08,-56.24,-992.59,96.25,-673.75,-236.25,1,94.435,
01/01/2000,00:55:59.06,22.20,-56.12,-992.47,157.50,-656.25,-350.0,1,94.440,
01/01/2000,00:55:59.07,22.20,-56.24,-992.35,157.50,-630.0,-288.75,1,94.444,
01/01/2000,00:55:59.08,22.33,-56.24,-992.35,157.50,-778.75,-411.25,1,94.449,
01/01/2000,00:55:59.10,22.57,-56.12,-992.35,122.50,-682.50,-402.50,1,94.454,
01/01/2000,00:55:59.11,22.45,-56.24,-992.35,148.75,-656.25,-315.0,1,94.381,
01/01/2000,00:55:59.12,22.33,-56.24,-992.35,201.25,-743.75,-350.0,1,94.386,
01/01/2000,00:55:59.13,22.20,-56.24,-992.10,52.50,-577.50,-428.75,1,94.390,
01/01/2000,00:55:59.14,22.20,-56.24,-992.23,175.0,-656.25,-280.0,1,94.395,
01/01/2000,00:55:59.15,22.33,-56.24,-992.35,210.0,-603.75,-253.75,1,94.399,
01/01/2000,00:55:59.16,22.45,-56.24,-992.47,218.75,-691.25,-393.75,1,94.404,
01/01/2000,00:55:59.17,22.33,-56.24,-992.35,96.25,-656.25,-280.0,1,94.408,
01/01/2000,00:55:59.19,22.20,-56.12,-992.23,140.0,-630.0,-516.25,1,94.413,
01/01/2000,00:55:59.19,22.20,-56.12,-992.23,201.25,-752.50,-218.75,1,94.417,
01/01/2000,00:55:59.21,22.57,-55.88,-992.23,148.75,-673.75,-297.50,1,94.422,
01/01/2000,00:55:59.22,22.45,-56.24,-992.35,245.0,-813.75,-306.25,1,94.426,
01/01/2000,00:55:59.23,22.57,-56.12,-992.35,70.0,-595.0,-472.50,1,94.431,
01/01/2000,00:55:59.24,22.20,-56.36,-992.23,192.50,-691.25,-455.0,1,94.435,
01/01/2000,00:55:59.25,22.20,-56.12,-992.35,0.0,-735.0,-271.25,1,94.440,
01/01/2000,00:55:59.26,22.57,-56.00,-992.35,236.25,-603.75,-411.25,1,94.444,
01/01/2000,00:55:59.27,22.57,-56.12,-992.35,35.0,-656.25,-262.50,1,94.449,
01/01/2000,00:55:59.28,22.57,-56.24,-992.23,218.75,-726.25,-437.50,1,94.453,
01/01/2000,00:55:59.29,22.33,-56.49,-992.35,201.25,-708.75,-376.25,1,94.458,
01/01/2000,00:55:59.30,22.45,-56.12,-992.47,0.0,-717.50,-420.0,1,94.462,
01/01/2000,00:55:59.31,22.57,-56.24,-992.47,183.75,-796.25,-280.0,1,94.467,
01/01/2000,00:55:59.32,22.33,-56.12,-992.35,113.75,-595.0,-271.25,1,94.471,
01/01/2000,00:55:59.33,22.33,-56.00,-992.23,113.75,-665.0,-332.50,1,94.476,
01/01/2000,00:55:59.34,22.33,-56.24,-992.23,245.0,-682.50,-516.25,1,94.480,
01/01/2000,00:55:59.35,22.57,-56.24,-992.35,122.50,-656.25,-420.0,1,94.484,
01/01/2000,00:55:59.36,22.81,-56.12,-992.35,70.0,-787.50,-341.25,1,94.489,
01/01/2000,00:55:59.37,22.69,-56.24,-992.35,61.25,-796.25,-288.75,1,94.493,
01/01/2000,00:55:59.38,22.57,-56.00,-992.35,43.75,-638.75,-376.25,1,94.422,
01/01/2000,00:55:59.39,22.45,-56.12,-992.47,175.0,-673.75,-393.75,1,94.427,
01/01/2000,00:55:59.40,22.57,-56.24,-992.59,52.50,-665.0,-236.25,1,94.431,
01/01/2000,00:55:59.42,22.57,-56.24,-992.59,306.25,-673.75,-411.25,1,94.436,
01/01/2000,00:55:59.42,22.33,-56.36,-992.47,175.0,-822.50,-262.50,1,94.440,
01/01/2000,00:55:59.44,22.45,-56.24,-992.47,131.25,-726.25,-385.0,1,94.444,
01/01/2000,00:55:59.45,22.45,-56.00,-992.71,253.75,-665.0,-437.50,1,94.449,
01/01/2000,00:55:59.46,22.45,-56.12,-992.84,245.0,-700.0,-245.0,1,94.453,
01/01/2000,00:55:59.47,22.45,-56.00,-992.84,43.75,-673.75,-358.75,1,94.458,
01/01/2000,00:55:59.48,22.57,-56.24,-992.59,245.0,-735.0,-262.50,1,94.462,
01/01/2000,00:55:59.49,22.57,-56.24,-992.59,175.0,-708.75,-358.75,1,94.466,
01/01/2000,00:55:59.50,22.57,-56.36,-992.71,157.50,-717.50,-350.0,1,94.471,
01/01/2000,00:55:59.51,22.57,-56.24,-992.59,140.0,-656.25,-332.50,1,94.475,
01/01/2000,00:55:59.52,22.45,-56.24,-992.47,166.25,-638.75,-376.25,1,94.479,
01/01/2000,00:55:59.53,22.45,-56.24,-992.47,245.0,-665.0,-297.50,1,94.409,
01/01/2000,00:55:59.54,22.45,-56.12,-992.35,78.75,-665.0,-332.50,1,94.414,
01/01/2000,00:55:59.55,22.45,-56.24,-992.47,183.75,-770.0,-341.25,1,94.418,
01/01/2000,00:55:59.56,22.45,-56.24,-992.59,183.75,-586.25,-358.75,1,94.423,
01/01/2000,00:55:59.57,22.45,-56.12,-992.59,87.50,-708.75,-288.75,1,94.427,
01/01/2000,00:55:59.58,22.45,-56.12,-992.47,105.0,-717.50,-297.50,1,94.431,
01/01/2000,00:55:59.60,22.57,-56.24,-992.59,140.0,-717.50,-323.75,1,94.436,
01/01/2000,00:55:59.61,22.45,-56.36,-992.47,78.75,-682.50,-358.75,1,94.366,
01/01/2000,00:55:59.62,22.45,-56.36,-992.47,35.0,-682.50,-420.0,1,94.444,
01/01/2000,00:55:59.63,22.45,-56.36,-992.59,113.75,-717.50,-376.25,1,94.375,
01/01/2000,00:55:59.64,22.45,-56.24,-992.59,131.25,-796.25,-385.0,1,94.379,
01/01/2000,00:55:59.65,22.33,-56.36,-992.59,61.25,-770.0,-288.75,1,94.384,
01/01/2000,00:55:59.66,22.33,-56.36,-992.84,192.50,-717.50,-306.25,1,94.388,
01/01/2000,00:55:59.67,22.33,-56.36,-992.84,236.25,-726.25,-323.75,1,94.393,
01/01/2000,00:55:59.68,22.45,-56.36,-992.84,166.25,-726.25,-402.50,1,94.397,
01/01/2000,00:55:59.69,22.57,-56.36,-992.84,87.50,-726.25,-358.75,1,94.401,
01/01/2000,00:55:59.70,22.45,-56.24,-992.84,245.0,-630.0,-315.0,1,94.406,
01/01/2000,00:55:59.71,22.45,-56.12,-992.71,157.50,-691.25,-332.50,1,94.410,
01/01/2000,00:55:59.72,22.45,-56.12,-992.84,131.25,-717.50,-358.75,1,94.414,
01/01/2000,00:55:59.73,22.57,-56.24,-992.84,210.0,-682.50,-315.0,1,94.419,
01/01/2000,00:55:59.75,22.45,-56.12,-992.84,122.50,-673.75,-350.0,1,94.423,
01/01/2000,00:55:59.76,22.45,-56.12,-992.84,131.25,-761.25,-306.25,1,94.427,
01/01/2000,00:55:59.77,22.45,-56.12,-992.84,218.75,-717.50,-350.0,1,94.432,
01/01/2000,00:55:59.78,22.57,-56.12,-992.84,157.50,-726.25,-280.0,1,94.436,
01/01/2000,00:55:59.79,22.45,-56.24,-992.84,183.75,-673.75,-376.25,1,94.440,
01/01/2000,00:55:59.80,22.45,-56.24,-992.84,192.50,-682.50,-306.25,1,94.444,
01/01/2000,00:55:59.81,22.45,-56.12,-992.59,280.0,-656.25,-358.75,1,94.449,
01/01/2000,00:55:59.82,22.33,-56.12,-992.59,140.0,-673.75,-358.75,1,94.453,
01/01/2000,00:55:59.83,22.45,-56.00,-992.59,262.50,-691.25,-236.25,1,94.457,
01/01/2000,00:55:59.84,22.33,-56.00,-992.59,183.75,-708.75,-315.0,1,94.462,
01/01/2000,00:55:59.85,22.33,-56.12,-992.59,183.75,-638.75,-306.25,1,94.466,
01/01/2000,00:55:59.86,22.45,-56.12,-992.59,218.75,-735.0,-323.75,1,94.470,
01/01/2000,00:55:59.87,22.57,-56.00,-992.47,253.75,-665.0,-271.25,1,94.474,
01/01/2000,00:55:59.89,22.45,-56.00,-992.59,183.75,-700.0,-315.0,1,94.406,
01/01/2000,00:55:59.90,22.20,-56.00,-992.71,148.75,-612.50,-437.50,1,94.410,
01/01/2000,00:55:59.91,22.20,-56.00,-992.84,175.0,-586.25,-306.25,1,94.415,
01/01/2000,00:55:59.92,22.45,-55.75,-992.96,183.75,-551.25,-227.50,1,94.419,
01/01/2000,00:55:59.93,22.45,-55.88,-992.84,218.75,-726.25,-218.75,1,94.423,
01/01/2000,00:55:59.94,22.45,-56.00,-992.59,131.25,-743.75,-306.25,1,94.427,
01/01/2000,00:55:59.95,22.57,-56.36,-992.47,201.25,-691.25,-376.25,1,94.432,
01/01/2000,00:55:59.96,22.69,-56.36,-992.71,236.25,-691.25,-323.75,1,94.436,
01/01/2000,00:55:59.97,22.45,-56.12,-992.71,236.25,-612.50,-297.50,1,94.440,
01/01/2000,00:55:59.98,22.20,-55.88,-992.59,245.0,-717.50,-367.50,1,94.444,
01/01/2000,00:55:59.99,22.33,-55.88,-992.59,157.50,-586.25,-350.0,1,94.449,
01/01/2000,00:56:00.00,22.45,-56.00,-992.71,70.0,-673.75,-341.25,1,94.453,
01/01/2000,00:56:00.01,22.45,-56.12,-992.84,192.50,-560.0,-341.25,1,94.457,
01/01/2000,00:56:00.02,22.45,-56.36,-992.84,210.0,-717.50,-385.0,1,94.390,
01/01/2000,00:56:00.03,22.45,-56.12,-992.59,140.0,-682.50,-323.75,1,94.394,
01/01/2000,00:56:00.04,22.45,-55.88,-992.59,122.50,-735.0,-358.75,1,94.398,
01/01/2000,00:56:00.05,22.57,-55.88,-992.59,148.75,-735.0,-315.0,1,94.402,
01/01/2000,00:56:00.06,22.45,-56.12,-992.84,61.25,-866.25,-341.25,1,94.407,
01/01/2000,00:56:00.08,22.57,-56.12,-992.71,70.0,-638.75,-428.75,1,94.411,
01/01/2000,00:56:00.08,22.57,-56.36,-992.59,175.0,-761.25,-341.25,1,94.415,
01/01/2000,00:56:00.10,22.69,-56.24,-992.59,113.75,-708.75,-332.50,1,94.419,
01/01/2000,00:56:00.11,22.57,-56.24,-992.59,227.50,-691.25,-350.0,1,94.352,
01/01/2000,00:56:00.12,22.69,-56.12,-992.59,122.50,-735.0,-288.75,1,94.357,
01/01/2000,00:56:00.13,22.69,-56.12,-992.59,52.50,-691.25,-341.25,1,94.361,
01/01/2000,00:56:00.14,22.57,-56.24,-992.35,192.50,-778.75,-376.25,1,94.365,
01/01/2000,00:56:00.15,22.57,-56.24,-992.35,245.0,-726.25,-332.50,1,94.369,
01/01/2000,00:56:00.17,22.57,-56.24,-992.35,245.0,-770.0,-420.0,1,94.374,
01/01/2000,00:56:00.18,22.45,-56.24,-992.35,262.50,-673.75,-350.0,1,94.378,
01/01/2000,00:56:00.19,22.45,-56.24,-992.59,315.0,-638.75,-507.50,1,94.382,
01/01/2000,00:56:00.20,22.57,-56.24,-992.35,306.25,-708.75,-341.25,1,94.386,
01/01/2000,00:56:00.21,22.69,-56.24,-992.35,218.75,-682.50,-332.50,1,94.390,
01/01/2000,00:56:00.22,22.69,-56.24,-992.10,140.0,-656.25,-236.25,1,94.395,
01/01/2000,00:56:00.23,22.57,-56.12,-992.10,140.0,-700.0,-306.25,1,94.399,
01/01/2000,00:56:00.24,22.69,-56.12,-992.23,201.25,-735.0,-306.25,1,94.403,
01/01/2000,00:56:00.25,22.57,-56.00,-992.35,166.25,-638.75,-358.75,1,94.407,
01/01/2000,00:56:00.26,22.57,-56.00,-992.47,78.75,-717.50,-341.25,1,94.411,
01/01/2000,00:56:00.27,22.57,-56.00,-992.35,96.25,-691.25,-297.50,1,94.415,
01/01/2000,00:56:00.28,22.57,-56.00,-992.47,148.75,-708.75,-350.0,1,94.420,
01/01/2000,00:56:00.29,22.57,-56.12,-992.47,183.75,-621.25,-358.75,1,94.424,
01/01/2000,00:56:00.30,22.45,-56.12,-992.47,78.75,-735.0,-288.75,1,94.428,
01/01/2000,00:56:00.31,22.45,-56.24,-992.47,113.75,-647.50,-367.50,1,94.432,
01/01/2000,00:56:00.32,22.45,-56.12,-992.35,175.0,-665.0,-332.50,1,94.436,
01/01/2000,00:56:00.33,22.45,-56.12,-992.35,245.0,-761.25,-350.0,1,94.440,
01/01/2000,00:56:00.34,22.45,-56.12,-992.35,113.75,-735.0,-288.75,1,94.444,
01/01/2000,00:56:00.35,22.69,-56.12,-992.35,245.0,-656.25,-385.0,1,94.449,
01/01/2000,00:56:00.36,22.45,-56.00,-992.47,96.25,-735.0,-315.0,1,94.453,
01/01/2000,00:56:00.38,22.45,-56.00,-992.59,192.50,-638.75,-367.50,1,94.387,
01/01/2000,00:56:00.39,22.45,-56.00,-992.59,192.50,-770.0,-358.75,1,94.391,
01/01/2000,00:56:00.40,22.33,-55.88,-992.59,35.0,-691.25,-236.25,1,94.395,
01/01/2000,00:56:00.41,22.33,-56.12,-992.47,140.0,-656.25,-341.25,1,94.399,
01/01/2000,00:56:00.42,22.33,-56.36,-992.47,245.0,-708.75,-376.25,1,94.404,
01/01/2000,00:56:00.43,22.45,-56.36,-992.47,157.50,-708.75,-411.25,1,94.408,
01/01/2000,00:56:00.44,22.69,-56.24,-992.47,148.75,-586.25,-332.50,1,94.412,
01/01/2000,00:56:00.45,22.69,-56.12,-992.59,183.75,-673.75,-297.50,1,94.347,
01/01/2000,00:56:00.46,22.69,-56.24,-992.71,175.0,-665.0,-253.75,1,94.351,
01/01/2000,00:56:00.47,22.69,-56.24,-992.71,43.75,-761.25,-201.25,1,94.355,
01/01/2000,00:56:00.48,22.81,-56.36,-992.71,52.50,-673.75,-367.50,1,94.359,
01/01/2000,00:56:00.49,22.69,-56.49,-992.84,96.25,-586.25,-315.0,1,94.363,
01/01/2000,00:56:00.50,22.57,-56.36,-992.71,43.75,-813.75,-350.0,1,94.367,
01/01/2000,00:56:00.51,22.45,-56.24,-992.59,61.25,-691.25,-437.50,1,94.371,
01/01/2000,00:56:00.52,22.45,-56.36,-992.71,175.0,-770.0,-350.0,1,94.375,
01/01/2000,00:56:00.53,22.45,-56.36,-992.84,70.0,-621.25,-376.25,1,94.380,
01/01/2000,00:56:00.54,22.57,-56.36,-992.84,61.25,-568.75,-297.50,1,94.384,
01/01/2000,00:56:00.55,22.45,-56.36,-992.71,140.0,-656.25,-402.50,1,94.388,
01/01/2000,00:56:00.56,22.69,-56.36,-992.84,288.75,-770.0,-350.0,1,94.392,
01/01/2000,00:56:00.57,22.69,-56.36,-992.71,122.50,-673.75,-306.25,1,94.396,
01/01/2000,00:56:00.59,22.69,-56.24,-992.71,148.75,-665.0,-358.75,1,94.400,
01/01/2000,00:56:00.60,22.57,-56.00,-992.59,113.75,-638.75,-297.50,1,94.404,
01/01/2000,00:56:00.61,22.57,-56.12,-992.59,148.75,-621.25,-297.50,1,94.408,
01/01/2000,00:56:00.62,22.69,-56.24,-992.59,96.25,-691.25,-402.50,1,94.344,
01/01/2000,00:56:00.64,22.69,-56.36,-992.59,105.0,-638.75,-367.50,1,94.348,
01/01/2000,00:56:00.65,22.69,-56.12,-992.59,201.25,-726.25,-358.75,1,94.352,
01/01/2000,00:56:00.66,22.45,-56.24,-992.71,175.0,-665.0,-262.50,1,94.356,
01/01/2000,00:56:00.67,22.57,-56.12,-992.59,157.50,-621.25,-315.0,1,94.360,
01/01/2000,00:56:00.68,22.69,-56.12,-992.71,78.75,-638.75,-332.50,1,94.364,
01/01/2000,00:56:00.69,22.69,-56.36,-992.71,210.0,-691.25,-297.50,1,94.368,
01/01/2000,00:56:00.70,22.69,-56.36,-992.84,201.25,-726.25,-437.50,1,94.372,
01/01/2000,00:56:00.71,22.69,-56.24,-992.96,148.75,-700.0,-306.25,1,94.376,
01/01/2000,00:56:00.72,22.69,-56.12,-992.96,183.75,-638.75,-376.25,1,94.380,
01/01/2000,00:56:00.73,22.81,-56.12,-992.84,201.25,-752.50,-288.75,1,94.384,
01/01/2000,00:56:00.74,22.69,-56.36,-992.59,280.0,-770.0,-385.0,1,94.388,
01/01/2000,00:56:00.75,22.69,-56.36,-992.35,236.25,-770.0,-227.50,1,94.393,
01/01/2000,00:56:00.76,22.81,-56.49,-992.59,183.75,-691.25,-358.75,1,94.397,
01/01/2000,00:56:00.77,22.94,-56.36,-992.59,35.0,-682.50,-341.25,1,94.401,
01/01/2000,00:56:00.78,22.69,-56.61,-992.47,280.0,-612.50,-376.25,1,94.405,
01/01/2000,00:56:00.79,22.69,-56.61,-992.23,148.75,-708.75,-253.75,1,94.409,
01/01/2000,00:56:00.80,22.69,-56.49,-992.10,183.75,-630.0,-315.0,1,94.345,
01/01/2000,00:56:00.81,22.69,-56.49,-992.10,96.25,-682.50,-280.0,1,94.349,
01/01/2000,00:56:00.82,22.57,-56.49,-992.35,87.50,-717.50,-367.50,1,94.353,
01/01/2000,00:56:00.83,22.69,-56.36,-992.35,96.25,-717.50,-472.50,1,94.357,
01/01/2000,00:56:00.84,22.57,-56.24,-992.35,78.75,-708.75,-402.50,1,94.361,
01/01/2000,00:56:00.85,22.45,-56.12,-992.59,201.25,-761.25,-376.25,1,94.365,
01/01/2000,00:56:00.86,22.45,-56.12,-992.59,183.75,-586.25,-315.0,1,94.369,
01/01/2000,00:56:00.88,22.57,-56.00,-992.59,201.25,-831.25,-140.0,1,94.373,
01/01/2000,00:56:00.89,22.45,-56.36,-992.59,183.75,-673.75,-358.75,1,94.377,
01/01/2000,00:56:00.90,22.33,-56.36,-992.59,157.50,-752.50,-393.75,1,94.381,
01/01/2000,00:56:00.91,22.45,-56.12,-992.59,166.25,-691.25,-350.0,1,94.385,
01/01/2000,00:56:00.92,22.45,-56.12,-992.59,78.75,-726.25,-262.50,1,94.389,
01/01/2000,00:56:00.93,22.45,-56.00,-992.59,280.0,-647.50,-297.50,1,94.393,
01/01/2000,00:56:00.94,22.20,-56.24,-992.59,166.25,-647.50,-402.50,1,94.397,
01/01/2000,00:56:00.95,22.45,-56.12,-992.59,201.25,-717.50,-280.0,1,94.401,
01/01/2000,00:56:00.96,22.45,-56.12,-992.47,297.50,-752.50,-350.0,1,94.405,
01/01/2000,00:56:00.97,22.45,-56.12,-992.59,148.75,-682.50,-341.25,1,94.409,
01/01/2000,00:56:00.98,22.33,-56.12,-992.47,87.50,-708.75,-315.0,1,94.413,
01/01/2000,00:56:00.99,22.33,-56.12,-992.59,183.75,-717.50,-271.25,1,94.417,
01/01/2000,00:56:01.00,22.45,-56.12,-992.59,192.50,-603.75,-306.25,1,94.421,
01/01/2000,00:56:01.02,22.33,-56.36,-992.59,26.25,-717.50,-332.50,1,94.358,
01/01/2000,00:56:01.03,22.33,-56.36,-992.59,131.25,-682.50,-350.0,1,94.362,
01/01/2000,00:56:01.04,22.20,-56.36,-992.71,166.25,-708.75,-323.75,1,94.366,
01/01/2000,00:56:01.05,22.20,-56.36,-992.71,87.50,-831.25,-280.0,1,94.370,
01/01/2000,00:56:01.06,22.08,-56.24,-992.84,175.0,-700.0,-385.0,1,94.374,
01/01/2000,00:56:01.07,22.08,-56.12,-992.96,245.0,-525.0,-420.0,1,94.378,
01/01/2000,00:56:01.08,22.20,-56.12,-992.84,87.50,-577.50,-350.0,1,94.382,
01/01/2000,00:56:01.09,22.20,-56.12,-992.71,245.0,-761.25,-280.0,1,94.386,
01/01/2000,00:56:01.10,22.20,-56.24,-992.59,192.50,-647.50,-341.25,1,94.390,
01/01/2000,00:56:01.11,22.20,-56.24,-992.59,87.50,-726.25,-271.25,1,94.394,
01/01/2000,00:56:01.12,22.20,-56.12,-992.59,113.75,-673.75,-376.25,1,94.398,
01/01/2000,00:56:01.13,22.33,-56.12,-992.59,140.0,-691.25,-253.75,1,94.336,
01/01/2000,00:56:01.15,22.33,-56.24,-992.59,122.50,-761.25,-393.75,1,94.340,
01/01/2000,00:56:01.16,22.45,-56.24,-992.59,183.75,-682.50,-411.25,1,94.344,
01/01/2000,00:56:01.17,22.57,-56.24,-992.35,201.25,-630.0,-411.25,1,94.348,
01/01/2000,00:56:01.18,22.57,-56.12,-992.35,183.75,-700.0,-297.50,1,94.351,
01/01/2000,00:56:01.19,22.57,-56.12,-992.47,157.50,-656.25,-420.0,1,94.355,
01/01/2000,00:56:01.20,22.57,-56.12,-992.59,131.25,-735.0,-271.25,1,94.359,
01/01/2000,00:56:01.21,22.69,-56.24,-992.59,157.50,-656.25,-420.0,1,94.363,
01/01/2000,00:56:01.22,22.57,-56.36,-992.59,245.0,-647.50,-323.75,1,94.367,
01/01/2000,00:56:01.23,22.45,-56.36,-992.71,113.75,-682.50,-358.75,1,94.371,
01/01/2000,00:56:01.24,22.57,-56.36,-992.71,157.50,-822.50,-367.50,1,94.375,
01/01/2000,00:56:01.25,22.69,-56.24,-992.71,122.50,-586.25,-341.25,1,94.379,
01/01/2000,00:56:01.26,22.81,-56.24,-992.71,210.0,-638.75,-253.75,1,94.383,
01/01/2000,00:56:01.27,22.57,-56.36,-992.71,210.0,-682.50,-367.50,1,94.387,
01/01/2000,00:56:01.28,22.57,-56.36,-992.71,183.75,-708.75,-358.75,1,94.391,
01/01/2000,00:56:01.29,22.45,-56.36,-992.59,201.25,-630.0,-490.0,1,94.394,
01/01/2000,00:56:01.30,22.57,-56.24,-992.71,70.0,-752.50,-358.75,1,94.398,
01/01/2000,00:56:01.31,22.57,-56.12,-992.71,148.75,-691.25,-253.75,1,94.402,
01/01/2000,00:56:01.32,22.57,-56.12,-992.59,148.75,-621.25,-288.75,1,94.406,
01/01/2000,00:56:01.33,22.45,-56.12,-992.59,113.75,-752.50,-367.50,1,94.410,
01/01/2000,00:56:01.34,22.33,-56.24,-992.59,148.75,-743.75,-315.0,1,94.414,
01/01/2000,00:56:01.35,22.33,-56.36,-992.59,113.75,-586.25,-323.75,1,94.418,
01/01/2000,00:56:01.36,22.45,-56.36,-992.59,227.50,-691.25,-315.0,1,94.357,
01/01/2000,00:56:01.37,22.45,-56.36,-992.59,131.25,-647.50,-376.25,1,94.360,
01/01/2000,00:56:01.38,22.45,-56.36,-992.71,227.50,-761.25,-315.0,1,94.364,
01/01/2000,00:56:01.39,22.45,-56.49,-992.84,210.0,-813.75,-472.50,1,94.368,
01/01/2000,00:56:01.40,22.33,-56.36,-992.84,210.0,-630.0,-271.25,1,94.372,
01/01/2000,00:56:01.41,22.33,-56.36,-992.96,113.75,-630.0,-315.0,1,94.376,
01/01/2000,00:56:01.42,22.33,-56.36,-992.96,227.50,-752.50,-288.75,1,94.380,
01/01/2000,00:56:01.44,22.20,-56.36,-993.08,166.25,-682.50,-262.50,1,94.384,
01/01/2000,00:56:01.45,22.20,-56.36,-992.96,78.75,-726.25,-420.0,1,94.387,
01/01/2000,00:56:01.46,22.20,-56.36,-992.96,192.50,-735.0,-358.75,1,94.391,
01/01/2000,00:56:01.47,22.20,-56.49,-992.96,323.75,-743.75,-341.25,1,94.395,
01/01/2000,00:56:01.48,22.20,-56.61,-992.84,227.50,-682.50,-350.0,1,94.399,
01/01/2000,00:56:01.49,22.20,-56.61,-992.59,140.0,-752.50,-376.25,1,94.403,
01/01/2000,00:56:01.50,21.96,-56.61,-992.71,122.50,-761.25,-341.25,1,94.407,
01/01/2000,00:56:01.51,22.20,-56.49,-993.08,210.0,-770.0,-367.50,1,94.410,
01/01/2000,00:56:01.52,22.20,-56.49,-992.96,271.25,-708.75,-280.0,1,94.414,
01/01/2000,00:56:01.53,22.20,-56.61,-992.84,271.25,-691.25,-297.50,1,94.354,
01/01/2000,00:56:01.54,22.20,-56.61,-992.59,35.0,-507.50,-376.25,1,94.422,
01/01/2000,00:56:01.55,22.20,-56.61,-992.71,61.25,-630.0,-350.0,1,94.361,
01/01/2000,00:56:01.56,22.20,-56.61,-992.84,78.75,-638.75,-341.25,1,94.365,
01/01/2000,00:56:01.58,22.33,-56.36,-992.84,201.25,-682.50,-376.25,1,94.369,
01/01/2000,00:56:01.59,22.20,-56.36,-992.59,78.75,-691.25,-315.0,1,94.373,
01/01/2000,00:56:01.60,22.20,-56.49,-992.59,122.50,-682.50,-332.50,1,94.377,
01/01/2000,00:56:01.61,22.33,-56.61,-992.71,148.75,-726.25,-350.0,1,94.381,
01/01/2000,00:56:01.62,22.45,-56.61,-992.84,210.0,-621.25,-350.0,1,94.384,
01/01/2000,00:56:01.63,22.45,-56.61,-992.84,148.75,-787.50,-341.25,1,94.388,
01/01/2000,00:56:01.64,22.20,-56.36,-992.71,148.75,-621.25,-245.0,1,94.328,
01/01/2000,00:56:01.66,22.33,-56.36,-992.71,96.25,-752.50,-393.75,1,94.332,
01/01/2000,00:56:01.67,22.45,-56.61,-992.96,87.50,-761.25,-280.0,1,94.336,
01/01/2000,00:56:01.68,22.45,-56.49,-992.84,157.50,-866.25,-437.50,1,94.340,
01/01/2000,00:56:01.69,22.33,-56.49,-992.71,140.0,-708.75,-350.0,1,94.343,
01/01/2000,00:56:01.70,22.20,-56.36,-992.71,210.0,-700.0,-262.50,1,94.347,
01/01/2000,00:56:01.71,22.33,-56.36,-992.59,192.50,-612.50,-341.25,1,94.351,
01/01/2000,00:56:01.72,22.33,-56.36,-992.71,376.25,-656.25,-288.75,1,94.355,
01/01/2000,00:56:01.73,22.45,-56.36,-992.71,96.25,-708.75,-367.50,1,94.359,
01/01/2000,00:56:01.74,22.45,-56.36,-992.59,113.75,-656.25,-306.25,1,94.362,
01/01/2000,00:56:01.75,22.33,-56.49,-992.59,210.0,-726.25,-315.0,1,94.366,
01/01/2000,00:56:01.76,22.45,-56.49,-992.35,131.25,-717.50,-271.25,1,94.370,
01/01/2000,00:56:01.77,22.33,-56.36,-992.59,35.0,-595.0,-315.0,1,94.374,
01/01/2000,00:56:01.78,22.33,-56.36,-992.59,306.25,-630.0,-420.0,1,94.378,
01/01/2000,00:56:01.79,22.45,-56.36,-992.71,148.75,-647.50,-350.0,1,94.381,
01/01/2000,00:56:01.80,22.45,-56.36,-992.71,210.0,-673.75,-306.25,1,94.385,
01/01/2000,00:56:01.81,22.45,-56.49,-992.59,131.25,-647.50,-306.25,1,94.389,
01/01/2000,00:56:01.82,22.45,-56.36,-992.84,166.25,-787.50,-350.0,1,94.393,
01/01/2000,00:56:01.83,22.45,-56.36,-992.84,157.50,-673.75,-323.75,1,94.396,
01/01/2000,00:56:01.84,22.45,-56.24,-992.84,157.50,-665.0,-341.25,1,94.400,
01/01/2000,00:56:01.85,22.33,-56.24,-992.84,201.25,-638.75,-288.75,1,94.404,
01/01/2000,00:56:01.87,22.45,-56.36,-992.71,245.0,-708.75,-280.0,1,94.345,
01/01/2000,00:56:01.87,22.33,-56.36,-992.71,192.50,-735.0,-367.50,1,94.348,
01/01/2000,00:56:01.89,22.33,-56.24,-992.84,157.50,-813.75,-262.50,1,94.352,
01/01/2000,00:56:01.90,22.33,-56.12,-992.84,166.25,-708.75,-393.75,1,94.356,
01/01/2000,00:56:01.91,22.33,-56.24,-992.96,131.25,-735.0,-288.75,1,94.360,
01/01/2000,00:56:01.92,22.20,-56.24,-992.84,43.75,-717.50,-280.0,1,94.363,
01/01/2000,00:56:01.93,22.20,-56.24,-992.71,70.0,-717.50,-323.75,1,94.367,
01/01/2000,00:56:01.94,22.33,-56.36,-992.59,61.25,-805.0,-297.50,1,94.371,
01/01/2000,00:56:01.95,22.33,-56.24,-992.59,87.50,-647.50,-227.50,1,94.375,
01/01/2000,00:56:01.96,22.20,-56.36,-992.59,227.50,-621.25,-411.25,1,94.378,
01/01/2000,00:56:01.97,22.20,-56.12,-992.59,157.50,-691.25,-350.0,1,94.382,
01/01/2000,00:56:01.98,22.20,-56.12,-992.71,236.25,-673.75,-297.50,1,94.386,
01/01/2000,00:56:01.99,22.45,-56.12,-992.71,105.0,-612.50,-288.75,1,94.389,
01/01/2000,00:56:02.00,22.45,-56.12,-992.59,122.50,-796.25,-323.75,1,94.331,
01/01/2000,00:56:02.01,22.33,-56.24,-992.59,157.50,-647.50,-341.25,1,94.335,
01/01/2000,00:56:02.02,22.20,-56.12,-992.59,288.75,-656.25,-297.50,1,94.338,
01/01/2000,00:56:02.03,22.33,-55.88,-992.84,131.25,-831.25,-341.25,1,94.342,
01/01/2000,00:56:02.04,22.33,-55.88,-992.71,201.25,-735.0,-402.50,1,94.346,
01/01/2000,00:56:02.05,22.20,-56.12,-992.84,210.0,-691.25,-332.50,1,94.350,
01/01/2000,00:56:02.06,22.33,-56.24,-992.71,52.50,-700.0,-280.0,1,94.353,
01/01/2000,00:56:02.08,22.57,-56.12,-992.71,131.25,-691.25,-262.50,1,94.357,
01/01/2000,00:56:02.09,22.57,-56.12,-992.59,297.50,-892.50,-350.0,1,94.361,
01/01/2000,00:56:02.10,22.45,-56.12,-992.59,105.0,-621.25,-297.50,1,94.364,
01/01/2000,00:56:02.11,22.45,-56.12,-992.59,218.75,-752.50,-297.50,1,94.368,
01/01/2000,00:56:02.12,22.45,-56.12,-992.71,192.50,-717.50,-385.0,1,94.372,
01/01/2000,00:56:02.13,22.45,-56.00,-992.84,227.50,-743.75,-332.50,1,94.375,
01/01/2000,00:56:02.14,22.45,-56.24,-992.71,70.0,-665.0,-280.0,1,94.379,
01/01/2000,00:56:02.15,22.20,-56.12,-992.59,175.0,-647.50,-367.50,1,94.321,
01/01/2000,00:56:02.17,22.33,-56.12,-992.59,218.75,-682.50,-358.75,1,94.325,
01/01/2000,00:56:02.18,22.45,-56.12,-992.84,87.50,-770.0,-358.75,1,94.329,
01/01/2000,00:56:02.19,22.45,-56.12,-992.84,175.0,-831.25,-271.25,1,94.332,
01/01/2000,00:56:02.20,22.45,-56.00,-992.71,131.25,-647.50,-385.0,1,94.336,
01/01/2000,00:56:02.21,22.57,-56.12,-992.59,122.50,-735.0,-315.0,1,94.340,
01/01/2000,00:56:02.22,22.45,-55.88,-992.84,166.25,-638.75,-341.25,1,94.343,
01/01/2000,00:56:02.23,22.45,-56.12,-992.84,175.0,-673.75,-315.0,1,94.347,
01/01/2000,00:56:02.24,22.45,-56.12,-992.84,201.25,-726.25,-297.50,1,94.351,
01/01/2000,00:56:02.25,22.57,-56.12,-992.84,0.0,-752.50,-385.0,1,94.354,
01/01/2000,00:56:02.26,22.57,-56.00,-992.84,148.75,-726.25,-306.25,1,94.358,
01/01/2000,00:56:02.27,22.57,-56.12,-992.84,157.50,-708.75,-341.25,1,94.362,
01/01/2000,00:56:02.28,22.69,-56.12,-992.84,61.25,-708.75,-306.25,1,94.365,
01/01/2000,00:56:02.29,22.57,-56.12,-992.96,245.0,-691.25,-280.0,1,94.369,
01/01/2000,00:56:02.30,22.45,-56.24,-992.84,70.0,-708.75,-297.50,1,94.373,
01/01/2000,00:56:02.31,22.45,-56.24,-992.71,122.50,-770.0,-358.75,1,94.376,
01/01/2000,00:56:02.32,22.57,-56.12,-992.59,78.75,-673.75,-498.75,1,94.380,
01/01/2000,00:56:02.33,22.69,-56.12,-992.84,96.25,-621.25,-367.50,1,94.383,
01/01/2000,00:56:02.34,22.57,-56.24,-992.71,78.75,-577.50,-323.75,1,94.387,
01/01/2000,00:56:02.35,22.45,-56.24,-992.71,87.50,-735.0,-315.0,1,94.391,
01/01/2000,00:56:02.36,22.45,-56.24,-992.84,105.0,-700.0,-358.75,1,94.334,
01/01/2000,00:56:02.37,22.57,-56.12,-992.84,148.75,-743.75,-332.50,1,94.337,
01/01/2000,00:56:02.38,22.57,-56.12,-992.59,166.25,-665.0,-376.25,1,94.341,
01/01/2000,00:56:02.39,22.69,-56.12,-992.59,166.25,-638.75,-227.50,1,94.344,
01/01/2000,00:56:02.40,22.57,-56.24,-992.59,183.75,-770.0,-393.75,1,94.348,
01/01/2000,00:56:02.41,22.57,-56.36,-992.71,175.0,-682.50,-323.75,1,94.352,
01/01/2000,00:56:02.43,22.45,-56.36,-992.71,183.75,-682.50,-376.25,1,94.355,
01/01/2000,00:56:02.44,22.57,-56.36,-992.59,87.50,-831.25,-315.0,1,94.359,
01/01/2000,00:56:02.45,22.57,-56.12,-992.59,218.75,-822.50,-271.25,1,94.363,
01/01/2000,00:56:02.46,22.45,-56.24,-992.59,201.25,-630.0,-341.25,1,94.366,
01/01/2000,00:56:02.47,22.45,-56.24,-992.84,183.75,-778.75,-428.75,1,94.370,
01/01/2000,00:56:02.48,22.45,-56.24,-992.84,131.25,-682.50,-315.0,1,94.373,
01/01/2000,00:56:02.49,22.57,-56.12,-992.84,227.50,-761.25,-236.25,1,94.377,
01/01/2000,00:56:02.50,22.69,-56.12,-992.59,288.75,-726.25,-341.25,1,94.381,
01/01/2000,00:56:02.51,22.69,-56.12,-992.59,157.50,-813.75,-315.0,1,94.384,
01/01/2000,00:56:02.52,22.69,-56.36,-992.59,113.75,-735.0,-280.0,1,94.388,
01/01/2000,00:56:02.53,22.69,-56.36,-992.84,96.25,-770.0,-350.0,1,94.391,
01/01/2000,00:56:02.54,22.57,-56.24,-992.84,157.50,-708.75,-367.50,1,94.395,
01/01/2000,00:56:02.55,22.57,-56.12,-992.71,227.50,-621.25,-332.50,1,94.398,
01/01/2000,00:56:02.56,22.57,-55.88,-992.71,218.75,-665.0,-280.0,1,94.342,
01/01/2000,00:56:02.57,22.45,-56.12,-992.59,87.50,-656.25,-393.75,1,94.346,
01/01/2000,00:56:02.58,22.45,-56.24,-992.71,140.0,-708.75,-350.0,1,94.349,
01/01/2000,00:56:02.60,22.57,-56.12,-992.84,218.75,-612.50,-350.0,1,94.353,
01/01/2000,00:56:02.60,22.45,-56.12,-992.84,131.25,-743.75,-385.0,1,94.356,
01/01/2000,00:56:02.62,22.45,-55.88,-992.84,131.25,-726.25,-323.75,1,94.360,
01/01/2000,00:56:02.63,22.33,-56.00,-992.59,192.50,-726.25,-297.50,1,94.364,
01/01/2000,00:56:02.64,22.33,-56.12,-992.84,96.25,-743.75,-280.0,1,94.367,
01/01/2000,00:56:02.65,22.33,-56.24,-992.84,236.25,-673.75,-402.50,1,94.371,
01/01/2000,00:56:02.66,22.45,-56.00,-992.84,35.0,-708.75,-315.0,1,94.315,
01/01/2000,00:56:02.67,22.45,-55.88,-992.71,131.25,-743.75,-315.0,1,94.318,
01/01/2000,00:56:02.68,22.45,-56.12,-992.59,148.75,-560.0,-341.25,1,94.322,
01/01/2000,00:56:02.69,22.45,-56.24,-992.84,175.0,-761.25,-332.50,1,94.325,
01/01/2000,00:56:02.70,22.45,-56.24,-992.84,192.50,-770.0,-367.50,1,94.329,
01/01/2000,00:56:02.72,22.45,-56.24,-992.59,201.25,-796.25,-332.50,1,94.332,
01/01/2000,00:56:02.73,22.45,-56.36,-992.47,183.75,-691.25,-367.50,1,94.336,
01/01/2000,00:56:02.74,22.45,-56.12,-992.47,61.25,-665.0,-350.0,1,94.340,
01/01/2000,00:56:02.75,22.45,-56.12,-992.84,201.25,-691.25,-358.75,1,94.343,
01/01/2000,00:56:02.76,22.57,-56.12,-993.08,122.50,-831.25,-288.75,1,94.347,
01/01/2000,00:56:02.77,22.57,-56.12,-993.08,183.75,-700.0,-367.50,1,94.350,
01/01/2000,00:56:02.78,22.45,-56.24,-992.84,157.50,-726.25,-376.25,1,94.354,
01/01/2000,00:56:02.79,22.45,-56.12,-992.84,148.75,-682.50,-323.75,1,94.357,
01/01/2000,00:56:02.80,22.45,-55.88,-992.84,52.50,-813.75,-332.50,1,94.361,
01/01/2000,00:56:02.81,22.57,-55.88,-992.96,166.25,-735.0,-288.75,1,94.364,
01/01/2000,00:56:02.82,22.45,-56.00,-993.20,131.25,-630.0,-315.0,1,94.368,
01/01/2000,00:56:02.83,22.45,-56.00,-993.20,280.0,-778.75,-385.0,1,94.371,
01/01/2000,00:56:02.84,22.33,-56.00,-992.84,105.0,-516.25,-411.25,1,94.375,
01/01/2000,00:56:02.85,22.45,-55.88,-992.84,148.75,-708.75,-341.25,1,94.379,
01/01/2000,00:56:02.86,22.57,-56.00,-992.84,105.0,-743.75,-323.75,1,94.382,
01/01/2000,00:56:02.87,22.69,-56.00,-993.20,105.0,-770.0,-306.25,1,94.386,
01/01/2000,00:56:02.88,22.69,-56.00,-993.08,227.50,-717.50,-402.50,1,94.389,
01/01/2000,00:56:02.89,22.45,-56.00,-992.84,148.75,-778.75,-323.75,1,94.393,
01/01/2000,00:56:02.90,22.45,-55.88,-992.71,175.0,-735.0,-245.0,1,94.396,
01/01/2000,00:56:02.91,22.45,-55.88,-992.84,166.25,-612.50,-385.0,1,94.400,
01/01/2000,00:56:02.92,22.57,-55.75,-993.08,157.50,-831.25,-236.25,1,94.344,
01/01/2000,00:56:02.93,22.33,-55.88,-992.84,157.50,-778.75,-420.0,1,94.348,
01/01/2000,00:56:02.94,22.33,-56.00,-992.71,280.0,-656.25,-332.50,1,94.351,
01/01/2000,00:56:02.95,22.33,-55.88,-992.71,192.50,-770.0,-332.50,1,94.355,
01/01/2000,00:56:02.96,22.45,-55.88,-992.71,315.0,-621.25,-323.75,1,94.358,
01/01/2000,00:56:02.97,22.45,-55.88,-992.71,43.75,-533.75,-306.25,1,94.362,
01/01/2000,00:56:02.99,22.20,-56.00,-992.84,157.50,-682.50,-367.50,1,94.365,
01/01/2000,00:56:03.00,22.08,-56.00,-992.84,-70.0,-717.50,-358.75,1,94.369,
01/01/2000,00:56:03.01,22.20,-56.00,-992.84,140.0,-735.0,-288.75,1,94.372,
01/01/2000,00:56:03.02,22.33,-55.88,-992.84,87.50,-726.25,-376.25,1,94.376,
01/01/2000,00:56:03.03,22.33,-56.00,-992.84,210.0,-726.25,-367.50,1,94.379,
01/01/2000,00:56:03.04,22.20,-56.00,-992.84,210.0,-630.0,-280.0,1,94.383,
01/01/2000,00:56:03.05,22.20,-56.00,-992.84,87.50,-665.0,-350.0,1,94.386,
01/01/2000,00:56:03.06,22.45,-56.12,-992.84,175.0,-665.0,-341.25,1,94.390,
01/01/2000,00:56:03.07,22.45,-56.12,-992.84,175.0,-621.25,-350.0,1,94.393,
01/01/2000,00:56:03.08,22.45,-56.00,-992.84,96.25,-656.25,-385.0,1,94.397,
01/01/2000,00:56:03.09,22.33,-56.24,-992.84,148.75,-735.0,-315.0,1,94.400,
01/01/2000,00:56:03.10,22.33,-56.12,-992.84,148.75,-673.75,-306.25,1,94.403,
01/01/2000,00:56:03.11,22.45,-56.24,-993.08,192.50,-735.0,-402.50,1,94.407,
01/01/2000,00:56:03.12,22.57,-56.12,-992.96,192.50,-700.0,-350.0,1,94.410,
01/01/2000,00:56:03.13,22.45,-56.12,-992.59,148.75,-735.0,-385.0,1,94.356,
01/01/2000,00:56:03.14,22.33,-56.12,-992.59,140.0,-761.25,-323.75,1,94.359,
01/01/2000,00:56:03.15,22.20,-56.12,-992.84,157.50,-682.50,-358.75,1,94.363,
01/01/2000,00:56:03.16,22.20,-56.12,-992.96,96.25,-717.50,-253.75,1,94.366,
01/01/2000,00:56:03.18,22.45,-56.12,-993.08,105.0,-673.75,-341.25,1,94.370,
01/01/2000,00:56:03.19,22.33,-56.24,-993.20,183.75,-726.25,-393.75,1,94.373,
01/01/2000,00:56:03.20,22.33,-56.36,-992.96,122.50,-717.50,-280.0,1,94.377,
01/01/2000,00:56:03.21,22.20,-56.49,-993.08,131.25,-691.25,-385.0,1,94.380,
01/01/2000,00:56:03.22,22.45,-56.36,-993.20,131.25,-761.25,-332.50,1,94.383,
01/01/2000,00:56:03.23,22.45,-56.36,-993.20,166.25,-743.75,-341.25,1,94.387,
01/01/2000,00:56:03.24,22.45,-56.36,-993.20,122.50,-822.50,-315.0,1,94.390,
01/01/2000,00:56:03.25,22.45,-56.36,-993.08,131.25,-743.75,-393.75,1,94.394,
01/01/2000,00:56:03.26,22.33,-56.36,-993.08,113.75,-743.75,-358.75,1,94.340,
01/01/2000,00:56:03.27,22.33,-56.36,-993.08,227.50,-796.25,-297.50,1,94.343,
01/01/2000,00:56:03.28,22.33,-56.36,-993.08,157.50,-665.0,-236.25,1,94.347,
01/01/2000,00:56:03.29,22.33,-56.36,-992.96,105.0,-673.75,-253.75,1,94.350,
01/01/2000,00:56:03.30,22.33,-56.24,-992.84,262.50,-673.75,-341.25,1,94.353,
01/01/2000,00:56:03.31,22.45,-56.36,-992.84,227.50,-638.75,-402.50,1,94.357,
01/01/2000,00:56:03.32,22.45,-56.12,-992.84,122.50,-761.25,-350.0,1,94.360,
01/01/2000,00:56:03.33,22.45,-56.12,-992.84,157.50,-656.25,-288.75,1,94.364,
01/01/2000,00:56:03.35,22.33,-56.12,-992.84,323.75,-638.75,-341.25,1,94.367,
01/01/2000,00:56:03.36,22.57,-56.12,-993.08,113.75,-638.75,-402.50,1,94.370,
01/01/2000,00:56:03.37,22.94,-56.12,-993.08,218.75,-770.0,-297.50,1,94.374,
01/01/2000,00:56:03.38,22.94,-56.24,-992.84,105.0,-665.0,-288.75,1,94.377,
01/01/2000,00:56:03.39,22.57,-56.61,-992.71,-26.25,-778.75,-376.25,1,94.381,
01/01/2000,00:56:03.40,22.20,-56.61,-992.84,245.0,-787.50,-507.50,1,94.384,
01/01/2000,00:56:03.41,22.45,-56.00,-993.20,52.50,-665.0,-428.75,1,94.387,
01/01/2000,00:56:03.42,22.69,-55.88,-992.96,227.50,-726.25,-201.25,1,94.391,
01/01/2000,00:56:03.43,22.69,-56.00,-992.59,218.75,-700.0,-227.50,1,94.394,
01/01/2000,00:56:03.44,22.20,-56.36,-992.59,157.50,-708.75,-428.75,1,94.398,
01/01/2000,00:56:03.45,22.20,-56.61,-992.96,218.75,-647.50,-393.75,1,94.401,
01/01/2000,00:56:03.46,22.45,-56.36,-993.32,175.0,-735.0,-411.25,1,94.404,
01/01/2000,00:56:03.47,22.57,-56.12,-993.32,253.75,-743.75,-288.75,1,94.408,
01/01/2000,00:56:03.49,22.57,-55.88,-992.96,253.75,-665.0,-201.25,1,94.354,
01/01/2000,00:56:03.50,22.45,-56.24,-992.84,253.75,-708.75,-306.25,1,94.358,
01/01/2000,00:56:03.51,22.57,-56.61,-993.08,183.75,-673.75,-385.0,1,94.361,
01/01/2000,00:56:03.52,22.69,-56.61,-993.08,-43.75,-691.25,-315.0,1,94.365,
01/01/2000,00:56:03.53,22.81,-56.36,-993.08,140.0,-595.0,-332.50,1,94.368,
01/01/2000,00:56:03.54,22.69,-56.24,-992.84,253.75,-813.75,-288.75,1,94.371,
01/01/2000,00:56:03.55,22.57,-56.12,-992.84,43.75,-595.0,-358.75,1,94.375,
01/01/2000,00:56:03.56,22.81,-56.24,-993.20,192.50,-761.25,-341.25,1,94.378,
01/01/2000,00:56:03.57,22.94,-56.36,-993.32,35.0,-708.75,-113.75,1,94.381,
