rtcDate,rtcTime,aX,aY,aZ,gX,gY,gZ,dataRdy,output_Hz,
01/01/2000,01:15:33.20,18.42,-50.51,-854.49,218.75,-682.50,-280.0,1,100.0,
01/01/2000,01:15:33.22,18.79,-52.70,-886.21,175.0,-595.0,-446.25,1,100.0,
01/01/2000,01:15:33.23,18.79,-53.44,-905.24,140.0,-612.50,-332.50,1,100.0,
01/01/2000,01:15:33.24,19.40,-54.41,-916.10,157.50,-665.0,-288.75,1,100.0,
01/01/2000,01:15:33.25,19.76,-54.90,-925.49,35.0,-743.75,-280.0,1,100.0,
01/01/2000,01:15:33.26,19.89,-55.51,-933.79,35.0,-708.75,-245.0,1,100.0,
01/01/2000,01:15:33.27,19.89,-55.88,-940.99,96.25,-752.50,-350.0,1,100.0,
01/01/2000,01:15:33.28,20.01,-56.36,-950.26,253.75,-682.50,-271.25,1,88.889,
01/01/2000,01:15:33.29,20.25,-56.61,-955.75,122.50,-630.0,-358.75,1,90.0,
01/01/2000,01:15:33.30,20.25,-56.85,-960.38,70.0,-665.0,-280.0,1,90.909,
01/01/2000,01:15:33.31,20.50,-57.10,-966.24,148.75,-743.75,-341.25,1,91.667,
01/01/2000,01:15:33.32,20.50,-57.58,-969.29,201.25,-682.50,-385.0,1,92.308,
01/01/2000,01:15:33.33,20.50,-57.71,-972.22,140.0,-621.25,-350.0,1,92.857,
01/01/2000,01:15:33.34,20.50,-57.83,-974.78,236.25,-586.25,-332.50,1,93.333,
01/01/2000,01:15:33.35,20.74,-57.95,-978.07,262.50,-630.0,-350.0,1,93.750,
01/01/2000,01:15:33.36,20.74,-58.07,-979.78,183.75,-743.75,-271.25,1,94.118,
01/01/2000,01:15:33.37,20.74,-58.32,-981.37,175.0,-673.75,-315.0,1,94.444,
01/01/2000,01:15:33.38,20.74,-58.44,-982.83,148.75,-691.25,-411.25,1,94.737,
01/01/2000,01:15:33.39,20.98,-58.56,-984.78,78.75,-682.50,-262.50,1,95.0,
01/01/2000,01:15:33.40,20.98,-58.56,-985.76,227.50,-691.25,-306.25,1,95.238,
01/01/2000,01:15:33.42,20.98,-58.68,-986.74,-26.25,-691.25,-367.50,1,95.455,
01/01/2000,01:15:33.43,20.98,-58.80,-987.47,131.25,-647.50,-358.75,1,95.652,
01/01/2000,01:15:33.44,20.98,-58.80,-988.44,157.50,-682.50,-323.75,1,95.833,
01/01/2000,01:15:33.45,21.11,-58.68,-989.05,157.50,-796.25,-306.25,1,96.0,
01/01/2000,01:15:33.46,21.11,-58.80,-989.66,52.50,-717.50,-271.25,1,96.154,
01/01/2000,01:15:33.47,21.11,-58.93,-990.03,210.0,-673.75,-271.25,1,96.296,
01/01/2000,01:15:33.48,20.98,-59.05,-990.64,131.25,-656.25,-358.75,1,96.429,
01/01/2000,01:15:33.49,20.98,-59.17,-991.13,166.25,-638.75,-446.25,1,96.552,
01/01/2000,01:15:33.50,20.98,-58.93,-991.37,236.25,-752.50,-271.25,1,96.667,
01/01/2000,01:15:33.51,20.98,-59.05,-991.62,78.75,-778.75,-350.0,1,96.774,
01/01/2000,01:15:33.52,20.98,-59.29,-991.74,96.25,-735.0,-297.50,1,96.875,
01/01/2000,01:15:33.53,20.86,-59.29,-991.86,192.50,-778.75,-358.75,1,96.970,
01/01/2000,01:15:33.54,20.74,-59.17,-992.10,210.0,-638.75,-315.0,1,97.059,
01/01/2000,01:15:33.55,20.74,-58.93,-992.35,122.50,-595.0,-393.75,1,94.444,
01/01/2000,01:15:33.56,20.74,-58.80,-992.35,113.75,-735.0,-341.25,1,94.595,
01/01/2000,01:15:33.57,20.74,-58.80,-992.35,52.50,-743.75,-297.50,1,94.737,
01/01/2000,01:15:33.58,20.74,-58.93,-992.35,105.0,-665.0,-350.0,1,94.872,
01/01/2000,01:15:33.59,20.74,-58.93,-992.47,245.0,-673.75,-350.0,1,95.0,
01/01/2000,01:15:33.60,20.74,-58.93,-992.47,148.75,-673.75,-236.25,1,95.122,
01/01/2000,01:15:33.61,20.74,-58.80,-992.47,166.25,-665.0,-306.25,1,95.238,
01/01/2000,01:15:33.63,20.74,-58.80,-992.47,157.50,-673.75,-341.25,1,95.349,
01/01/2000,01:15:33.64,20.86,-58.68,-992.71,96.25,-630.0,-367.50,1,95.455,
01/01/2000,01:15:33.65,20.86,-58.80,-992.84,122.50,-673.75,-332.50,1,95.556,
01/01/2000,01:15:33.66,20.86,-59.05,-992.84,96.25,-630.0,-245.0,1,95.652,
01/01/2000,01:15:33.67,20.98,-58.93,-992.84,236.25,-752.50,-350.0,1,95.745,
01/01/2000,01:15:33.68,20.98,-58.80,-992.84,122.50,-691.25,-218.75,1,95.833,
01/01/2000,01:15:33.69,20.86,-58.68,-992.96,105.0,-673.75,-367.50,1,95.918,
01/01/2000,01:15:33.70,20.74,-58.80,-993.08,245.0,-726.25,-323.75,1,96.0,
01/01/2000,01:15:33.71,20.86,-58.80,-993.20,183.75,-630.0,-402.50,1,96.078,
01/01/2000,01:15:33.73,20.74,-58.80,-993.08,166.25,-691.25,-341.25,1,94.340,
01/01/2000,01:15:33.74,20.86,-58.80,-993.08,227.50,-542.50,-367.50,1,94.444,
01/01/2000,01:15:33.75,20.86,-58.80,-993.08,236.25,-778.75,-306.25,1,94.545,
01/01/2000,01:15:33.76,20.98,-58.93,-993.08,157.50,-647.50,-350.0,1,94.643,
01/01/2000,01:15:33.77,20.74,-59.05,-993.08,131.25,-665.0,-306.25,1,94.737,
01/01/2000,01:15:33.78,20.74,-59.05,-993.08,262.50,-621.25,-385.0,1,94.828,
01/01/2000,01:15:33.79,20.74,-59.17,-993.08,245.0,-595.0,-420.0,1,94.915,
01/01/2000,01:15:33.80,20.74,-58.93,-993.20,140.0,-612.50,-332.50,1,95.0,
01/01/2000,01:15:33.81,20.74,-58.93,-993.20,70.0,-638.75,-358.75,1,95.082,
01/01/2000,01:15:33.82,20.74,-59.05,-993.32,192.50,-691.25,-271.25,1,95.161,
01/01/2000,01:15:33.83,20.62,-59.05,-993.32,183.75,-665.0,-297.50,1,95.238,
01/01/2000,01:15:33.84,20.74,-58.93,-993.08,183.75,-551.25,-393.75,1,95.313,
01/01/2000,01:15:33.85,20.62,-58.93,-993.08,35.0,-673.75,-376.25,1,95.385,
01/01/2000,01:15:33.86,20.62,-59.05,-993.08,236.25,-595.0,-315.0,1,95.455,
01/01/2000,01:15:33.87,20.62,-59.05,-993.08,166.25,-656.25,-455.0,1,95.522,
01/01/2000,01:15:33.88,20.62,-59.05,-993.08,78.75,-735.0,-201.25,1,95.588,
01/01/2000,01:15:33.89,20.74,-59.17,-992.96,262.50,-726.25,-420.0,1,95.652,
01/01/2000,01:15:33.90,20.74,-59.17,-992.84,262.50,-656.25,-262.50,1,95.714,
01/01/2000,01:15:33.91,20.74,-59.17,-992.84,201.25,-700.0,-385.0,1,94.444,
01/01/2000,01:15:33.92,20.74,-59.05,-992.84,175.0,-717.50,-280.0,1,94.521,
01/01/2000,01:15:33.93,20.86,-58.93,-992.84,87.50,-700.0,-297.50,1,94.595,
01/01/2000,01:15:33.94,20.98,-58.80,-992.96,122.50,-603.75,-218.75,1,94.667,
01/01/2000,01:15:33.95,20.86,-58.93,-992.96,43.75,-700.0,-350.0,1,94.737,
01/01/2000,01:15:33.96,20.98,-58.93,-992.84,236.25,-778.75,-350.0,1,94.805,
01/01/2000,01:15:33.98,20.98,-59.05,-992.84,61.25,-796.25,-315.0,1,94.872,
01/01/2000,01:15:33.99,20.98,-58.93,-992.96,166.25,-717.50,-358.75,1,94.937,
01/01/2000,01:15:34.00,20.98,-59.05,-993.08,271.25,-673.75,-411.25,1,95.0,
01/01/2000,01:15:34.01,20.98,-58.93,-993.32,148.75,-673.75,-358.75,1,95.062,
01/01/2000,01:15:34.02,20.86,-59.05,-993.08,96.25,-735.0,-411.25,1,95.122,
01/01/2000,01:15:34.03,20.74,-59.05,-993.08,140.0,-708.75,-376.25,1,95.181,
01/01/2000,01:15:34.04,20.62,-59.05,-993.08,192.50,-638.75,-350.0,1,95.238,
01/01/2000,01:15:34.05,20.74,-59.05,-992.96,148.75,-778.75,-463.75,1,94.186,
01/01/2000,01:15:34.06,20.62,-59.05,-992.96,96.25,-638.75,-367.50,1,94.253,
01/01/2000,01:15:34.07,20.62,-58.93,-992.96,122.50,-691.25,-271.25,1,94.318,
01/01/2000,01:15:34.08,20.74,-58.80,-992.84,148.75,-638.75,-358.75,1,94.382,
01/01/2000,01:15:34.09,20.74,-58.93,-992.84,70.0,-595.0,-306.25,1,94.444,
01/01/2000,01:15:34.10,19.89,-59.29,-993.45,210.0,-621.25,-131.25,1,94.505,
01/01/2000,01:15:34.11,20.74,-58.80,-993.20,341.25,-638.75,-673.75,1,94.565,
01/01/2000,01:15:34.13,22.08,-58.68,-991.98,17.50,-770.0,-341.25,1,94.624,
01/01/2000,01:15:34.14,21.35,-59.29,-991.86,70.0,-752.50,682.50,1,94.681,
01/01/2000,01:15:34.15,20.13,-60.02,-992.23,192.50,-708.75,-332.50,1,94.737,
01/01/2000,01:15:34.16,20.13,-59.54,-993.32,210.0,-682.50,-1627.50,1,94.792,
01/01/2000,01:15:34.17,21.35,-58.56,-993.32,122.50,-691.25,-1233.75,1,94.845,
01/01/2000,01:15:34.18,21.11,-58.44,-992.84,87.50,-638.75,717.50,1,94.898,
01/01/2000,01:15:34.19,20.74,-58.93,-991.62,131.25,-700.0,341.25,1,94.949,
01/01/2000,01:15:34.20,20.74,-59.54,-991.74,157.50,-822.50,-1050.0,1,95.0,
01/01/2000,01:15:34.21,20.86,-59.90,-992.59,131.25,-726.25,-857.50,1,95.050,
01/01/2000,01:15:34.22,20.98,-59.54,-993.57,43.75,-560.0,-43.75,1,95.098,
01/01/2000,01:15:34.23,21.35,-58.68,-992.59,201.25,-665.0,-332.50,1,94.231,
01/01/2000,01:15:34.25,20.98,-58.44,-991.62,113.75,-743.75,-70.0,1,94.286,
01/01/2000,01:15:34.26,20.74,-58.93,-991.62,175.0,-665.0,-332.50,1,94.340,
01/01/2000,01:15:34.27,21.11,-59.66,-992.71,210.0,-647.50,-595.0,1,94.393,
01/01/2000,01:15:34.28,21.35,-59.66,-993.08,210.0,-691.25,-463.75,1,94.444,
01/01/2000,01:15:34.29,21.23,-59.54,-992.84,122.50,-735.0,-288.75,1,94.495,
01/01/2000,01:15:34.30,20.86,-59.05,-991.49,201.25,-708.75,-402.50,1,94.545,
01/01/2000,01:15:34.31,20.98,-58.56,-991.37,148.75,-673.75,-315.0,1,94.595,
01/01/2000,01:15:34.32,20.98,-58.93,-991.86,253.75,-743.75,-245.0,1,94.643,
01/01/2000,01:15:34.33,20.98,-59.17,-992.84,122.50,-665.0,-227.50,1,94.690,
01/01/2000,01:15:34.34,20.98,-59.54,-993.08,157.50,-682.50,-490.0,1,94.737,
01/01/2000,01:15:34.35,20.74,-59.29,-992.47,201.25,-612.50,-420.0,1,94.783,
01/01/2000,01:15:34.36,20.50,-59.05,-991.98,43.75,-778.75,-315.0,1,94.828,
01/01/2000,01:15:34.37,20.62,-58.80,-991.98,253.75,-691.25,-323.75,1,94.872,
01/01/2000,01:15:34.38,21.11,-58.80,-992.84,166.25,-735.0,-253.75,1,94.915,
01/01/2000,01:15:34.39,21.23,-59.29,-993.08,166.25,-603.75,-262.50,1,94.958,
01/01/2000,01:15:34.40,20.62,-59.41,-992.59,166.25,-743.75,-411.25,1,94.215,
01/01/2000,01:15:34.41,20.74,-59.29,-992.10,166.25,-708.75,-446.25,1,94.262,
01/01/2000,01:15:34.42,20.98,-58.93,-991.86,288.75,-700.0,-350.0,1,94.309,
01/01/2000,01:15:34.43,21.11,-58.80,-992.35,175.0,-673.75,-315.0,1,94.355,
01/01/2000,01:15:34.44,20.98,-59.29,-992.96,105.0,-560.0,-315.0,1,94.400,
01/01/2000,01:15:34.45,20.74,-59.54,-992.84,166.25,-673.75,-358.75,1,94.444,
01/01/2000,01:15:34.46,20.62,-59.54,-992.59,96.25,-533.75,-315.0,1,94.488,
01/01/2000,01:15:34.48,20.86,-59.05,-992.47,105.0,-673.75,-402.50,1,94.531,
01/01/2000,01:15:34.49,20.98,-58.80,-992.47,140.0,-673.75,-183.75,1,94.574,
01/01/2000,01:15:34.50,20.98,-59.05,-992.71,105.0,-726.25,-227.50,1,94.615,
01/01/2000,01:15:34.51,20.74,-59.29,-992.84,183.75,-717.50,-236.25,1,94.656,
01/01/2000,01:15:34.52,20.62,-59.29,-992.71,131.25,-638.75,-446.25,1,94.697,
01/01/2000,01:15:34.53,20.86,-58.93,-992.59,157.50,-691.25,-490.0,1,94.737,
01/01/2000,01:15:34.54,21.23,-58.68,-992.47,262.50,-892.50,-140.0,1,94.776,
01/01/2000,01:15:34.55,20.98,-59.17,-992.59,148.75,-638.75,-122.50,1,94.815,
01/01/2000,01:15:34.56,20.74,-59.54,-992.71,166.25,-743.75,-446.25,1,94.853,
01/01/2000,01:15:34.57,20.74,-59.29,-992.59,166.25,-752.50,-560.0,1,94.891,
01/01/2000,01:15:34.58,20.74,-59.05,-992.59,140.0,-586.25,-376.25,1,94.928,
01/01/2000,01:15:34.59,20.86,-59.05,-992.59,113.75,-682.50,-288.75,1,94.964,
01/01/2000,01:15:34.60,20.86,-59.05,-992.59,236.25,-708.75,-271.25,1,95.0,
01/01/2000,01:15:34.61,20.74,-59.29,-992.35,122.50,-647.50,-385.0,1,94.366,
01/01/2000,01:15:34.62,20.62,-59.29,-992.59,148.75,-717.50,-472.50,1,94.406,
01/01/2000,01:15:34.63,20.74,-59.17,-992.59,227.50,-752.50,-245.0,1,94.444,
01/01/2000,01:15:34.64,21.11,-58.68,-992.59,96.25,-691.25,-288.75,1,94.483,
01/01/2000,01:15:34.65,20.98,-58.68,-992.35,323.75,-691.25,-271.25,1,94.521,
01/01/2000,01:15:34.66,20.86,-59.05,-992.35,192.50,-708.75,-280.0,1,94.558,
01/01/2000,01:15:34.67,20.98,-59.05,-992.59,192.50,-551.25,-350.0,1,94.595,
01/01/2000,01:15:34.69,21.23,-59.05,-992.71,113.75,-638.75,-288.75,1,94.631,
01/01/2000,01:15:34.70,21.23,-58.80,-992.59,122.50,-726.25,-297.50,1,94.667,
01/01/2000,01:15:34.71,21.23,-58.80,-992.47,78.75,-682.50,-323.75,1,94.702,
01/01/2000,01:15:34.72,21.11,-58.93,-992.35,236.25,-805.0,-358.75,1,94.737,
01/01/2000,01:15:34.73,21.23,-58.93,-992.71,43.75,-752.50,-367.50,1,94.771,
01/01/2000,01:15:34.74,21.35,-58.93,-992.84,175.0,-638.75,-428.75,1,94.194,
01/01/2000,01:15:34.76,21.23,-59.05,-992.59,227.50,-743.75,-297.50,1,94.231,
01/01/2000,01:15:34.77,20.98,-58.80,-992.59,183.75,-717.50,-437.50,1,94.268,
01/01/2000,01:15:34.78,20.98,-58.80,-992.35,192.50,-761.25,-306.25,1,94.304,
01/01/2000,01:15:34.79,21.23,-58.80,-992.47,166.25,-717.50,-323.75,1,94.340,
01/01/2000,01:15:34.80,21.35,-58.80,-992.47,271.25,-770.0,-315.0,1,94.375,
01/01/2000,01:15:34.81,21.23,-59.17,-992.47,61.25,-656.25,-245.0,1,94.410,
01/01/2000,01:15:34.82,21.11,-59.17,-992.35,245.0,-673.75,-437.50,1,94.444,
01/01/2000,01:15:34.83,20.86,-58.93,-992.59,218.75,-743.75,-385.0,1,94.479,
01/01/2000,01:15:34.84,20.98,-58.68,-992.59,113.75,-787.50,-350.0,1,94.512,
01/01/2000,01:15:34.85,21.11,-58.80,-992.47,113.75,-673.75,-280.0,1,94.545,
01/01/2000,01:15:34.86,20.98,-59.05,-992.35,253.75,-691.25,-332.50,1,94.578,
01/01/2000,01:15:34.87,20.74,-59.29,-992.23,43.75,-621.25,-411.25,1,94.611,
01/01/2000,01:15:34.88,20.50,-59.29,-992.47,192.50,-673.75,-376.25,1,94.643,
01/01/2000,01:15:34.89,20.86,-58.80,-992.59,210.0,-752.50,-393.75,1,94.675,
01/01/2000,01:15:34.90,20.62,-58.56,-992.35,157.50,-796.25,-210.0,1,94.706,
01/01/2000,01:15:34.91,20.37,-58.80,-992.35,131.25,-726.25,-297.50,1,94.737,
01/01/2000,01:15:34.92,20.25,-59.05,-992.35,218.75,-682.50,-332.50,1,94.767,
01/01/2000,01:15:34.93,20.50,-59.05,-992.59,183.75,-770.0,-481.25,1,94.798,
01/01/2000,01:15:34.94,20.74,-58.93,-992.59,183.75,-848.75,-341.25,1,94.828,
01/01/2000,01:15:34.95,20.86,-58.93,-992.35,122.50,-787.50,-306.25,1,94.857,
01/01/2000,01:15:34.96,20.62,-58.93,-992.23,52.50,-743.75,-253.75,1,94.350,
01/01/2000,01:15:34.98,20.74,-59.17,-992.35,105.0,-787.50,-341.25,1,94.382,
01/01/2000,01:15:34.99,20.74,-58.93,-992.84,113.75,-717.50,-297.50,1,94.413,
01/01/2000,01:15:35.00,20.98,-59.05,-992.96,262.50,-726.25,-323.75,1,94.444,
01/01/2000,01:15:35.01,20.86,-59.17,-992.59,192.50,-778.75,-262.50,1,94.475,
01/01/2000,01:15:35.02,20.74,-59.05,-992.35,61.25,-770.0,-490.0,1,94.505,
01/01/2000,01:15:35.03,20.74,-59.29,-992.35,271.25,-770.0,-358.75,1,94.536,
01/01/2000,01:15:35.04,20.86,-59.05,-992.84,140.0,-656.25,-446.25,1,94.565,
01/01/2000,01:15:35.05,20.98,-59.05,-992.96,183.75,-743.75,-455.0,1,94.595,
01/01/2000,01:15:35.06,20.86,-59.05,-992.71,210.0,-691.25,-350.0,1,94.624,
01/01/2000,01:15:35.07,20.74,-59.05,-992.35,122.50,-665.0,-376.25,1,94.652,
01/01/2000,01:15:35.08,20.62,-59.17,-992.35,26.25,-682.50,-323.75,1,94.681,
01/01/2000,01:15:35.09,20.98,-59.05,-992.71,157.50,-647.50,-393.75,1,94.709,
01/01/2000,01:15:35.10,21.11,-59.17,-993.08,87.50,-691.25,-315.0,1,94.737,
01/01/2000,01:15:35.11,20.86,-59.17,-992.84,43.75,-752.50,-253.75,1,94.271,
01/01/2000,01:15:35.12,20.74,-59.29,-992.35,157.50,-647.50,-498.75,1,94.301,
01/01/2000,01:15:35.13,20.74,-59.05,-992.47,201.25,-726.25,-315.0,1,94.330,
01/01/2000,01:15:35.14,20.98,-59.05,-992.59,122.50,-831.25,-358.75,1,94.359,
01/01/2000,01:15:35.15,20.98,-59.05,-992.84,297.50,-682.50,-210.0,1,94.388,
01/01/2000,01:15:35.16,20.86,-59.05,-992.59,183.75,-787.50,-306.25,1,94.416,
01/01/2000,01:15:35.18,20.62,-59.29,-992.35,183.75,-700.0,-385.0,1,94.444,
01/01/2000,01:15:35.19,20.74,-58.80,-992.47,148.75,-682.50,-236.25,1,94.472,
01/01/2000,01:15:35.20,21.11,-58.80,-992.47,236.25,-665.0,-332.50,1,94.500,
01/01/2000,01:15:35.21,21.11,-59.05,-992.47,166.25,-770.0,-306.25,1,94.527,
01/01/2000,01:15:35.22,20.98,-59.17,-992.59,96.25,-761.25,-428.75,1,94.554,
01/01/2000,01:15:35.23,20.98,-59.29,-992.35,78.75,-743.75,-402.50,1,94.581,
01/01/2000,01:15:35.24,20.98,-59.05,-992.35,253.75,-673.75,-411.25,1,94.608,
01/01/2000,01:15:35.26,20.98,-58.93,-992.23,175.0,-717.50,-262.50,1,94.175,
01/01/2000,01:15:35.27,20.86,-59.05,-992.35,236.25,-682.50,-245.0,1,94.203,
01/01/2000,01:15:35.28,20.74,-59.29,-992.35,227.50,-787.50,-402.50,1,94.231,
01/01/2000,01:15:35.29,20.86,-59.29,-992.35,113.75,-700.0,-323.75,1,94.258,
01/01/2000,01:15:35.30,20.86,-59.05,-992.47,157.50,-735.0,-297.50,1,94.286,
01/01/2000,01:15:35.31,20.74,-59.05,-992.35,113.75,-612.50,-315.0,1,94.313,
01/01/2000,01:15:35.32,20.62,-59.17,-992.35,201.25,-647.50,-288.75,1,94.340,
01/01/2000,01:15:35.33,20.62,-59.17,-992.35,61.25,-778.75,-367.50,1,94.366,
01/01/2000,01:15:35.34,20.74,-59.17,-992.59,157.50,-735.0,-288.75,1,94.393,
01/01/2000,01:15:35.35,20.86,-59.05,-992.59,192.50,-568.75,-288.75,1,94.419,
01/01/2000,01:15:35.36,20.74,-59.17,-992.59,323.75,-647.50,-253.75,1,94.444,
01/01/2000,01:15:35.37,20.74,-58.93,-992.35,140.0,-682.50,-402.50,1,94.470,
01/01/2000,01:15:35.38,20.74,-59.05,-992.35,210.0,-752.50,-393.75,1,94.495,
01/01/2000,01:15:35.39,21.11,-58.93,-992.47,122.50,-656.25,-210.0,1,94.521,
01/01/2000,01:15:35.40,20.86,-59.29,-992.59,183.75,-787.50,-315.0,1,94.545,
01/01/2000,01:15:35.41,20.86,-59.05,-992.71,157.50,-761.25,-420.0,1,94.570,
01/01/2000,01:15:35.42,20.98,-59.05,-992.59,245.0,-831.25,-385.0,1,94.595,
01/01/2000,01:15:35.43,20.98,-59.05,-992.59,87.50,-708.75,-253.75,1,94.619,
01/01/2000,01:15:35.44,20.86,-58.93,-992.47,253.75,-656.25,-420.0,1,94.643,
01/01/2000,01:15:35.45,20.98,-59.05,-992.35,367.50,-726.25,-210.0,1,94.667,
01/01/2000,01:15:35.46,20.98,-59.05,-992.35,70.0,-700.0,-280.0,1,94.273,
01/01/2000,01:15:35.47,20.86,-59.29,-992.35,210.0,-796.25,-358.75,1,94.298,
01/01/2000,01:15:35.48,20.98,-59.29,-992.59,236.25,-665.0,-358.75,1,94.323,
01/01/2000,01:15:35.49,20.98,-59.29,-992.47,70.0,-630.0,-341.25,1,94.348,
01/01/2000,01:15:35.50,20.98,-59.29,-992.47,262.50,-726.25,-280.0,1,94.372,
01/01/2000,01:15:35.51,20.74,-59.29,-992.35,183.75,-630.0,-350.0,1,94.397,
01/01/2000,01:15:35.53,20.74,-59.41,-992.23,192.50,-813.75,-315.0,1,94.421,
01/01/2000,01:15:35.54,20.74,-59.17,-992.47,70.0,-673.75,-271.25,1,94.444,
01/01/2000,01:15:35.55,20.86,-59.29,-992.59,157.50,-673.75,-297.50,1,94.468,
01/01/2000,01:15:35.56,20.86,-59.41,-992.59,26.25,-700.0,-376.25,1,94.492,
01/01/2000,01:15:35.57,20.74,-59.29,-992.35,131.25,-568.75,-385.0,1,94.515,
01/01/2000,01:15:35.58,20.74,-59.29,-992.35,253.75,-673.75,-341.25,1,94.538,
01/01/2000,01:15:35.59,20.74,-59.05,-992.35,183.75,-700.0,-332.50,1,94.561,
01/01/2000,01:15:35.60,20.74,-59.17,-992.59,192.50,-743.75,-306.25,1,94.583,
01/01/2000,01:15:35.61,20.74,-59.17,-992.59,262.50,-630.0,-315.0,1,94.606,
01/01/2000,01:15:35.62,20.50,-59.05,-992.35,96.25,-735.0,-280.0,1,94.628,
01/01/2000,01:15:35.63,20.50,-59.29,-992.35,218.75,-735.0,-455.0,1,94.650,
01/01/2000,01:15:35.64,20.37,-59.17,-992.47,245.0,-630.0,-315.0,1,94.672,
01/01/2000,01:15:35.65,20.50,-58.93,-992.47,183.75,-682.50,-227.50,1,94.694,
01/01/2000,01:15:35.66,20.62,-59.05,-992.59,306.25,-682.50,-350.0,1,94.332,
01/01/2000,01:15:35.68,20.50,-58.93,-992.47,43.75,-647.50,-350.0,1,94.355,
01/01/2000,01:15:35.69,20.50,-59.05,-992.35,253.75,-691.25,-420.0,1,94.378,
01/01/2000,01:15:35.70,20.62,-58.80,-992.35,113.75,-700.0,-253.75,1,94.400,
01/01/2000,01:15:35.71,20.74,-58.93,-992.35,0.0,-665.0,-297.50,1,94.422,
01/01/2000,01:15:35.72,20.74,-59.05,-992.23,210.0,-647.50,-323.75,1,94.444,
01/01/2000,01:15:35.73,20.62,-59.05,-992.10,96.25,-647.50,-367.50,1,94.466,
01/01/2000,01:15:35.74,20.50,-59.05,-992.10,201.25,-630.0,-402.50,1,94.488,
01/01/2000,01:15:35.75,20.74,-58.80,-992.10,183.75,-638.75,-332.50,1,94.510,
01/01/2000,01:15:35.76,20.86,-59.05,-991.98,175.0,-726.25,-315.0,1,94.163,
01/01/2000,01:15:35.77,20.86,-58.93,-991.98,78.75,-638.75,-455.0,1,94.186,
01/01/2000,01:15:35.78,20.74,-58.93,-992.10,35.0,-743.75,-367.50,1,94.208,
01/01/2000,01:15:35.79,20.74,-58.93,-992.10,131.25,-735.0,-341.25,1,94.231,
01/01/2000,01:15:35.80,20.74,-58.80,-992.23,122.50,-708.75,-341.25,1,94.253,
01/01/2000,01:15:35.82,20.86,-58.80,-992.10,148.75,-708.75,-306.25,1,94.275,
01/01/2000,01:15:35.83,20.86,-59.05,-992.10,245.0,-840.0,-385.0,1,94.297,
01/01/2000,01:15:35.84,20.74,-58.93,-992.35,122.50,-603.75,-297.50,1,94.318,
01/01/2000,01:15:35.85,20.86,-59.05,-992.35,140.0,-708.75,-420.0,1,94.340,
01/01/2000,01:15:35.86,20.86,-58.93,-992.35,218.75,-691.25,-367.50,1,94.361,
01/01/2000,01:15:35.87,20.74,-59.05,-992.35,288.75,-621.25,-385.0,1,94.382,
01/01/2000,01:15:35.88,20.86,-59.17,-992.23,70.0,-612.50,-253.75,1,94.403,
01/01/2000,01:15:35.89,20.86,-59.05,-992.23,175.0,-665.0,-385.0,1,94.424,
01/01/2000,01:15:35.90,20.98,-59.05,-992.35,157.50,-770.0,-297.50,1,94.444,
01/01/2000,01:15:35.91,20.98,-59.05,-992.47,148.75,-778.75,-358.75,1,94.465,
01/01/2000,01:15:35.92,20.98,-59.05,-992.23,192.50,-752.50,-262.50,1,94.485,
01/01/2000,01:15:35.93,20.98,-59.05,-992.10,175.0,-603.75,-315.0,1,94.505,
01/01/2000,01:15:35.94,21.11,-58.80,-992.10,210.0,-708.75,-236.25,1,94.526,
01/01/2000,01:15:35.95,21.11,-59.29,-992.23,218.75,-665.0,-402.50,1,94.545,
01/01/2000,01:15:35.96,20.98,-59.17,-992.35,78.75,-621.25,-306.25,1,94.565,
01/01/2000,01:15:35.97,20.98,-59.17,-992.10,210.0,-787.50,-411.25,1,94.245,
01/01/2000,01:15:35.98,20.74,-59.05,-992.10,245.0,-717.50,-253.75,1,94.604,
01/01/2000,01:15:35.99,20.74,-59.05,-992.10,210.0,-656.25,-323.75,1,94.286,
01/01/2000,01:15:36.00,20.86,-59.17,-992.10,297.50,-612.50,-367.50,1,94.643,
01/01/2000,01:15:36.01,20.74,-58.93,-992.47,148.75,-761.25,-218.75,1,94.326,
01/01/2000,01:15:36.03,20.74,-59.29,-992.23,201.25,-586.25,-367.50,1,94.346,
01/01/2000,01:15:36.04,20.62,-59.29,-992.23,201.25,-700.0,-367.50,1,94.366,
01/01/2000,01:15:36.05,20.74,-59.05,-992.10,105.0,-665.0,-280.0,1,94.386,
01/01/2000,01:15:36.06,20.86,-59.29,-992.10,148.75,-770.0,-341.25,1,94.406,
01/01/2000,01:15:36.07,20.62,-59.17,-992.23,131.25,-708.75,-367.50,1,94.425,
01/01/2000,01:15:36.08,20.62,-59.17,-992.10,271.25,-665.0,-332.50,1,94.444,
01/01/2000,01:15:36.09,20.62,-59.05,-992.10,262.50,-673.75,-358.75,1,94.464,
01/01/2000,01:15:36.10,20.98,-58.93,-991.86,131.25,-682.50,-315.0,1,94.483,
01/01/2000,01:15:36.11,20.86,-59.29,-991.74,175.0,-743.75,-411.25,1,94.502,
01/01/2000,01:15:36.12,20.62,-59.29,-991.98,96.25,-691.25,-315.0,1,94.521,
01/01/2000,01:15:36.13,20.74,-59.29,-991.98,43.75,-647.50,-472.50,1,94.539,
01/01/2000,01:15:36.14,20.74,-59.41,-992.10,280.0,-647.50,-271.25,1,94.558,
01/01/2000,01:15:36.15,20.74,-58.80,-992.10,113.75,-647.50,-280.0,1,94.576,
01/01/2000,01:15:36.16,20.86,-59.29,-991.86,280.0,-796.25,-245.0,1,94.276,
01/01/2000,01:15:36.17,20.74,-59.17,-991.98,-17.50,-770.0,-236.25,1,94.295,
01/01/2000,01:15:36.18,20.98,-59.29,-992.35,218.75,-752.50,-288.75,1,94.314,
01/01/2000,01:15:36.19,20.98,-59.29,-992.35,288.75,-778.75,-437.50,1,94.333,
01/01/2000,01:15:36.20,20.74,-58.93,-992.10,78.75,-551.25,-306.25,1,94.352,
01/01/2000,01:15:36.21,20.98,-59.05,-991.86,183.75,-647.50,-332.50,1,94.371,
01/01/2000,01:15:36.22,20.98,-59.17,-991.74,96.25,-647.50,-420.0,1,94.389,
01/01/2000,01:15:36.24,20.86,-59.05,-991.98,148.75,-752.50,-236.25,1,94.408,
01/01/2000,01:15:36.25,20.98,-59.41,-992.10,350.0,-586.25,-455.0,1,94.426,
01/01/2000,01:15:36.26,20.74,-58.93,-992.35,113.75,-796.25,-402.50,1,94.444,
01/01/2000,01:15:36.27,20.98,-59.05,-992.10,148.75,-717.50,-350.0,1,94.156,
01/01/2000,01:15:36.28,20.74,-58.93,-991.98,262.50,-682.50,-341.25,1,94.175,
01/01/2000,01:15:36.29,20.86,-59.05,-991.86,122.50,-665.0,-350.0,1,94.194,
01/01/2000,01:15:36.30,20.86,-59.29,-991.98,183.75,-700.0,-376.25,1,94.212,
01/01/2000,01:15:36.31,20.86,-59.17,-991.98,35.0,-656.25,-175.0,1,94.231,
01/01/2000,01:15:36.32,20.86,-59.17,-992.10,157.50,-647.50,-411.25,1,94.249,
01/01/2000,01:15:36.33,20.86,-59.05,-992.10,35.0,-796.25,-350.0,1,94.268,
01/01/2000,01:15:36.34,20.74,-58.93,-992.10,210.0,-752.50,-350.0,1,94.286,
01/01/2000,01:15:36.35,20.86,-59.05,-991.98,192.50,-638.75,-236.25,1,94.304,
01/01/2000,01:15:36.37,20.74,-59.17,-992.10,26.25,-735.0,-411.25,1,94.322,
01/01/2000,01:15:36.38,20.50,-59.17,-991.98,280.0,-691.25,-376.25,1,94.340,
01/01/2000,01:15:36.39,20.74,-59.05,-991.98,105.0,-717.50,-393.75,1,94.357,
01/01/2000,01:15:36.40,20.74,-59.05,-992.10,131.25,-717.50,-393.75,1,94.375,
01/01/2000,01:15:36.41,20.74,-58.93,-992.10,43.75,-656.25,-280.0,1,94.393,
01/01/2000,01:15:36.42,20.86,-59.17,-992.23,236.25,-533.75,-455.0,1,94.410,
01/01/2000,01:15:36.43,20.86,-59.17,-992.10,140.0,-700.0,-280.0,1,94.427,
01/01/2000,01:15:36.44,20.98,-59.17,-992.10,201.25,-778.75,-402.50,1,94.444,
01/01/2000,01:15:36.45,20.98,-59.17,-991.86,341.25,-726.25,-306.25,1,94.462,
01/01/2000,01:15:36.46,20.86,-58.93,-991.86,96.25,-770.0,-367.50,1,94.479,
01/01/2000,01:15:36.47,20.98,-59.17,-991.86,253.75,-647.50,-288.75,1,94.495,
01/01/2000,01:15:36.48,20.98,-59.17,-991.86,218.75,-603.75,-192.50,1,94.512,
01/01/2000,01:15:36.49,20.86,-59.17,-991.98,183.75,-700.0,-402.50,1,94.529,
01/01/2000,01:15:36.50,20.98,-59.17,-992.10,122.50,-708.75,-350.0,1,94.545,
01/01/2000,01:15:36.51,20.98,-59.05,-991.98,131.25,-822.50,-376.25,1,94.562,
01/01/2000,01:15:36.52,20.98,-59.05,-991.98,210.0,-726.25,-253.75,1,94.578,
01/01/2000,01:15:36.53,21.11,-58.93,-992.10,52.50,-665.0,-350.0,1,94.311,
01/01/2000,01:15:36.54,20.74,-59.05,-992.10,166.25,-630.0,-358.75,1,94.611,
01/01/2000,01:15:36.55,20.86,-59.29,-992.10,35.0,-638.75,-262.50,1,94.345,
01/01/2000,01:15:36.56,20.98,-58.93,-991.98,157.50,-700.0,-481.25,1,94.362,
01/01/2000,01:15:36.57,20.98,-59.05,-991.86,140.0,-638.75,-227.50,1,94.379,
01/01/2000,01:15:36.59,20.86,-59.05,-991.86,78.75,-691.25,-411.25,1,94.395,
01/01/2000,01:15:36.60,20.74,-59.29,-992.10,157.50,-752.50,-393.75,1,94.412,
01/01/2000,01:15:36.61,20.98,-59.17,-992.23,113.75,-691.25,-332.50,1,94.428,
01/01/2000,01:15:36.62,20.74,-59.29,-992.10,358.75,-700.0,-236.25,1,94.444,
01/01/2000,01:15:36.63,20.74,-59.17,-991.98,122.50,-638.75,-323.75,1,94.461,
01/01/2000,01:15:36.64,20.98,-59.29,-991.98,218.75,-691.25,-306.25,1,94.477,
01/01/2000,01:15:36.65,21.11,-59.05,-992.23,78.75,-787.50,-245.0,1,94.493,
01/01/2000,01:15:36.66,20.98,-59.17,-992.35,175.0,-691.25,-385.0,1,94.509,
01/01/2000,01:15:36.67,21.11,-59.29,-992.23,157.50,-673.75,-341.25,1,94.524,
01/01/2000,01:15:36.68,21.11,-59.29,-991.86,210.0,-647.50,-350.0,1,94.540,
01/01/2000,01:15:36.69,21.11,-59.29,-991.86,43.75,-665.0,-393.75,1,94.556,
01/01/2000,01:15:36.70,21.11,-59.05,-992.10,140.0,-665.0,-306.25,1,94.571,
01/01/2000,01:15:36.71,21.11,-59.05,-992.35,157.50,-761.25,-350.0,1,94.587,
01/01/2000,01:15:36.72,20.98,-59.17,-992.47,87.50,-691.25,-236.25,1,94.602,
01/01/2000,01:15:36.73,20.98,-59.29,-992.35,96.25,-726.25,-341.25,1,94.350,
01/01/2000,01:15:36.74,20.98,-59.17,-992.23,131.25,-621.25,-306.25,1,94.366,
01/01/2000,01:15:36.75,20.98,-59.17,-992.35,201.25,-621.25,-350.0,1,94.382,
01/01/2000,01:15:36.76,20.86,-59.29,-992.35,166.25,-796.25,-358.75,1,94.398,
01/01/2000,01:15:36.77,20.62,-59.17,-992.23,166.25,-726.25,-393.75,1,94.413,
01/01/2000,01:15:36.79,20.74,-58.93,-992.23,192.50,-761.25,-455.0,1,94.429,
01/01/2000,01:15:36.80,20.74,-58.93,-992.35,175.0,-612.50,-245.0,1,94.444,
01/01/2000,01:15:36.81,20.86,-59.05,-992.47,122.50,-708.75,-323.75,1,94.460,
01/01/2000,01:15:36.82,20.74,-59.17,-992.47,262.50,-665.0,-402.50,1,94.475,
01/01/2000,01:15:36.83,20.74,-59.05,-992.35,113.75,-735.0,-280.0,1,94.490,
01/01/2000,01:15:36.84,20.74,-59.05,-992.35,122.50,-682.50,-402.50,1,94.505,
01/01/2000,01:15:36.85,20.62,-58.93,-992.59,43.75,-700.0,-227.50,1,94.521,
01/01/2000,01:15:36.86,20.62,-59.05,-992.71,218.75,-595.0,-332.50,1,94.536,
01/01/2000,01:15:36.87,20.74,-59.05,-992.59,262.50,-805.0,-253.75,1,94.293,
01/01/2000,01:15:36.88,20.74,-59.17,-992.59,227.50,-717.50,-402.50,1,94.309,
01/01/2000,01:15:36.89,20.86,-59.29,-992.59,78.75,-673.75,-262.50,1,94.324,
01/01/2000,01:15:36.90,20.86,-59.29,-992.59,140.0,-787.50,-463.75,1,94.340,
01/01/2000,01:15:36.91,20.86,-59.29,-992.59,113.75,-787.50,-323.75,1,94.355,
01/01/2000,01:15:36.92,20.98,-59.17,-992.59,323.75,-621.25,-332.50,1,94.370,
01/01/2000,01:15:36.94,20.86,-59.17,-992.47,105.0,-761.25,-385.0,1,94.385,
01/01/2000,01:15:36.95,20.86,-59.29,-992.35,166.25,-586.25,-280.0,1,94.400,
01/01/2000,01:15:36.96,20.98,-59.17,-992.23,157.50,-805.0,-437.50,1,94.415,
01/01/2000,01:15:36.97,20.86,-59.17,-992.35,148.75,-612.50,-297.50,1,94.430,
01/01/2000,01:15:36.98,20.98,-59.29,-992.35,140.0,-787.50,-358.75,1,94.444,
01/01/2000,01:15:36.99,20.98,-59.05,-992.47,271.25,-796.25,-367.50,1,94.459,
01/01/2000,01:15:37.00,20.86,-59.05,-992.59,201.25,-743.75,-341.25,1,94.474,
01/01/2000,01:15:37.01,20.98,-59.29,-992.35,227.50,-621.25,-350.0,1,94.488,
01/01/2000,01:15:37.02,20.98,-59.17,-992.10,166.25,-682.50,-376.25,1,94.503,
01/01/2000,01:15:37.03,20.98,-59.29,-992.23,218.75,-770.0,-367.50,1,94.517,
01/01/2000,01:15:37.04,20.98,-59.29,-992.35,192.50,-813.75,-402.50,1,94.531,
01/01/2000,01:15:37.05,20.86,-59.17,-992.35,70.0,-656.25,-288.75,1,94.545,
01/01/2000,01:15:37.06,20.98,-59.17,-992.47,183.75,-717.50,-393.75,1,94.560,
01/01/2000,01:15:37.07,20.74,-59.17,-992.35,131.25,-691.25,-218.75,1,94.574,
01/01/2000,01:15:37.08,20.86,-59.05,-992.35,105.0,-840.0,-376.25,1,94.344,
01/01/2000,01:15:37.09,20.86,-59.17,-992.23,122.50,-612.50,-332.50,1,94.359,
01/01/2000,01:15:37.10,20.86,-59.17,-992.35,131.25,-735.0,-297.50,1,94.373,
01/01/2000,01:15:37.12,20.98,-59.17,-992.35,201.25,-603.75,-358.75,1,94.388,
01/01/2000,01:15:37.12,20.86,-59.17,-992.47,96.25,-533.75,-210.0,1,94.402,
01/01/2000,01:15:37.14,20.86,-58.93,-992.47,148.75,-665.0,-297.50,1,94.416,
01/01/2000,01:15:37.15,20.98,-59.05,-992.23,175.0,-735.0,-323.75,1,94.430,
01/01/2000,01:15:37.16,20.86,-59.05,-992.23,253.75,-621.25,-245.0,1,94.444,
01/01/2000,01:15:37.17,20.98,-59.17,-992.23,43.75,-630.0,-358.75,1,94.458,
01/01/2000,01:15:37.18,20.98,-59.29,-992.23,175.0,-630.0,-341.25,1,94.472,
01/01/2000,01:15:37.19,20.86,-59.17,-992.23,218.75,-630.0,-358.75,1,94.486,
01/01/2000,01:15:37.20,20.86,-59.17,-992.10,61.25,-743.75,-341.25,1,94.500,
01/01/2000,01:15:37.21,20.86,-58.93,-992.10,131.25,-805.0,-245.0,1,94.514,
01/01/2000,01:15:37.22,20.98,-59.29,-992.47,253.75,-568.75,-402.50,1,94.293,
01/01/2000,01:15:37.23,20.98,-59.17,-992.47,253.75,-595.0,-367.50,1,94.307,
01/01/2000,01:15:37.24,20.98,-59.17,-992.47,192.50,-708.75,-358.75,1,94.321,
01/01/2000,01:15:37.25,21.11,-58.80,-992.23,105.0,-691.25,-332.50,1,94.335,
01/01/2000,01:15:37.26,20.98,-58.80,-992.10,227.50,-665.0,-332.50,1,94.349,
01/01/2000,01:15:37.27,20.98,-59.05,-992.35,140.0,-647.50,-315.0,1,94.363,
01/01/2000,01:15:37.28,20.86,-59.29,-992.47,122.50,-735.0,-271.25,1,94.377,
01/01/2000,01:15:37.30,20.98,-59.17,-992.47,262.50,-796.25,-332.50,1,94.390,
01/01/2000,01:15:37.31,20.98,-59.05,-992.47,183.75,-717.50,-428.75,1,94.404,
01/01/2000,01:15:37.32,20.98,-59.05,-992.10,192.50,-647.50,-262.50,1,94.189,
01/01/2000,01:15:37.33,20.86,-59.17,-992.10,122.50,-735.0,-341.25,1,94.203,
01/01/2000,01:15:37.34,20.74,-59.29,-992.10,140.0,-656.25,-341.25,1,94.217,
01/01/2000,01:15:37.35,20.74,-59.29,-992.35,166.25,-612.50,-446.25,1,94.231,
01/01/2000,01:15:37.36,20.86,-59.17,-992.35,43.75,-682.50,-367.50,1,94.245,
01/01/2000,01:15:37.37,20.74,-59.05,-992.23,122.50,-586.25,-297.50,1,94.258,
01/01/2000,01:15:37.38,20.86,-59.17,-992.10,148.75,-595.0,-332.50,1,94.272,
01/01/2000,01:15:37.39,20.86,-59.05,-992.10,157.50,-682.50,-323.75,1,94.286,
01/01/2000,01:15:37.40,20.98,-59.17,-992.35,166.25,-682.50,-411.25,1,94.299,
01/01/2000,01:15:37.41,20.98,-59.17,-992.35,166.25,-691.25,-288.75,1,94.313,
01/01/2000,01:15:37.42,20.98,-59.05,-992.23,218.75,-691.25,-367.50,1,94.326,
01/01/2000,01:15:37.44,20.98,-59.17,-992.23,218.75,-682.50,-376.25,1,94.340,
01/01/2000,01:15:37.45,20.98,-59.17,-992.10,218.75,-717.50,-323.75,1,94.353,
01/01/2000,01:15:37.46,21.11,-59.17,-992.10,140.0,-708.75,-236.25,1,94.366,
01/01/2000,01:15:37.47,20.98,-59.29,-992.10,166.25,-612.50,-315.0,1,94.379,
01/01/2000,01:15:37.48,20.98,-59.29,-992.23,236.25,-612.50,-367.50,1,94.393,
01/01/2000,01:15:37.49,20.86,-59.17,-992.35,332.50,-647.50,-385.0,1,94.406,
01/01/2000,01:15:37.50,20.98,-59.05,-992.47,140.0,-673.75,-306.25,1,94.419,
01/01/2000,01:15:37.51,20.86,-59.17,-992.47,236.25,-752.50,-350.0,1,94.432,
01/01/2000,01:15:37.52,20.86,-59.05,-992.47,201.25,-700.0,-376.25,1,94.444,
01/01/2000,01:15:37.53,20.74,-59.17,-992.47,122.50,-691.25,-437.50,1,94.457,
01/01/2000,01:15:37.54,20.98,-59.17,-992.47,148.75,-717.50,-288.75,1,94.470,
01/01/2000,01:15:37.55,20.98,-59.17,-992.47,175.0,-752.50,-367.50,1,94.483,
01/01/2000,01:15:37.56,20.98,-59.05,-992.47,192.50,-717.50,-192.50,1,94.495,
01/01/2000,01:15:37.57,20.98,-59.05,-992.35,105.0,-498.75,-280.0,1,94.292,
01/01/2000,01:15:37.58,20.98,-59.05,-992.23,-43.75,-656.25,-376.25,1,94.305,
01/01/2000,01:15:37.59,20.98,-59.05,-992.23,148.75,-673.75,-315.0,1,94.318,
01/01/2000,01:15:37.60,21.23,-59.17,-992.23,262.50,-700.0,-332.50,1,94.331,
01/01/2000,01:15:37.61,21.23,-59.17,-992.10,210.0,-787.50,-341.25,1,94.344,
01/01/2000,01:15:37.62,21.11,-59.05,-992.10,105.0,-822.50,-393.75,1,94.357,
01/01/2000,01:15:37.63,21.23,-59.05,-992.23,61.25,-647.50,-306.25,1,94.369,
01/01/2000,01:15:37.65,21.23,-59.17,-992.35,43.75,-691.25,-253.75,1,94.382,
01/01/2000,01:15:37.66,21.35,-59.05,-992.35,131.25,-708.75,-367.50,1,94.395,
01/01/2000,01:15:37.67,21.23,-59.17,-992.10,245.0,-647.50,-323.75,1,94.407,
01/01/2000,01:15:37.68,20.98,-59.05,-992.23,166.25,-691.25,-245.0,1,94.420,
01/01/2000,01:15:37.69,20.98,-59.05,-992.35,175.0,-621.25,-428.75,1,94.432,
01/01/2000,01:15:37.70,21.11,-59.05,-992.59,96.25,-761.25,-262.50,1,94.444,
01/01/2000,01:15:37.71,21.11,-59.05,-992.47,17.50,-621.25,-210.0,1,94.457,
01/01/2000,01:15:37.72,20.98,-59.29,-992.10,192.50,-682.50,-350.0,1,94.469,
01/01/2000,01:15:37.73,20.98,-59.17,-992.23,113.75,-630.0,-367.50,1,94.481,
01/01/2000,01:15:37.74,20.98,-59.17,-992.35,105.0,-708.75,-332.50,1,94.493,
01/01/2000,01:15:37.75,20.98,-59.17,-992.47,262.50,-595.0,-297.50,1,94.505,
01/01/2000,01:15:37.76,20.74,-58.80,-992.35,61.25,-673.75,-332.50,1,94.311,
01/01/2000,01:15:37.77,20.74,-59.05,-992.35,140.0,-621.25,-420.0,1,94.530,
01/01/2000,01:15:37.79,20.86,-58.80,-992.59,-17.50,-700.0,-367.50,1,94.336,
01/01/2000,01:15:37.80,21.23,-58.93,-992.35,236.25,-840.0,-245.0,1,94.348,
01/01/2000,01:15:37.81,20.98,-58.93,-992.47,122.50,-805.0,-350.0,1,94.156,
01/01/2000,01:15:37.82,20.98,-59.05,-992.35,183.75,-595.0,-472.50,1,94.168,
01/01/2000,01:15:37.83,20.86,-59.05,-992.59,280.0,-665.0,-306.25,1,94.181,
01/01/2000,01:15:37.84,20.86,-58.56,-992.71,8.75,-726.25,-297.50,1,94.194,
01/01/2000,01:15:37.85,21.23,-58.80,-992.47,131.25,-673.75,-341.25,1,94.206,
01/01/2000,01:15:37.87,21.11,-58.93,-992.35,61.25,-708.75,-341.25,1,94.218,
01/01/2000,01:15:37.88,20.98,-59.29,-992.35,262.50,-673.75,-402.50,1,94.231,
01/01/2000,01:15:37.89,20.98,-59.29,-992.35,262.50,-638.75,-393.75,1,94.243,
01/01/2000,01:15:37.90,20.74,-59.05,-992.35,166.25,-665.0,-323.75,1,94.255,
01/01/2000,01:15:37.91,20.98,-58.93,-992.35,122.50,-638.75,-358.75,1,94.268,
01/01/2000,01:15:37.92,20.98,-58.93,-992.10,175.0,-708.75,-245.0,1,94.280,
01/01/2000,01:15:37.93,20.98,-59.05,-992.23,87.50,-743.75,-385.0,1,94.292,
01/01/2000,01:15:37.94,21.23,-59.41,-992.35,350.0,-708.75,-411.25,1,94.304,
01/01/2000,01:15:37.95,21.23,-59.17,-992.59,52.50,-761.25,-323.75,1,94.316,
01/01/2000,01:15:37.96,21.23,-59.17,-992.47,175.0,-717.50,-315.0,1,94.328,
01/01/2000,01:15:37.97,21.23,-58.80,-992.35,157.50,-726.25,-411.25,1,94.340,
01/01/2000,01:15:37.98,20.98,-58.56,-992.23,35.0,-726.25,-288.75,1,94.351,
01/01/2000,01:15:37.99,20.98,-58.80,-992.35,96.25,-665.0,-341.25,1,94.363,
01/01/2000,01:15:38.00,20.74,-59.05,-992.59,175.0,-656.25,-341.25,1,94.375,
01/01/2000,01:15:38.01,20.74,-59.29,-992.84,96.25,-656.25,-315.0,1,94.387,
01/01/2000,01:15:38.02,20.86,-59.17,-992.59,192.50,-665.0,-367.50,1,94.398,
01/01/2000,01:15:38.03,20.74,-58.68,-992.35,245.0,-682.50,-315.0,1,94.410,
01/01/2000,01:15:38.04,20.74,-59.05,-992.10,245.0,-673.75,-341.25,1,94.421,
01/01/2000,01:15:38.05,20.62,-59.05,-992.10,166.25,-603.75,-332.50,1,94.433,
01/01/2000,01:15:38.06,20.62,-59.17,-992.35,175.0,-735.0,-367.50,1,94.444,
01/01/2000,01:15:38.07,20.98,-59.17,-992.35,210.0,-647.50,-367.50,1,94.262,
01/01/2000,01:15:38.08,20.86,-58.80,-992.23,78.75,-787.50,-306.25,1,94.274,
01/01/2000,01:15:38.09,20.86,-58.93,-991.98,192.50,-796.25,-288.75,1,94.286,
01/01/2000,01:15:38.10,20.98,-59.05,-992.10,245.0,-621.25,-420.0,1,94.297,
01/01/2000,01:15:38.11,20.98,-59.17,-992.35,148.75,-787.50,-376.25,1,94.309,
01/01/2000,01:15:38.12,20.98,-59.41,-992.47,227.50,-656.25,-463.75,1,94.320,
01/01/2000,01:15:38.14,20.74,-59.17,-992.35,175.0,-638.75,-297.50,1,94.332,
01/01/2000,01:15:38.15,20.74,-59.05,-992.10,87.50,-586.25,-288.75,1,94.343,
01/01/2000,01:15:38.16,20.86,-59.05,-992.23,192.50,-647.50,-227.50,1,94.355,
01/01/2000,01:15:38.17,20.86,-59.05,-992.59,-17.50,-770.0,-350.0,1,94.366,
01/01/2000,01:15:38.18,20.86,-59.17,-992.71,87.50,-717.50,-315.0,1,94.378,
01/01/2000,01:15:38.19,20.86,-59.17,-992.71,105.0,-586.25,-323.75,1,94.389,
01/01/2000,01:15:38.20,20.74,-58.93,-992.59,122.50,-761.25,-306.25,1,94.400,
01/01/2000,01:15:38.21,20.98,-58.80,-992.35,61.25,-796.25,-402.50,1,94.411,
01/01/2000,01:15:38.22,20.98,-59.05,-992.59,87.50,-682.50,-218.75,1,94.422,
01/01/2000,01:15:38.23,20.86,-59.29,-992.71,253.75,-560.0,-297.50,1,94.433,
01/01/2000,01:15:38.24,20.74,-59.29,-992.59,78.75,-673.75,-376.25,1,94.444,
01/01/2000,01:15:38.25,20.98,-59.29,-992.35,87.50,-630.0,-332.50,1,94.455,
01/01/2000,01:15:38.26,20.98,-59.17,-992.10,61.25,-682.50,-297.50,1,94.466,
01/01/2000,01:15:38.27,20.98,-59.29,-992.10,157.50,-752.50,-376.25,1,94.477,
01/01/2000,01:15:38.28,20.74,-59.17,-992.35,148.75,-796.25,-341.25,1,94.303,
01/01/2000,01:15:38.29,20.50,-59.17,-992.47,192.50,-665.0,-210.0,1,94.314,
01/01/2000,01:15:38.30,20.74,-58.93,-992.35,122.50,-665.0,-253.75,1,94.325,
01/01/2000,01:15:38.31,20.98,-58.80,-992.10,183.75,-761.25,-376.25,1,94.336,
01/01/2000,01:15:38.33,20.86,-58.80,-991.98,192.50,-621.25,-297.50,1,94.347,
01/01/2000,01:15:38.34,20.50,-59.29,-992.35,148.75,-638.75,-341.25,1,94.358,
01/01/2000,01:15:38.35,20.62,-59.05,-992.47,175.0,-726.25,-376.25,1,94.369,
01/01/2000,01:15:38.36,20.86,-58.68,-992.35,271.25,-665.0,-367.50,1,94.380,
01/01/2000,01:15:38.37,20.86,-58.56,-992.10,175.0,-770.0,-253.75,1,94.391,
01/01/2000,01:15:38.38,20.86,-58.80,-991.86,201.25,-752.50,-323.75,1,94.402,
01/01/2000,01:15:38.39,20.86,-59.05,-991.86,175.0,-656.25,-288.75,1,94.412,
01/01/2000,01:15:38.40,21.23,-59.17,-992.10,253.75,-700.0,-341.25,1,94.423,
01/01/2000,01:15:38.41,21.11,-59.17,-992.35,113.75,-673.75,-306.25,1,94.253,
01/01/2000,01:15:38.42,20.98,-58.80,-992.35,175.0,-673.75,-236.25,1,94.264,
01/01/2000,01:15:38.43,20.98,-58.56,-992.10,96.25,-691.25,-297.50,1,94.275,
01/01/2000,01:15:38.44,20.98,-58.80,-991.98,253.75,-726.25,-297.50,1,94.286,
01/01/2000,01:15:38.45,20.98,-59.05,-992.23,140.0,-752.50,-253.75,1,94.297,
01/01/2000,01:15:38.46,21.23,-59.29,-992.47,105.0,-726.25,-306.25,1,94.307,
01/01/2000,01:15:38.47,21.11,-59.29,-992.35,61.25,-708.75,-472.50,1,94.318,
01/01/2000,01:15:38.48,20.98,-58.93,-991.86,175.0,-673.75,-323.75,1,94.329,
01/01/2000,01:15:38.50,20.98,-58.80,-991.98,131.25,-647.50,-253.75,1,94.340,
01/01/2000,01:15:38.51,20.98,-59.05,-992.35,148.75,-612.50,-341.25,1,94.350,
01/01/2000,01:15:38.52,20.98,-59.05,-992.23,105.0,-761.25,-245.0,1,94.361,
01/01/2000,01:15:38.53,20.98,-59.17,-992.23,218.75,-743.75,-297.50,1,94.371,
01/01/2000,01:15:38.54,20.98,-59.05,-992.10,87.50,-778.75,-376.25,1,94.382,
01/01/2000,01:15:38.55,20.74,-58.93,-992.10,166.25,-682.50,-323.75,1,94.393,
01/01/2000,01:15:38.56,20.74,-58.93,-992.35,131.25,-805.0,-306.25,1,94.403,
01/01/2000,01:15:38.57,20.74,-58.93,-992.47,131.25,-665.0,-376.25,1,94.413,
01/01/2000,01:15:38.58,20.62,-59.05,-992.35,280.0,-621.25,-262.50,1,94.424,
01/01/2000,01:15:38.59,20.50,-59.05,-992.35,157.50,-525.0,-411.25,1,94.434,
01/01/2000,01:15:38.60,20.50,-59.05,-992.10,70.0,-726.25,-402.50,1,94.444,
01/01/2000,01:15:38.61,20.74,-59.05,-992.10,253.75,-761.25,-323.75,1,94.455,
01/01/2000,01:15:38.62,20.74,-59.05,-992.23,148.75,-700.0,-411.25,1,94.465,
01/01/2000,01:15:38.64,20.62,-59.29,-992.35,113.75,-673.75,-350.0,1,94.301,
01/01/2000,01:15:38.65,20.74,-59.29,-992.59,78.75,-621.25,-411.25,1,94.312,
01/01/2000,01:15:38.66,20.86,-59.17,-992.47,218.75,-717.50,-385.0,1,94.322,
01/01/2000,01:15:38.67,20.98,-59.05,-992.35,157.50,-752.50,-236.25,1,94.333,
01/01/2000,01:15:38.68,20.98,-59.17,-992.59,166.25,-577.50,-393.75,1,94.343,
01/01/2000,01:15:38.69,20.74,-59.29,-992.59,183.75,-682.50,-306.25,1,94.353,
01/01/2000,01:15:38.70,20.62,-59.17,-992.59,175.0,-612.50,-297.50,1,94.364,
01/01/2000,01:15:38.71,20.50,-59.17,-992.59,140.0,-726.25,-402.50,1,94.374,
01/01/2000,01:15:38.72,20.62,-59.05,-992.35,140.0,-761.25,-341.25,1,94.384,
01/01/2000,01:15:38.73,20.50,-59.29,-992.35,131.25,-743.75,-341.25,1,94.394,
01/01/2000,01:15:38.74,20.50,-59.29,-992.35,192.50,-761.25,-358.75,1,94.404,
01/01/2000,01:15:38.75,20.62,-59.29,-992.35,201.25,-621.25,-411.25,1,94.414,
01/01/2000,01:15:38.76,20.74,-59.05,-992.23,245.0,-647.50,-323.75,1,94.424,
01/01/2000,01:15:38.77,20.86,-58.80,-992.10,87.50,-813.75,-306.25,1,94.265,
01/01/2000,01:15:38.78,20.74,-58.80,-992.10,201.25,-682.50,-376.25,1,94.275,
01/01/2000,01:15:38.79,20.74,-58.80,-992.23,78.75,-630.0,-315.0,1,94.286,
01/01/2000,01:15:38.80,20.98,-58.80,-992.35,131.25,-787.50,-332.50,1,94.296,
01/01/2000,01:15:38.81,20.98,-58.80,-992.35,280.0,-708.75,-332.50,1,94.306,
01/01/2000,01:15:38.82,20.98,-58.68,-992.23,131.25,-595.0,-271.25,1,94.316,
01/01/2000,01:15:38.84,20.98,-58.93,-992.10,148.75,-682.50,-315.0,1,94.326,
01/01/2000,01:15:38.85,20.98,-58.80,-992.10,148.75,-656.25,-306.25,1,94.170,
01/01/2000,01:15:38.86,20.98,-58.93,-992.23,43.75,-665.0,-341.25,1,94.180,
01/01/2000,01:15:38.87,20.98,-58.68,-992.23,87.50,-638.75,-323.75,1,94.190,
01/01/2000,01:15:38.88,20.98,-58.68,-992.10,245.0,-665.0,-332.50,1,94.200,
01/01/2000,01:15:38.89,20.98,-58.56,-992.10,166.25,-647.50,-367.50,1,94.211,
01/01/2000,01:15:38.90,20.86,-58.68,-992.10,183.75,-612.50,-280.0,1,94.221,
01/01/2000,01:15:38.91,21.11,-58.68,-992.35,262.50,-761.25,-332.50,1,94.231,
01/01/2000,01:15:38.92,21.11,-58.56,-992.35,87.50,-787.50,-306.25,1,94.241,
01/01/2000,01:15:38.93,21.11,-58.56,-992.10,210.0,-752.50,-297.50,1,94.251,
01/01/2000,01:15:38.94,20.98,-58.80,-991.98,157.50,-551.25,-306.25,1,94.261,
01/01/2000,01:15:38.95,20.98,-58.56,-991.98,183.75,-673.75,-280.0,1,94.271,
01/01/2000,01:15:38.96,20.98,-58.68,-992.10,201.25,-717.50,-402.50,1,94.281,
01/01/2000,01:15:38.97,21.11,-58.56,-992.23,210.0,-682.50,-420.0,1,94.291,
01/01/2000,01:15:38.99,20.98,-58.68,-992.23,183.75,-787.50,-315.0,1,94.301,
01/01/2000,01:15:39.00,20.98,-58.80,-991.98,131.25,-691.25,-385.0,1,94.310,
01/01/2000,01:15:39.01,20.86,-58.56,-991.86,183.75,-647.50,-341.25,1,94.320,
01/01/2000,01:15:39.02,20.98,-58.68,-992.10,78.75,-621.25,-350.0,1,94.330,
01/01/2000,01:15:39.03,20.98,-58.93,-992.23,148.75,-621.25,-376.25,1,94.340,
01/01/2000,01:15:39.04,20.86,-59.05,-992.35,35.0,-665.0,-280.0,1,94.349,
01/01/2000,01:15:39.05,20.74,-59.05,-992.35,280.0,-665.0,-376.25,1,94.359,
01/01/2000,01:15:39.06,20.98,-58.80,-992.23,192.50,-630.0,-332.50,1,94.369,
01/01/2000,01:15:39.07,20.98,-58.93,-992.23,131.25,-708.75,-236.25,1,94.378,
01/01/2000,01:15:39.08,20.86,-58.93,-992.23,315.0,-647.50,-402.50,1,94.388,
01/01/2000,01:15:39.09,20.86,-58.80,-992.10,210.0,-735.0,-323.75,1,94.397,
01/01/2000,01:15:39.10,20.74,-58.93,-992.10,122.50,-673.75,-411.25,1,94.407,
01/01/2000,01:15:39.11,20.74,-58.80,-992.10,192.50,-638.75,-280.0,1,94.416,
01/01/2000,01:15:39.12,20.86,-58.80,-992.35,43.75,-831.25,-297.50,1,94.266,
01/01/2000,01:15:39.13,20.74,-58.93,-992.35,105.0,-612.50,-288.75,1,94.276,
01/01/2000,01:15:39.14,20.62,-58.80,-992.10,131.25,-630.0,-280.0,1,94.286,
01/01/2000,01:15:39.15,20.74,-59.05,-992.10,210.0,-647.50,-376.25,1,94.295,
01/01/2000,01:15:39.16,20.74,-59.17,-992.10,236.25,-743.75,-420.0,1,94.305,
01/01/2000,01:15:39.17,20.74,-58.80,-992.10,43.75,-673.75,-385.0,1,94.314,
01/01/2000,01:15:39.18,20.74,-58.80,-992.10,131.25,-708.75,-175.0,1,94.324,
01/01/2000,01:15:39.20,20.50,-58.80,-991.98,78.75,-708.75,-323.75,1,94.333,
01/01/2000,01:15:39.21,20.50,-59.05,-991.98,140.0,-647.50,-332.50,1,94.343,
01/01/2000,01:15:39.22,20.86,-59.17,-991.98,78.75,-726.25,-341.25,1,94.352,
01/01/2000,01:15:39.23,20.98,-59.29,-992.10,166.25,-743.75,-437.50,1,94.362,
01/01/2000,01:15:39.24,20.74,-59.29,-992.10,175.0,-673.75,-306.25,1,94.371,
01/01/2000,01:15:39.25,20.86,-59.05,-992.23,122.50,-717.50,-481.25,1,94.380,
01/01/2000,01:15:39.26,20.74,-59.05,-992.35,245.0,-752.50,-393.75,1,94.389,
01/01/2000,01:15:39.27,20.62,-59.17,-992.35,201.25,-647.50,-306.25,1,94.399,
01/01/2000,01:15:39.28,20.74,-59.05,-992.47,105.0,-665.0,-367.50,1,94.408,
01/01/2000,01:15:39.29,20.74,-59.17,-992.35,183.75,-647.50,-323.75,1,94.417,
01/01/2000,01:15:39.30,20.86,-59.17,-992.47,52.50,-726.25,-315.0,1,94.426,
01/01/2000,01:15:39.31,20.86,-59.17,-992.47,227.50,-726.25,-358.75,1,94.435,
01/01/2000,01:15:39.32,20.98,-59.05,-992.35,227.50,-761.25,-367.50,1,94.444,
01/01/2000,01:15:39.34,20.86,-59.05,-992.35,332.50,-682.50,-315.0,1,94.300,
01/01/2000,01:15:39.35,20.62,-59.05,-992.35,385.0,-586.25,-411.25,1,94.309,
01/01/2000,01:15:39.36,20.62,-59.05,-992.35,201.25,-752.50,-367.50,1,94.318,
01/01/2000,01:15:39.37,20.74,-59.05,-992.35,122.50,-717.50,-376.25,1,94.327,
01/01/2000,01:15:39.38,20.74,-59.17,-992.59,218.75,-647.50,-271.25,1,94.337,
01/01/2000,01:15:39.39,20.74,-58.93,-992.47,192.50,-673.75,-358.75,1,94.346,
01/01/2000,01:15:39.40,20.74,-59.05,-992.35,131.25,-638.75,-323.75,1,94.355,
01/01/2000,01:15:39.41,20.74,-59.05,-992.35,192.50,-743.75,-393.75,1,94.212,
01/01/2000,01:15:39.42,20.86,-59.05,-992.47,122.50,-743.75,-332.50,1,94.222,
01/01/2000,01:15:39.43,20.86,-58.93,-992.59,96.25,-533.75,-306.25,1,94.231,
01/01/2000,01:15:39.44,20.86,-58.93,-992.47,183.75,-796.25,-315.0,1,94.240,
01/01/2000,01:15:39.45,20.74,-58.80,-992.35,105.0,-621.25,-297.50,1,94.249,
01/01/2000,01:15:39.46,20.98,-59.05,-992.35,78.75,-630.0,-393.75,1,94.258,
01/01/2000,01:15:39.47,20.98,-59.05,-992.35,183.75,-717.50,-358.75,1,94.268,
01/01/2000,01:15:39.48,20.98,-59.05,-992.47,148.75,-586.25,-323.75,1,94.277,
01/01/2000,01:15:39.49,20.86,-59.17,-992.59,236.25,-735.0,-271.25,1,94.286,
01/01/2000,01:15:39.50,20.86,-59.05,-992.35,148.75,-743.75,-358.75,1,94.295,
01/01/2000,01:15:39.51,20.74,-59.05,-992.23,122.50,-717.50,-236.25,1,94.304,
01/01/2000,01:15:39.52,20.74,-59.05,-992.35,148.75,-682.50,-350.0,1,94.313,
01/01/2000,01:15:39.53,20.74,-59.17,-992.23,113.75,-735.0,-306.25,1,94.322,
01/01/2000,01:15:39.55,20.86,-59.29,-992.23,218.75,-708.75,-350.0,1,94.331,
01/01/2000,01:15:39.56,20.74,-59.29,-992.10,140.0,-673.75,-271.25,1,94.340,
01/01/2000,01:15:39.57,20.74,-59.29,-992.10,218.75,-647.50,-376.25,1,94.349,
01/01/2000,01:15:39.58,20.74,-59.05,-992.35,227.50,-700.0,-350.0,1,94.357,
01/01/2000,01:15:39.59,20.86,-59.05,-992.47,288.75,-743.75,-367.50,1,94.366,
01/01/2000,01:15:39.60,20.74,-59.17,-992.47,96.25,-796.25,-341.25,1,94.375,
01/01/2000,01:15:39.61,20.74,-59.29,-992.23,131.25,-647.50,-385.0,1,94.384,
01/01/2000,01:15:39.62,20.86,-59.17,-992.10,148.75,-682.50,-376.25,1,94.393,
01/01/2000,01:15:39.63,20.98,-59.05,-992.10,131.25,-638.75,-385.0,1,94.401,
01/01/2000,01:15:39.64,20.98,-59.05,-992.23,157.50,-813.75,-376.25,1,94.410,
01/01/2000,01:15:39.65,20.62,-59.17,-992.10,96.25,-735.0,-367.50,1,94.419,
01/01/2000,01:15:39.66,20.50,-59.29,-992.10,8.75,-831.25,-323.75,1,94.427,
01/01/2000,01:15:39.67,20.62,-59.05,-992.10,78.75,-673.75,-271.25,1,94.436,
01/01/2000,01:15:39.68,20.74,-58.93,-992.10,245.0,-735.0,-288.75,1,94.299,
01/01/2000,01:15:39.69,20.74,-59.05,-992.10,131.25,-621.25,-385.0,1,94.308,
01/01/2000,01:15:39.70,20.74,-59.05,-991.98,262.50,-770.0,-236.25,1,94.316,
01/01/2000,01:15:39.71,20.74,-59.05,-991.98,218.75,-691.25,-358.75,1,94.325,
01/01/2000,01:15:39.72,20.74,-59.05,-992.10,78.75,-735.0,-428.75,1,94.334,
01/01/2000,01:15:39.73,20.86,-58.93,-992.10,175.0,-708.75,-297.50,1,94.343,
01/01/2000,01:15:39.74,20.98,-59.05,-992.10,218.75,-612.50,-402.50,1,94.351,
01/01/2000,01:15:39.76,20.86,-59.29,-991.98,262.50,-656.25,-288.75,1,94.360,
01/01/2000,01:15:39.77,20.86,-59.41,-992.10,175.0,-595.0,-402.50,1,94.368,
01/01/2000,01:15:39.78,20.86,-59.17,-992.35,175.0,-770.0,-315.0,1,94.377,
01/01/2000,01:15:39.79,20.98,-59.05,-992.35,131.25,-612.50,-288.75,1,94.385,
01/01/2000,01:15:39.80,20.86,-58.93,-992.23,131.25,-656.25,-227.50,1,94.394,
01/01/2000,01:15:39.81,20.86,-59.05,-992.10,140.0,-612.50,-358.75,1,94.402,
01/01/2000,01:15:39.82,20.86,-59.29,-992.23,43.75,-665.0,-446.25,1,94.411,
01/01/2000,01:15:39.83,20.98,-59.17,-992.35,105.0,-691.25,-367.50,1,94.419,
01/01/2000,01:15:39.84,20.98,-59.05,-992.35,148.75,-673.75,-271.25,1,94.428,
01/01/2000,01:15:39.86,20.86,-59.05,-992.10,113.75,-752.50,-306.25,1,94.294,
01/01/2000,01:15:39.87,20.86,-59.05,-992.10,148.75,-761.25,-341.25,1,94.303,
01/01/2000,01:15:39.88,20.98,-59.05,-992.23,105.0,-691.25,-236.25,1,94.311,
01/01/2000,01:15:39.89,20.98,-59.17,-992.35,78.75,-726.25,-262.50,1,94.320,
01/01/2000,01:15:39.90,20.98,-59.29,-992.35,148.75,-708.75,-341.25,1,94.328,
01/01/2000,01:15:39.91,20.74,-59.29,-992.10,358.75,-735.0,-446.25,1,94.337,
01/01/2000,01:15:39.92,20.74,-59.17,-991.86,61.25,-647.50,-306.25,1,94.345,
01/01/2000,01:15:39.93,20.98,-59.17,-991.98,201.25,-630.0,-376.25,1,94.354,
01/01/2000,01:15:39.94,20.98,-58.93,-992.10,113.75,-638.75,-262.50,1,94.362,
01/01/2000,01:15:39.95,21.11,-59.29,-991.86,315.0,-673.75,-358.75,1,94.370,
01/01/2000,01:15:39.96,20.98,-59.29,-991.86,140.0,-726.25,-420.0,1,94.379,
01/01/2000,01:15:39.97,20.86,-59.29,-991.86,122.50,-595.0,-367.50,1,94.387,
01/01/2000,01:15:39.98,20.98,-59.05,-992.10,131.25,-726.25,-297.50,1,94.395,
01/01/2000,01:15:39.99,20.98,-58.80,-992.10,87.50,-612.50,-323.75,1,94.404,
01/01/2000,01:15:40.00,20.98,-58.93,-992.10,140.0,-595.0,-306.25,1,94.412,
01/01/2000,01:15:40.01,20.98,-59.05,-992.10,113.75,-708.75,-367.50,1,94.420,
01/01/2000,01:15:40.02,20.98,-59.17,-992.10,175.0,-673.75,-350.0,1,94.428,
01/01/2000,01:15:40.03,21.11,-59.05,-992.23,166.25,-647.50,-376.25,1,94.436,
01/01/2000,01:15:40.04,20.98,-58.93,-992.23,201.25,-743.75,-306.25,1,94.307,
01/01/2000,01:15:40.05,20.98,-59.17,-992.35,210.0,-752.50,-332.50,1,94.315,
01/01/2000,01:15:40.06,20.98,-59.05,-992.35,210.0,-682.50,-253.75,1,94.323,
01/01/2000,01:15:40.07,20.98,-59.05,-992.35,245.0,-726.25,-463.75,1,94.331,
01/01/2000,01:15:40.08,20.98,-59.05,-992.35,175.0,-656.25,-341.25,1,94.340,
01/01/2000,01:15:40.09,20.98,-59.05,-992.35,166.25,-638.75,-341.25,1,94.348,
01/01/2000,01:15:40.11,20.98,-59.05,-992.35,43.75,-612.50,-323.75,1,94.356,
01/01/2000,01:15:40.12,20.86,-58.93,-992.35,96.25,-770.0,-306.25,1,94.364,
01/01/2000,01:15:40.13,20.98,-58.93,-992.35,166.25,-717.50,-297.50,1,94.372,
01/01/2000,01:15:40.14,20.98,-58.93,-992.59,157.50,-638.75,-341.25,1,94.380,
01/01/2000,01:15:40.15,20.98,-59.05,-992.59,201.25,-691.25,-262.50,1,94.388,
01/01/2000,01:15:40.16,21.11,-59.17,-992.47,131.25,-586.25,-253.75,1,94.397,
01/01/2000,01:15:40.17,21.11,-59.29,-992.35,262.50,-743.75,-358.75,1,94.405,
01/01/2000,01:15:40.18,21.11,-59.17,-992.47,52.50,-665.0,-297.50,1,94.278,
01/01/2000,01:15:40.19,21.11,-59.05,-992.47,245.0,-621.25,-315.0,1,94.286,
01/01/2000,01:15:40.20,20.98,-58.93,-992.35,52.50,-726.25,-227.50,1,94.294,
01/01/2000,01:15:40.21,20.98,-59.05,-992.47,105.0,-665.0,-437.50,1,94.302,
01/01/2000,01:15:40.22,20.86,-59.05,-992.47,78.75,-787.50,-358.75,1,94.310,
01/01/2000,01:15:40.23,20.86,-58.93,-992.59,105.0,-770.0,-350.0,1,94.318,
01/01/2000,01:15:40.25,20.86,-59.05,-992.71,288.75,-700.0,-315.0,1,94.326,
01/01/2000,01:15:40.26,20.74,-58.93,-992.59,-8.75,-726.25,-332.50,1,94.334,
01/01/2000,01:15:40.27,20.74,-59.05,-992.47,183.75,-787.50,-350.0,1,94.342,
01/01/2000,01:15:40.28,20.74,-58.93,-992.35,61.25,-656.25,-262.50,1,94.350,
01/01/2000,01:15:40.29,20.74,-58.80,-992.35,52.50,-778.75,-236.25,1,94.358,
01/01/2000,01:15:40.30,20.98,-58.93,-992.47,131.25,-743.75,-315.0,1,94.366,
01/01/2000,01:15:40.31,20.98,-59.05,-992.47,70.0,-700.0,-350.0,1,94.374,
01/01/2000,01:15:40.32,20.86,-59.05,-992.10,0.0,-551.25,-358.75,1,94.382,
01/01/2000,01:15:40.33,20.74,-58.93,-992.35,183.75,-717.50,-341.25,1,94.390,
01/01/2000,01:15:40.34,20.86,-59.05,-992.35,148.75,-656.25,-323.75,1,94.398,
01/01/2000,01:15:40.35,20.86,-59.05,-992.35,166.25,-761.25,-332.50,1,94.406,
01/01/2000,01:15:40.36,20.62,-59.29,-992.35,140.0,-665.0,-350.0,1,94.282,
01/01/2000,01:15:40.38,20.86,-59.29,-992.35,96.25,-612.50,-402.50,1,94.290,
01/01/2000,01:15:40.39,20.98,-59.05,-992.23,131.25,-761.25,-332.50,1,94.298,
01/01/2000,01:15:40.40,20.98,-59.05,-992.35,175.0,-638.75,-367.50,1,94.306,
01/01/2000,01:15:40.41,20.86,-58.80,-992.47,96.25,-656.25,-245.0,1,94.313,
01/01/2000,01:15:40.42,20.98,-58.93,-992.47,166.25,-717.50,-306.25,1,94.321,
01/01/2000,01:15:40.43,20.86,-58.93,-992.47,122.50,-682.50,-332.50,1,94.329,
01/01/2000,01:15:40.44,20.86,-59.05,-992.59,148.75,-700.0,-323.75,1,94.337,
01/01/2000,01:15:40.45,20.86,-59.05,-992.59,87.50,-761.25,-315.0,1,94.345,
01/01/2000,01:15:40.46,20.74,-59.05,-992.59,166.25,-717.50,-420.0,1,94.353,
01/01/2000,01:15:40.47,20.74,-59.05,-992.59,175.0,-770.0,-323.75,1,94.360,
01/01/2000,01:15:40.48,20.86,-58.93,-992.59,96.25,-682.50,-350.0,1,94.368,
01/01/2000,01:15:40.49,20.74,-58.93,-992.59,227.50,-761.25,-245.0,1,94.376,
01/01/2000,01:15:40.50,20.98,-58.93,-992.47,78.75,-691.25,-341.25,1,94.384,
01/01/2000,01:15:40.51,20.86,-59.29,-992.35,297.50,-787.50,-332.50,1,94.391,
01/01/2000,01:15:40.52,20.98,-58.93,-992.35,113.75,-717.50,-245.0,1,94.399,
01/01/2000,01:15:40.53,20.98,-59.29,-992.59,175.0,-656.25,-323.75,1,94.407,
01/01/2000,01:15:40.54,20.98,-59.05,-992.71,122.50,-700.0,-323.75,1,94.414,
01/01/2000,01:15:40.55,20.98,-59.05,-992.59,113.75,-770.0,-428.75,1,94.422,
01/01/2000,01:15:40.56,20.98,-59.29,-992.47,96.25,-726.25,-358.75,1,94.429,
01/01/2000,01:15:40.57,20.98,-59.17,-992.47,61.25,-770.0,-350.0,1,94.437,
01/01/2000,01:15:40.58,21.11,-59.54,-992.59,280.0,-682.50,-490.0,1,94.444,
01/01/2000,01:15:40.59,20.98,-59.17,-992.59,140.0,-743.75,-437.50,1,94.452,
01/01/2000,01:15:40.60,20.98,-59.17,-992.47,253.75,-682.50,-350.0,1,94.332,
01/01/2000,01:15:40.61,20.98,-59.17,-992.35,271.25,-735.0,-323.75,1,94.340,
01/01/2000,01:15:40.62,20.86,-58.80,-992.47,131.25,-735.0,-376.25,1,94.347,
01/01/2000,01:15:40.63,20.98,-59.17,-992.35,253.75,-708.75,-297.50,1,94.355,
01/01/2000,01:15:40.64,20.98,-59.05,-992.35,87.50,-595.0,-341.25,1,94.362,
01/01/2000,01:15:40.65,20.74,-59.17,-992.23,218.75,-805.0,-446.25,1,94.370,
01/01/2000,01:15:40.67,20.98,-59.29,-992.35,166.25,-700.0,-280.0,1,94.378,
01/01/2000,01:15:40.68,20.86,-59.05,-992.35,52.50,-647.50,-271.25,1,94.385,
01/01/2000,01:15:40.69,21.11,-59.29,-992.59,183.75,-717.50,-297.50,1,94.393,
01/01/2000,01:15:40.70,21.11,-59.29,-992.59,78.75,-682.50,-323.75,1,94.400,
01/01/2000,01:15:40.71,20.98,-59.29,-992.59,43.75,-700.0,-297.50,1,94.407,
01/01/2000,01:15:40.72,20.98,-59.29,-992.35,131.25,-682.50,-498.75,1,94.415,
01/01/2000,01:15:40.73,20.98,-59.29,-992.59,148.75,-665.0,-420.0,1,94.422,
01/01/2000,01:15:40.74,20.98,-59.29,-992.84,96.25,-612.50,-306.25,1,94.305,
01/01/2000,01:15:40.75,20.86,-59.05,-992.84,166.25,-805.0,-245.0,1,94.312,
01/01/2000,01:15:40.76,20.74,-59.29,-992.84,140.0,-656.25,-420.0,1,94.320,
01/01/2000,01:15:40.77,20.86,-59.41,-992.84,236.25,-656.25,-315.0,1,94.327,
01/01/2000,01:15:40.78,20.98,-59.29,-992.84,227.50,-726.25,-227.50,1,94.335,
01/01/2000,01:15:40.79,20.86,-59.17,-992.84,70.0,-717.50,-288.75,1,94.342,
01/01/2000,01:15:40.80,20.86,-59.05,-992.71,236.25,-787.50,-341.25,1,94.350,
01/01/2000,01:15:40.82,20.62,-59.05,-992.71,105.0,-770.0,-350.0,1,94.357,
01/01/2000,01:15:40.83,20.74,-59.17,-992.71,262.50,-778.75,-332.50,1,94.364,
01/01/2000,01:15:40.84,20.74,-59.05,-992.84,43.75,-656.25,-358.75,1,94.372,
01/01/2000,01:15:40.85,20.98,-59.29,-992.59,210.0,-656.25,-332.50,1,94.379,
01/01/2000,01:15:40.86,20.86,-59.29,-992.59,227.50,-630.0,-288.75,1,94.386,
01/01/2000,01:15:40.87,21.11,-59.29,-992.35,78.75,-717.50,-402.50,1,94.394,
01/01/2000,01:15:40.88,20.98,-59.29,-992.47,87.50,-612.50,-323.75,1,94.278,
01/01/2000,01:15:40.89,20.98,-59.29,-992.59,210.0,-665.0,-350.0,1,94.286,
01/01/2000,01:15:40.90,20.86,-59.29,-992.59,210.0,-708.75,-332.50,1,94.293,
01/01/2000,01:15:40.91,20.98,-59.29,-992.59,140.0,-656.25,-306.25,1,94.301,
01/01/2000,01:15:40.92,20.86,-59.29,-992.47,-17.50,-761.25,-315.0,1,94.308,
01/01/2000,01:15:40.93,20.86,-59.29,-992.35,131.25,-691.25,-306.25,1,94.315,
01/01/2000,01:15:40.94,20.98,-59.29,-992.35,192.50,-726.25,-420.0,1,94.323,
01/01/2000,01:15:40.96,20.98,-59.29,-992.47,210.0,-778.75,-376.25,1,94.330,
01/01/2000,01:15:40.96,20.86,-59.05,-992.59,218.75,-717.50,-315.0,1,94.337,
01/01/2000,01:15:40.98,20.98,-59.29,-992.59,262.50,-656.25,-315.0,1,94.344,
01/01/2000,01:15:40.99,20.98,-59.17,-992.59,166.25,-568.75,-315.0,1,94.352,
01/01/2000,01:15:41.00,20.98,-59.29,-992.59,306.25,-630.0,-332.50,1,94.359,
01/01/2000,01:15:41.01,21.11,-59.41,-992.71,52.50,-726.25,-341.25,1,94.366,
01/01/2000,01:15:41.02,20.98,-59.54,-992.71,52.50,-656.25,-463.75,1,94.373,
01/01/2000,01:15:41.03,20.98,-59.41,-992.47,175.0,-726.25,-332.50,1,94.381,
01/01/2000,01:15:41.04,20.98,-59.29,-992.47,148.75,-735.0,-358.75,1,94.388,
01/01/2000,01:15:41.05,20.98,-59.29,-992.47,166.25,-708.75,-376.25,1,94.395,
01/01/2000,01:15:41.06,20.98,-59.29,-992.59,227.50,-778.75,-376.25,1,94.402,
01/01/2000,01:15:41.07,20.74,-59.54,-992.59,157.50,-770.0,-376.25,1,94.409,
01/01/2000,01:15:41.08,20.86,-59.66,-992.59,131.25,-647.50,-350.0,1,94.416,
01/01/2000,01:15:41.09,20.98,-59.29,-992.59,-8.75,-665.0,-227.50,1,94.304,
01/01/2000,01:15:41.10,20.86,-59.41,-992.47,218.75,-656.25,-385.0,1,94.311,
01/01/2000,01:15:41.11,20.86,-59.29,-992.35,175.0,-647.50,-253.75,1,94.318,
01/01/2000,01:15:41.12,20.86,-59.54,-992.35,271.25,-638.75,-323.75,1,94.325,
01/01/2000,01:15:41.13,20.74,-59.41,-992.47,113.75,-743.75,-350.0,1,94.332,
01/01/2000,01:15:41.14,20.74,-59.41,-992.47,297.50,-586.25,-376.25,1,94.340,
01/01/2000,01:15:41.15,20.74,-59.29,-992.47,236.25,-717.50,-358.75,1,94.347,
01/01/2000,01:15:41.17,20.86,-59.29,-992.47,175.0,-665.0,-332.50,1,94.354,
01/01/2000,01:15:41.18,20.86,-59.29,-992.35,192.50,-656.25,-358.75,1,94.361,
01/01/2000,01:15:41.19,20.86,-59.41,-992.35,210.0,-656.25,-341.25,1,94.368,
01/01/2000,01:15:41.20,20.86,-59.41,-992.47,166.25,-735.0,-455.0,1,94.375,
01/01/2000,01:15:41.21,20.86,-59.29,-992.47,105.0,-770.0,-350.0,1,94.382,
01/01/2000,01:15:41.22,20.86,-59.29,-992.47,175.0,-647.50,-315.0,1,94.389,
01/01/2000,01:15:41.23,20.86,-59.29,-992.59,218.75,-673.75,-297.50,1,94.396,
01/01/2000,01:15:41.24,20.86,-59.41,-992.59,210.0,-735.0,-358.75,1,94.403,
01/01/2000,01:15:41.25,20.98,-59.29,-992.59,140.0,-673.75,-280.0,1,94.410,
01/01/2000,01:15:41.26,20.98,-59.29,-992.47,245.0,-761.25,-393.75,1,94.417,
01/01/2000,01:15:41.27,20.98,-59.17,-992.35,52.50,-673.75,-280.0,1,94.424,
01/01/2000,01:15:41.28,20.98,-59.29,-992.35,227.50,-708.75,-376.25,1,94.431,
01/01/2000,01:15:41.29,20.86,-59.17,-992.47,271.25,-621.25,-358.75,1,94.438,
01/01/2000,01:15:41.31,20.98,-59.29,-992.59,262.50,-691.25,-367.50,1,94.328,
01/01/2000,01:15:41.32,20.98,-59.17,-992.59,26.25,-743.75,-350.0,1,94.335,
01/01/2000,01:15:41.33,20.98,-59.17,-992.71,253.75,-612.50,-288.75,1,94.342,
01/01/2000,01:15:41.34,20.86,-59.17,-992.59,245.0,-647.50,-323.75,1,94.349,
01/01/2000,01:15:41.35,20.74,-59.17,-992.59,175.0,-656.25,-315.0,1,94.356,
01/01/2000,01:15:41.36,20.74,-59.29,-992.47,113.75,-638.75,-350.0,1,94.363,
01/01/2000,01:15:41.37,20.74,-59.17,-992.47,201.25,-603.75,-402.50,1,94.370,
01/01/2000,01:15:41.38,20.74,-59.05,-992.59,192.50,-638.75,-306.25,1,94.261,
01/01/2000,01:15:41.39,20.86,-59.05,-992.59,227.50,-630.0,-358.75,1,94.268,
01/01/2000,01:15:41.40,20.98,-59.17,-992.59,157.50,-778.75,-411.25,1,94.275,
01/01/2000,01:15:41.41,20.98,-59.05,-992.59,140.0,-700.0,-315.0,1,94.282,
01/01/2000,01:15:41.42,20.98,-59.17,-992.71,-70.0,-700.0,-288.75,1,94.289,
01/01/2000,01:15:41.44,21.23,-59.05,-992.84,148.75,-630.0,-262.50,1,94.296,
01/01/2000,01:15:41.44,21.23,-59.05,-992.71,201.25,-761.25,-420.0,1,94.303,
01/01/2000,01:15:41.46,21.23,-58.93,-992.59,166.25,-621.25,-297.50,1,94.310,
01/01/2000,01:15:41.47,21.11,-59.05,-992.59,192.50,-682.50,-385.0,1,94.317,
01/01/2000,01:15:41.48,21.11,-59.05,-992.59,183.75,-752.50,-323.75,1,94.324,
01/01/2000,01:15:41.49,21.11,-58.93,-992.84,140.0,-638.75,-358.75,1,94.331,
01/01/2000,01:15:41.50,20.98,-59.05,-992.84,192.50,-708.75,-411.25,1,94.337,
01/01/2000,01:15:41.51,21.11,-59.05,-992.59,201.25,-638.75,-367.50,1,94.344,
01/01/2000,01:15:41.52,21.11,-59.05,-992.47,148.75,-726.25,-332.50,1,94.351,
01/01/2000,01:15:41.53,21.23,-59.17,-992.71,113.75,-665.0,-323.75,1,94.358,
01/01/2000,01:15:41.54,21.23,-59.05,-992.59,148.75,-665.0,-315.0,1,94.365,
01/01/2000,01:15:41.55,21.11,-59.17,-992.84,70.0,-647.50,-323.75,1,94.371,
01/01/2000,01:15:41.56,20.98,-58.80,-992.71,140.0,-621.25,-315.0,1,94.378,
01/01/2000,01:15:41.57,21.23,-58.80,-992.59,148.75,-726.25,-350.0,1,94.385,
01/01/2000,01:15:41.58,21.35,-58.80,-992.35,87.50,-770.0,-183.75,1,94.391,
01/01/2000,01:15:41.59,21.11,-59.05,-992.23,183.75,-647.50,-332.50,1,94.398,
01/01/2000,01:15:41.60,20.98,-59.17,-992.35,52.50,-726.25,-385.0,1,94.405,
01/01/2000,01:15:41.61,21.11,-59.05,-992.35,166.25,-682.50,-341.25,1,94.411,
01/01/2000,01:15:41.62,21.23,-58.93,-992.35,236.25,-673.75,-271.25,1,94.418,
01/01/2000,01:15:41.63,21.23,-58.93,-992.10,315.0,-630.0,-411.25,1,94.425,
01/01/2000,01:15:41.64,21.11,-59.05,-991.98,253.75,-700.0,-253.75,1,94.431,
01/01/2000,01:15:41.65,21.23,-59.29,-992.10,166.25,-647.50,-428.75,1,94.438,
01/01/2000,01:15:41.66,21.23,-59.17,-992.35,245.0,-621.25,-385.0,1,94.333,
01/01/2000,01:15:41.67,21.11,-59.05,-992.35,131.25,-656.25,-280.0,1,94.340,
01/01/2000,01:15:41.68,20.98,-58.93,-992.23,113.75,-647.50,-315.0,1,94.346,
01/01/2000,01:15:41.69,20.98,-59.05,-991.98,183.75,-743.75,-323.75,1,94.353,
01/01/2000,01:15:41.70,20.98,-59.29,-992.10,96.25,-726.25,-306.25,1,94.360,
01/01/2000,01:15:41.71,21.23,-59.29,-992.35,35.0,-691.25,-358.75,1,94.366,
01/01/2000,01:15:41.73,21.11,-59.41,-992.23,43.75,-752.50,-463.75,1,94.373,
01/01/2000,01:15:41.74,20.86,-59.29,-991.98,148.75,-656.25,-315.0,1,94.379,
01/01/2000,01:15:41.75,20.74,-59.17,-992.10,175.0,-708.75,-297.50,1,94.386,
01/01/2000,01:15:41.76,20.98,-59.05,-992.35,140.0,-787.50,-332.50,1,94.393,
01/01/2000,01:15:41.77,20.98,-59.05,-992.59,140.0,-717.50,-271.25,1,94.399,
01/01/2000,01:15:41.78,20.98,-59.05,-992.35,157.50,-647.50,-376.25,1,94.406,
01/01/2000,01:15:41.79,20.86,-59.17,-992.10,192.50,-673.75,-393.75,1,94.412,
01/01/2000,01:15:41.80,20.86,-59.29,-991.86,227.50,-735.0,-262.50,1,94.419,
01/01/2000,01:15:41.81,20.86,-59.17,-991.98,157.50,-726.25,-367.50,1,94.425,
01/01/2000,01:15:41.82,20.86,-59.05,-992.10,113.75,-700.0,-323.75,1,94.322,
01/01/2000,01:15:41.83,20.74,-59.17,-992.10,96.25,-691.25,-297.50,1,94.438,
01/01/2000,01:15:41.84,20.74,-59.05,-991.86,105.0,-656.25,-420.0,1,94.335,
01/01/2000,01:15:41.85,20.74,-59.17,-991.86,192.50,-656.25,-332.50,1,94.342,
01/01/2000,01:15:41.87,20.74,-59.05,-992.10,183.75,-726.25,-297.50,1,94.348,
01/01/2000,01:15:41.88,20.74,-59.05,-991.98,140.0,-647.50,-358.75,1,94.355,
01/01/2000,01:15:41.89,20.50,-59.05,-991.74,78.75,-743.75,-358.75,1,94.361,
01/01/2000,01:15:41.90,20.62,-59.05,-991.74,218.75,-682.50,-323.75,1,94.368,
01/01/2000,01:15:41.91,20.86,-59.05,-991.86,201.25,-638.75,-350.0,1,94.374,
01/01/2000,01:15:41.92,20.98,-59.05,-991.86,87.50,-778.75,-280.0,1,94.381,
01/01/2000,01:15:41.93,20.98,-59.29,-991.86,148.75,-630.0,-367.50,1,94.387,
01/01/2000,01:15:41.94,20.98,-59.17,-991.86,70.0,-603.75,-490.0,1,94.286,
01/01/2000,01:15:41.95,20.98,-59.29,-992.10,183.75,-717.50,-420.0,1,94.292,
01/01/2000,01:15:41.96,21.11,-59.05,-992.23,70.0,-743.75,-236.25,1,94.299,
01/01/2000,01:15:41.97,21.11,-59.05,-992.35,157.50,-647.50,-236.25,1,94.305,
01/01/2000,01:15:41.98,20.98,-59.05,-992.23,113.75,-682.50,-192.50,1,94.312,
01/01/2000,01:15:41.99,20.98,-59.17,-992.23,175.0,-691.25,-437.50,1,94.318,
01/01/2000,01:15:42.00,20.98,-59.17,-992.35,166.25,-717.50,-376.25,1,94.325,
01/01/2000,01:15:42.01,20.98,-59.17,-992.35,218.75,-787.50,-350.0,1,94.331,
01/01/2000,01:15:42.02,20.86,-59.05,-992.23,78.75,-656.25,-385.0,1,94.337,
01/01/2000,01:15:42.03,20.86,-58.93,-992.35,113.75,-778.75,-253.75,1,94.344,
01/01/2000,01:15:42.04,20.98,-59.05,-992.35,26.25,-673.75,-376.25,1,94.350,
01/01/2000,01:15:42.05,20.98,-59.05,-992.35,148.75,-735.0,-332.50,1,94.357,
01/01/2000,01:15:42.06,20.98,-59.05,-992.47,175.0,-630.0,-297.50,1,94.363,
01/01/2000,01:15:42.08,20.98,-59.05,-992.23,245.0,-761.25,-393.75,1,94.369,
01/01/2000,01:15:42.09,20.98,-59.05,-992.23,0.0,-665.0,-341.25,1,94.376,
01/01/2000,01:15:42.10,20.98,-59.17,-992.35,131.25,-761.25,-315.0,1,94.382,
01/01/2000,01:15:42.11,20.98,-59.05,-992.35,148.75,-682.50,-332.50,1,94.388,
01/01/2000,01:15:42.12,20.98,-59.17,-992.35,253.75,-630.0,-472.50,1,94.395,
01/01/2000,01:15:42.13,20.86,-59.17,-992.35,192.50,-700.0,-323.75,1,94.401,
01/01/2000,01:15:42.14,20.74,-59.17,-992.23,201.25,-726.25,-288.75,1,94.407,
01/01/2000,01:15:42.15,20.86,-58.93,-992.35,148.75,-726.25,-350.0,1,94.308,
01/01/2000,01:15:42.16,20.86,-58.80,-992.35,253.75,-638.75,-323.75,1,94.314,
01/01/2000,01:15:42.17,20.74,-58.80,-992.35,218.75,-630.0,-367.50,1,94.321,
01/01/2000,01:15:42.18,20.86,-58.80,-992.35,201.25,-700.0,-271.25,1,94.327,
01/01/2000,01:15:42.19,20.98,-58.80,-992.23,227.50,-831.25,-393.75,1,94.333,
01/01/2000,01:15:42.20,21.11,-58.80,-992.23,201.25,-691.25,-332.50,1,94.340,
01/01/2000,01:15:42.21,20.98,-58.80,-992.23,201.25,-761.25,-271.25,1,94.346,
01/01/2000,01:15:42.23,20.98,-58.93,-992.35,140.0,-612.50,-280.0,1,94.352,
01/01/2000,01:15:42.24,20.98,-59.05,-992.35,148.75,-708.75,-288.75,1,94.358,
01/01/2000,01:15:42.25,20.98,-58.93,-992.35,253.75,-700.0,-420.0,1,94.365,
01/01/2000,01:15:42.26,20.98,-59.05,-991.98,218.75,-717.50,-350.0,1,94.371,
01/01/2000,01:15:42.27,20.98,-58.80,-991.98,113.75,-656.25,-367.50,1,94.377,
01/01/2000,01:15:42.28,20.98,-58.93,-991.98,183.75,-621.25,-393.75,1,94.383,
01/01/2000,01:15:42.29,20.98,-58.93,-992.10,201.25,-743.75,-306.25,1,94.389,
01/01/2000,01:15:42.30,20.98,-59.05,-992.10,201.25,-656.25,-402.50,1,94.396,
01/01/2000,01:15:42.31,20.98,-59.05,-992.35,183.75,-700.0,-455.0,1,94.402,
01/01/2000,01:15:42.32,20.98,-59.17,-992.23,183.75,-743.75,-341.25,1,94.408,
01/01/2000,01:15:42.33,20.98,-59.29,-992.23,96.25,-682.50,-297.50,1,94.414,
01/01/2000,01:15:42.34,20.98,-59.29,-992.23,96.25,-743.75,-288.75,1,94.420,
01/01/2000,01:15:42.35,20.98,-59.17,-992.35,157.50,-708.75,-306.25,1,94.426,
01/01/2000,01:15:42.36,20.98,-59.17,-992.59,166.25,-700.0,-297.50,1,94.329,
01/01/2000,01:15:42.37,20.98,-59.17,-992.59,157.50,-638.75,-367.50,1,94.336,
01/01/2000,01:15:42.39,20.86,-59.05,-992.59,113.75,-752.50,-315.0,1,94.342,
01/01/2000,01:15:42.40,20.74,-59.05,-992.23,105.0,-761.25,-332.50,1,94.245,
01/01/2000,01:15:42.41,20.74,-59.05,-992.35,166.25,-848.75,-350.0,1,94.252,
01/01/2000,01:15:42.42,20.86,-58.93,-992.23,131.25,-673.75,-350.0,1,94.258,
01/01/2000,01:15:42.43,20.86,-58.80,-992.35,157.50,-673.75,-288.75,1,94.264,
01/01/2000,01:15:42.44,20.74,-58.80,-992.35,131.25,-647.50,-376.25,1,94.270,
01/01/2000,01:15:42.46,20.74,-58.80,-992.35,183.75,-752.50,-332.50,1,94.276,
01/01/2000,01:15:42.46,20.74,-58.80,-992.47,236.25,-700.0,-262.50,1,94.283,
01/01/2000,01:15:42.48,20.74,-58.80,-992.35,122.50,-726.25,-271.25,1,94.289,
01/01/2000,01:15:42.48,20.62,-58.80,-992.47,236.25,-691.25,-315.0,1,94.295,
01/01/2000,01:15:42.50,20.50,-58.80,-992.35,43.75,-691.25,-306.25,1,94.301,
01/01/2000,01:15:42.51,20.74,-58.80,-992.35,157.50,-656.25,-253.75,1,94.307,
01/01/2000,01:15:42.52,20.86,-58.80,-992.47,131.25,-665.0,-315.0,1,94.313,
01/01/2000,01:15:42.53,20.74,-58.68,-992.59,43.75,-682.50,-323.75,1,94.319,
01/01/2000,01:15:42.54,20.74,-58.68,-992.47,262.50,-700.0,-297.50,1,94.325,
01/01/2000,01:15:42.55,20.74,-58.80,-992.35,236.25,-691.25,-341.25,1,94.332,
01/01/2000,01:15:42.56,20.98,-59.05,-992.35,332.50,-595.0,-297.50,1,94.338,
01/01/2000,01:15:42.57,20.98,-58.93,-992.35,227.50,-691.25,-376.25,1,94.344,
01/01/2000,01:15:42.58,21.11,-58.93,-992.35,262.50,-743.75,-437.50,1,94.350,
01/01/2000,01:15:42.59,20.98,-58.80,-992.23,210.0,-656.25,-393.75,1,94.356,
01/01/2000,01:15:42.60,20.98,-58.93,-992.10,166.25,-726.25,-367.50,1,94.362,
01/01/2000,01:15:42.61,20.98,-58.80,-992.23,236.25,-761.25,-350.0,1,94.368,
01/01/2000,01:15:42.62,20.98,-58.68,-992.35,113.75,-682.50,-341.25,1,94.374,
01/01/2000,01:15:42.63,20.98,-58.68,-992.23,105.0,-700.0,-227.50,1,94.380,
01/01/2000,01:15:42.64,20.98,-58.93,-992.23,175.0,-735.0,-367.50,1,94.286,
01/01/2000,01:15:42.65,20.86,-58.93,-992.35,78.75,-700.0,-306.25,1,94.292,
01/01/2000,01:15:42.66,20.98,-58.93,-992.47,175.0,-691.25,-376.25,1,94.298,
01/01/2000,01:15:42.67,21.23,-58.80,-992.35,70.0,-595.0,-288.75,1,94.304,
01/01/2000,01:15:42.68,21.11,-59.05,-992.23,175.0,-700.0,-280.0,1,94.310,
01/01/2000,01:15:42.69,20.98,-59.29,-992.23,227.50,-630.0,-341.25,1,94.316,
01/01/2000,01:15:42.70,20.86,-59.41,-992.23,245.0,-726.25,-332.50,1,94.322,
01/01/2000,01:15:42.72,20.86,-59.29,-992.23,122.50,-665.0,-376.25,1,94.328,
01/01/2000,01:15:42.73,20.86,-59.17,-992.10,140.0,-682.50,-323.75,1,94.334,
01/01/2000,01:15:42.74,20.74,-59.05,-992.10,140.0,-752.50,-358.75,1,94.340,
01/01/2000,01:15:42.75,20.74,-59.17,-992.10,210.0,-656.25,-411.25,1,94.346,
01/01/2000,01:15:42.76,20.86,-59.05,-992.35,245.0,-682.50,-341.25,1,94.351,
01/01/2000,01:15:42.77,20.86,-59.05,-992.35,192.50,-787.50,-402.50,1,94.357,
01/01/2000,01:15:42.78,20.98,-58.93,-992.35,140.0,-708.75,-341.25,1,94.363,
01/01/2000,01:15:42.79,20.74,-59.05,-992.35,52.50,-665.0,-350.0,1,94.369,
01/01/2000,01:15:42.80,20.74,-59.05,-992.23,148.75,-630.0,-350.0,1,94.375,
01/01/2000,01:15:42.81,20.98,-59.17,-992.35,157.50,-656.25,-350.0,1,94.381,
01/01/2000,01:15:42.82,20.98,-59.05,-992.47,0.0,-700.0,-245.0,1,94.387,
01/01/2000,01:15:42.83,20.86,-59.29,-992.35,218.75,-752.50,-350.0,1,94.393,
01/01/2000,01:15:42.84,20.74,-59.29,-992.23,227.50,-638.75,-306.25,1,94.398,
01/01/2000,01:15:42.85,20.98,-59.29,-992.35,227.50,-533.75,-262.50,1,94.306,
01/01/2000,01:15:42.86,20.86,-59.17,-992.59,271.25,-691.25,-367.50,1,94.312,
01/01/2000,01:15:42.87,20.98,-59.17,-992.59,96.25,-708.75,-376.25,1,94.318,
01/01/2000,01:15:42.88,20.86,-59.17,-992.35,280.0,-735.0,-420.0,1,94.324,
01/01/2000,01:15:42.89,20.98,-59.29,-992.35,52.50,-621.25,-280.0,1,94.330,
01/01/2000,01:15:42.90,20.98,-59.29,-992.47,122.50,-673.75,-332.50,1,94.336,
01/01/2000,01:15:42.92,21.11,-59.17,-992.59,52.50,-691.25,-437.50,1,94.342,
01/01/2000,01:15:42.93,21.11,-59.29,-992.35,218.75,-638.75,-315.0,1,94.251,
01/01/2000,01:15:42.94,20.98,-59.17,-992.23,122.50,-822.50,-297.50,1,94.256,
01/01/2000,01:15:42.95,20.98,-59.29,-992.10,166.25,-805.0,-437.50,1,94.262,
01/01/2000,01:15:42.96,21.11,-59.17,-992.23,201.25,-577.50,-437.50,1,94.268,
01/01/2000,01:15:42.97,20.98,-59.29,-992.23,87.50,-682.50,-306.25,1,94.274,
01/01/2000,01:15:42.98,20.98,-59.41,-992.35,201.25,-691.25,-437.50,1,94.280,
01/01/2000,01:15:42.99,20.86,-59.29,-992.35,175.0,-630.0,-420.0,1,94.286,
01/01/2000,01:15:43.01,20.98,-59.17,-992.23,140.0,-805.0,-332.50,1,94.292,
01/01/2000,01:15:43.02,20.98,-58.93,-992.35,87.50,-717.50,-297.50,1,94.297,
01/01/2000,01:15:43.03,20.98,-58.93,-992.35,175.0,-752.50,-306.25,1,94.303,
01/01/2000,01:15:43.04,21.11,-58.93,-992.59,201.25,-647.50,-253.75,1,94.309,
01/01/2000,01:15:43.05,21.23,-58.93,-992.35,192.50,-708.75,-315.0,1,94.315,
01/01/2000,01:15:43.06,21.35,-59.05,-992.23,210.0,-770.0,-402.50,1,94.320,
01/01/2000,01:15:43.07,21.23,-58.80,-992.10,105.0,-638.75,-315.0,1,94.326,
01/01/2000,01:15:43.08,21.23,-58.80,-992.23,8.75,-665.0,-393.75,1,94.332,
01/01/2000,01:15:43.09,21.47,-58.93,-992.35,105.0,-787.50,-358.75,1,94.338,
01/01/2000,01:15:43.10,21.35,-58.80,-992.47,166.25,-647.50,-385.0,1,94.343,
01/01/2000,01:15:43.11,21.23,-58.93,-992.35,131.25,-805.0,-376.25,1,94.349,
01/01/2000,01:15:43.12,21.23,-58.80,-992.23,148.75,-682.50,-341.25,1,94.355,
01/01/2000,01:15:43.13,21.35,-58.80,-992.23,201.25,-682.50,-376.25,1,94.361,
01/01/2000,01:15:43.14,21.23,-58.80,-992.35,113.75,-752.50,-455.0,1,94.271,
01/01/2000,01:15:43.15,21.23,-58.80,-992.35,253.75,-568.75,-367.50,1,94.277,
01/01/2000,01:15:43.16,21.11,-58.80,-992.35,-52.50,-656.25,-393.75,1,94.283,
01/01/2000,01:15:43.17,21.23,-58.80,-992.35,218.75,-743.75,-332.50,1,94.289,
01/01/2000,01:15:43.18,21.11,-58.93,-992.35,192.50,-700.0,-420.0,1,94.294,
01/01/2000,01:15:43.19,21.11,-58.80,-992.47,288.75,-682.50,-350.0,1,94.300,
01/01/2000,01:15:43.20,20.98,-58.80,-992.59,43.75,-691.25,-332.50,1,94.306,
01/01/2000,01:15:43.22,21.23,-58.80,-992.35,210.0,-717.50,-350.0,1,94.311,
01/01/2000,01:15:43.23,21.11,-58.93,-992.10,262.50,-481.25,-385.0,1,94.317,
01/01/2000,01:15:43.24,21.11,-59.05,-992.23,280.0,-673.75,-358.75,1,94.323,
01/01/2000,01:15:43.25,21.11,-59.05,-992.10,122.50,-691.25,-393.75,1,94.328,
01/01/2000,01:15:43.26,21.11,-59.05,-992.10,166.25,-778.75,-463.75,1,94.334,
01/01/2000,01:15:43.27,21.11,-59.05,-992.23,236.25,-717.50,-437.50,1,94.340,
01/01/2000,01:15:43.28,20.98,-59.05,-992.35,148.75,-752.50,-297.50,1,94.345,
01/01/2000,01:15:43.29,20.74,-59.05,-992.10,341.25,-735.0,-385.0,1,94.351,
01/01/2000,01:15:43.30,20.74,-58.93,-992.10,131.25,-708.75,-315.0,1,94.356,
01/01/2000,01:15:43.31,20.86,-59.05,-992.35,87.50,-743.75,-358.75,1,94.362,
01/01/2000,01:15:43.32,20.98,-59.05,-992.47,131.25,-595.0,-253.75,1,94.368,
01/01/2000,01:15:43.33,20.86,-59.05,-992.47,157.50,-673.75,-393.75,1,94.373,
01/01/2000,01:15:43.34,20.86,-59.05,-992.47,96.25,-708.75,-280.0,1,94.379,
01/01/2000,01:15:43.36,20.98,-58.93,-992.59,157.50,-656.25,-315.0,1,94.291,
01/01/2000,01:15:43.37,21.23,-58.93,-992.59,78.75,-691.25,-358.75,1,94.297,
01/01/2000,01:15:43.38,21.23,-59.05,-992.47,262.50,-656.25,-323.75,1,94.303,
01/01/2000,01:15:43.39,21.11,-59.17,-992.35,131.25,-848.75,-297.50,1,94.308,
01/01/2000,01:15:43.40,20.98,-59.17,-992.35,140.0,-647.50,-341.25,1,94.314,
01/01/2000,01:15:43.41,21.23,-59.05,-992.47,105.0,-673.75,-385.0,1,94.319,
01/01/2000,01:15:43.42,21.23,-58.93,-992.35,227.50,-595.0,-297.50,1,94.233,
01/01/2000,01:15:43.43,21.11,-59.05,-992.23,218.75,-656.25,-402.50,1,94.238,
01/01/2000,01:15:43.44,20.98,-59.17,-992.35,105.0,-673.75,-385.0,1,94.244,
01/01/2000,01:15:43.46,20.98,-59.29,-992.23,148.75,-647.50,-253.75,1,94.250,
01/01/2000,01:15:43.46,21.11,-59.17,-992.10,210.0,-682.50,-358.75,1,94.255,
01/01/2000,01:15:43.48,20.98,-59.29,-992.10,192.50,-595.0,-358.75,1,94.261,
01/01/2000,01:15:43.49,20.86,-59.29,-991.86,105.0,-761.25,-315.0,1,94.266,
01/01/2000,01:15:43.50,20.98,-59.17,-991.98,157.50,-726.25,-367.50,1,94.272,
01/01/2000,01:15:43.51,20.98,-59.29,-992.23,105.0,-586.25,-323.75,1,94.277,
01/01/2000,01:15:43.52,21.11,-59.29,-992.35,70.0,-787.50,-332.50,1,94.283,
01/01/2000,01:15:43.53,20.98,-59.29,-991.98,131.25,-700.0,-455.0,1,94.288,
01/01/2000,01:15:43.54,20.98,-59.05,-991.86,175.0,-656.25,-306.25,1,94.294,
01/01/2000,01:15:43.55,20.98,-58.93,-991.86,271.25,-796.25,-341.25,1,94.300,
01/01/2000,01:15:43.56,21.11,-58.93,-992.10,105.0,-682.50,-385.0,1,94.305,
01/01/2000,01:15:43.57,21.11,-59.05,-992.35,17.50,-656.25,-332.50,1,94.311,
01/01/2000,01:15:43.58,20.98,-59.05,-992.10,17.50,-717.50,-306.25,1,94.316,
01/01/2000,01:15:43.59,20.74,-59.05,-992.10,175.0,-656.25,-323.75,1,94.321,
01/01/2000,01:15:43.60,20.86,-58.93,-992.10,157.50,-726.25,-341.25,1,94.327,
01/01/2000,01:15:43.61,20.86,-59.05,-992.23,192.50,-778.75,-253.75,1,94.332,
01/01/2000,01:15:43.62,20.98,-58.93,-992.23,113.75,-682.50,-280.0,1,94.338,
01/01/2000,01:15:43.63,20.98,-59.05,-992.23,140.0,-708.75,-332.50,1,94.343,
01/01/2000,01:15:43.64,20.86,-59.05,-992.23,192.50,-656.25,-323.75,1,94.258,
01/01/2000,01:15:43.65,20.86,-58.93,-992.23,148.75,-612.50,-315.0,1,94.354,
01/01/2000,01:15:43.66,21.11,-58.93,-992.35,253.75,-778.75,-367.50,1,94.269,
01/01/2000,01:15:43.67,20.98,-58.93,-992.35,297.50,-726.25,-323.75,1,94.275,
01/01/2000,01:15:43.68,20.86,-59.05,-992.35,210.0,-743.75,-358.75,1,94.280,
01/01/2000,01:15:43.69,20.98,-59.05,-992.35,201.25,-717.50,-358.75,1,94.286,
01/01/2000,01:15:43.71,20.98,-58.80,-992.35,210.0,-525.0,-245.0,1,94.291,
01/01/2000,01:15:43.72,21.11,-58.80,-992.23,140.0,-761.25,-402.50,1,94.297,
01/01/2000,01:15:43.73,21.11,-59.05,-992.10,183.75,-735.0,-446.25,1,94.302,
01/01/2000,01:15:43.74,21.11,-59.17,-992.10,262.50,-743.75,-411.25,1,94.307,
01/01/2000,01:15:43.75,20.98,-59.05,-992.35,131.25,-787.50,-376.25,1,94.313,
01/01/2000,01:15:43.76,21.11,-58.93,-992.35,192.50,-796.25,-402.50,1,94.318,
01/01/2000,01:15:43.77,21.23,-59.05,-992.23,17.50,-673.75,-315.0,1,94.324,
01/01/2000,01:15:43.78,21.11,-59.05,-992.10,218.75,-656.25,-411.25,1,94.329,
01/01/2000,01:15:43.79,21.11,-59.05,-992.23,166.25,-638.75,-288.75,1,94.334,
01/01/2000,01:15:43.80,21.23,-59.05,-992.23,262.50,-647.50,-358.75,1,94.340,
01/01/2000,01:15:43.81,21.35,-58.93,-992.23,183.75,-630.0,-245.0,1,94.345,
01/01/2000,01:15:43.82,21.23,-58.93,-992.10,157.50,-665.0,-332.50,1,94.350,
01/01/2000,01:15:43.83,21.11,-58.93,-991.86,210.0,-603.75,-341.25,1,94.356,
01/01/2000,01:15:43.84,20.86,-58.93,-991.98,227.50,-770.0,-323.75,1,94.272,
01/01/2000,01:15:43.85,20.98,-58.80,-992.23,192.50,-691.25,-315.0,1,94.278,
01/01/2000,01:15:43.86,20.98,-58.93,-992.23,245.0,-595.0,-297.50,1,94.283,
01/01/2000,01:15:43.87,20.98,-58.80,-992.10,140.0,-612.50,-323.75,1,94.288,
01/01/2000,01:15:43.88,20.86,-58.93,-991.98,192.50,-665.0,-411.25,1,94.294,
01/01/2000,01:15:43.89,20.98,-58.80,-992.10,140.0,-752.50,-271.25,1,94.299,
01/01/2000,01:15:43.90,21.23,-58.80,-992.35,253.75,-665.0,-376.25,1,94.304,
01/01/2000,01:15:43.92,21.23,-58.93,-992.35,157.50,-682.50,-297.50,1,94.310,
01/01/2000,01:15:43.93,20.98,-59.05,-991.98,183.75,-761.25,-358.75,1,94.227,
01/01/2000,01:15:43.94,20.98,-59.17,-991.86,148.75,-621.25,-306.25,1,94.233,
01/01/2000,01:15:43.95,21.11,-59.05,-991.98,122.50,-682.50,-367.50,1,94.238,
01/01/2000,01:15:43.96,20.98,-59.05,-992.23,183.75,-673.75,-323.75,1,94.243,
01/01/2000,01:15:43.97,20.98,-59.17,-992.35,157.50,-691.25,-332.50,1,94.249,
01/01/2000,01:15:43.98,20.86,-59.17,-992.35,192.50,-761.25,-350.0,1,94.254,
01/01/2000,01:15:43.99,20.74,-59.05,-992.10,306.25,-735.0,-297.50,1,94.259,
01/01/2000,01:15:44.00,20.74,-58.93,-991.98,271.25,-673.75,-437.50,1,94.265,
01/01/2000,01:15:44.01,20.98,-58.68,-992.10,122.50,-630.0,-280.0,1,94.270,
01/01/2000,01:15:44.02,20.98,-58.80,-991.98,157.50,-700.0,-306.25,1,94.275,
01/01/2000,01:15:44.04,20.98,-58.93,-991.86,122.50,-700.0,-236.25,1,94.280,
01/01/2000,01:15:44.04,20.98,-59.05,-991.86,262.50,-647.50,-376.25,1,94.286,
01/01/2000,01:15:44.06,20.98,-59.05,-991.86,113.75,-778.75,-210.0,1,94.291,
01/01/2000,01:15:44.07,21.23,-59.05,-991.86,122.50,-691.25,-428.75,1,94.296,
01/01/2000,01:15:44.08,21.11,-59.05,-991.86,-8.75,-805.0,-393.75,1,94.301,
01/01/2000,01:15:44.09,21.11,-59.05,-991.86,140.0,-638.75,-358.75,1,94.307,
01/01/2000,01:15:44.10,20.98,-59.17,-991.98,201.25,-796.25,-402.50,1,94.312,
01/01/2000,01:15:44.11,20.98,-59.17,-991.98,148.75,-630.0,-332.50,1,94.317,
01/01/2000,01:15:44.12,21.11,-58.93,-992.23,157.50,-656.25,-376.25,1,94.322,
01/01/2000,01:15:44.13,21.11,-58.80,-992.23,131.25,-612.50,-306.25,1,94.328,
01/01/2000,01:15:44.14,21.23,-58.93,-992.10,35.0,-752.50,-183.75,1,94.333,
01/01/2000,01:15:44.15,21.11,-59.05,-992.35,210.0,-682.50,-367.50,1,94.338,
01/01/2000,01:15:44.16,21.23,-59.17,-992.23,210.0,-726.25,-376.25,1,94.343,
01/01/2000,01:15:44.17,21.11,-59.29,-992.23,113.75,-691.25,-376.25,1,94.348,
01/01/2000,01:15:44.18,21.11,-59.05,-992.23,201.25,-656.25,-306.25,1,94.353,
01/01/2000,01:15:44.19,21.11,-59.05,-992.10,218.75,-691.25,-332.50,1,94.359,
01/01/2000,01:15:44.20,20.98,-59.05,-992.10,157.50,-665.0,-297.50,1,94.278,
01/01/2000,01:15:44.21,21.11,-59.05,-992.10,227.50,-787.50,-341.25,1,94.283,
01/01/2000,01:15:44.22,21.11,-59.05,-992.10,218.75,-673.75,-498.75,1,94.288,
01/01/2000,01:15:44.23,20.98,-58.93,-992.10,52.50,-735.0,-402.50,1,94.293,
01/01/2000,01:15:44.24,20.86,-58.80,-992.10,-43.75,-761.25,-323.75,1,94.299,
01/01/2000,01:15:44.25,20.86,-58.68,-991.98,148.75,-638.75,-306.25,1,94.304,
01/01/2000,01:15:44.27,20.86,-58.80,-992.10,218.75,-857.50,-280.0,1,94.309,
01/01/2000,01:15:44.28,20.86,-58.93,-992.23,271.25,-743.75,-262.50,1,94.314,
01/01/2000,01:15:44.29,20.74,-59.05,-992.10,105.0,-638.75,-350.0,1,94.319,
01/01/2000,01:15:44.30,20.86,-59.05,-991.98,140.0,-612.50,-315.0,1,94.324,
01/01/2000,01:15:44.31,20.98,-59.05,-991.86,192.50,-595.0,-437.50,1,94.329,
01/01/2000,01:15:44.32,20.86,-58.93,-991.98,148.75,-656.25,-315.0,1,94.335,
01/01/2000,01:15:44.33,20.86,-58.93,-992.23,218.75,-717.50,-271.25,1,94.340,
01/01/2000,01:15:44.34,20.98,-59.05,-992.10,148.75,-656.25,-402.50,1,94.345,
01/01/2000,01:15:44.35,20.86,-59.17,-991.74,245.0,-691.25,-402.50,1,94.350,
01/01/2000,01:15:44.36,20.62,-59.17,-991.86,183.75,-787.50,-428.75,1,94.355,
01/01/2000,01:15:44.37,20.74,-58.93,-991.86,61.25,-805.0,-315.0,1,94.360,
01/01/2000,01:15:44.38,20.98,-59.05,-991.98,148.75,-778.75,-306.25,1,94.365,
01/01/2000,01:15:44.39,20.86,-59.05,-992.35,148.75,-796.25,-376.25,1,94.370,
01/01/2000,01:15:44.40,20.86,-59.05,-992.23,175.0,-691.25,-271.25,1,94.291,
01/01/2000,01:15:44.41,20.86,-59.05,-991.98,70.0,-691.25,-385.0,1,94.296,
01/01/2000,01:15:44.42,20.98,-58.93,-992.10,-35.0,-735.0,-332.50,1,94.301,
01/01/2000,01:15:44.43,21.11,-58.93,-992.10,201.25,-717.50,-350.0,1,94.306,
01/01/2000,01:15:44.45,21.11,-59.05,-992.23,210.0,-638.75,-332.50,1,94.311,
01/01/2000,01:15:44.46,21.11,-59.05,-992.35,183.75,-682.50,-323.75,1,94.316,
01/01/2000,01:15:44.47,21.11,-59.17,-992.35,175.0,-822.50,-341.25,1,94.321,
01/01/2000,01:15:44.48,21.23,-59.05,-992.35,131.25,-621.25,-253.75,1,94.326,
01/01/2000,01:15:44.49,21.23,-59.05,-992.23,236.25,-691.25,-288.75,1,94.331,
01/01/2000,01:15:44.50,21.23,-59.05,-992.35,61.25,-673.75,-262.50,1,94.336,
01/01/2000,01:15:44.51,20.98,-59.29,-992.47,227.50,-586.25,-332.50,1,94.341,
01/01/2000,01:15:44.52,20.98,-59.29,-992.47,271.25,-673.75,-411.25,1,94.346,
01/01/2000,01:15:44.53,21.11,-59.17,-992.47,236.25,-787.50,-271.25,1,94.351,
01/01/2000,01:15:44.54,21.11,-58.93,-992.35,332.50,-586.25,-341.25,1,94.356,
01/01/2000,01:15:44.55,20.98,-59.05,-992.10,105.0,-656.25,-323.75,1,94.278,
01/01/2000,01:15:44.56,20.86,-59.29,-992.10,201.25,-735.0,-288.75,1,94.283,
01/01/2000,01:15:44.57,20.98,-59.05,-992.10,227.50,-638.75,-323.75,1,94.288,
01/01/2000,01:15:44.58,21.11,-58.93,-992.23,113.75,-857.50,-323.75,1,94.293,
01/01/2000,01:15:44.59,20.98,-58.93,-992.35,192.50,-647.50,-210.0,1,94.298,
01/01/2000,01:15:44.60,20.98,-58.93,-992.23,192.50,-822.50,-280.0,1,94.303,
01/01/2000,01:15:44.62,20.98,-59.05,-992.10,166.25,-691.25,-236.25,1,94.308,
01/01/2000,01:15:44.63,20.98,-59.17,-992.10,122.50,-595.0,-332.50,1,94.313,
01/01/2000,01:15:44.64,20.74,-59.41,-992.35,183.75,-691.25,-428.75,1,94.318,
01/01/2000,01:15:44.65,20.86,-59.05,-992.23,262.50,-638.75,-288.75,1,94.323,
01/01/2000,01:15:44.66,20.86,-58.93,-992.23,148.75,-656.25,-402.50,1,94.328,
01/01/2000,01:15:44.67,20.86,-58.80,-992.23,113.75,-813.75,-262.50,1,94.333,
01/01/2000,01:15:44.68,20.86,-58.80,-992.23,122.50,-735.0,-420.0,1,94.338,
01/01/2000,01:15:44.69,20.86,-59.05,-992.23,227.50,-848.75,-306.25,1,94.343,
01/01/2000,01:15:44.70,20.74,-59.17,-992.10,192.50,-682.50,-411.25,1,94.348,
01/01/2000,01:15:44.71,20.86,-59.05,-992.10,113.75,-700.0,-332.50,1,94.353,
01/01/2000,01:15:44.72,20.86,-58.93,-992.23,201.25,-656.25,-385.0,1,94.358,
01/01/2000,01:15:44.73,20.98,-58.93,-992.35,105.0,-717.50,-280.0,1,94.363,
01/01/2000,01:15:44.74,20.86,-59.05,-992.23,87.50,-691.25,-341.25,1,94.367,
01/01/2000,01:15:44.75,20.74,-59.29,-992.10,183.75,-586.25,-288.75,1,94.372,
01/01/2000,01:15:44.77,20.86,-59.17,-991.98,140.0,-673.75,-315.0,1,94.296,
01/01/2000,01:15:44.78,20.98,-59.05,-991.98,113.75,-735.0,-323.75,1,94.301,
01/01/2000,01:15:44.79,20.98,-59.17,-991.86,113.75,-665.0,-271.25,1,94.305,
01/01/2000,01:15:44.80,20.86,-59.05,-991.98,236.25,-717.50,-323.75,1,94.310,
01/01/2000,01:15:44.81,20.98,-59.17,-992.35,192.50,-673.75,-350.0,1,94.315,
01/01/2000,01:15:44.82,21.23,-59.29,-992.35,113.75,-700.0,-306.25,1,94.320,
01/01/2000,01:15:44.83,21.23,-59.17,-992.23,192.50,-673.75,-315.0,1,94.325,
01/01/2000,01:15:44.84,21.11,-59.17,-992.10,157.50,-656.25,-367.50,1,94.330,
01/01/2000,01:15:44.85,21.11,-59.17,-992.23,52.50,-673.75,-367.50,1,94.335,
01/01/2000,01:15:44.86,21.11,-59.17,-992.23,280.0,-770.0,-385.0,1,94.340,
01/01/2000,01:15:44.87,20.86,-59.17,-992.35,140.0,-595.0,-411.25,1,94.344,
01/01/2000,01:15:44.88,20.86,-59.17,-992.35,210.0,-586.25,-420.0,1,94.349,
01/01/2000,01:15:44.89,20.98,-59.17,-992.35,297.50,-682.50,-350.0,1,94.354,
01/01/2000,01:15:44.90,20.98,-59.29,-992.47,253.75,-673.75,-332.50,1,94.278,
01/01/2000,01:15:44.91,20.98,-59.41,-992.59,157.50,-691.25,-411.25,1,94.283,
01/01/2000,01:15:44.92,20.98,-59.41,-992.59,227.50,-638.75,-341.25,1,94.288,
01/01/2000,01:15:44.93,20.98,-59.41,-992.59,131.25,-612.50,-350.0,1,94.293,
01/01/2000,01:15:44.94,21.11,-59.29,-992.47,201.25,-796.25,-367.50,1,94.298,
01/01/2000,01:15:44.96,20.86,-59.29,-992.10,210.0,-735.0,-236.25,1,94.303,
01/01/2000,01:15:44.97,20.74,-59.29,-992.10,105.0,-673.75,-393.75,1,94.308,
01/01/2000,01:15:44.98,20.86,-59.41,-992.47,175.0,-665.0,-350.0,1,94.312,
01/01/2000,01:15:44.99,20.98,-59.29,-992.59,70.0,-691.25,-306.25,1,94.317,
01/01/2000,01:15:45.00,20.86,-59.29,-992.47,192.50,-656.25,-402.50,1,94.322,
01/01/2000,01:15:45.01,20.98,-59.05,-992.23,-17.50,-595.0,-350.0,1,94.327,
01/01/2000,01:15:45.02,20.86,-59.29,-992.10,227.50,-665.0,-376.25,1,94.332,
01/01/2000,01:15:45.03,20.86,-59.29,-992.23,105.0,-586.25,-341.25,1,94.336,
01/01/2000,01:15:45.04,20.74,-59.54,-992.59,297.50,-665.0,-481.25,1,94.341,
01/01/2000,01:15:45.05,20.74,-59.29,-992.59,131.25,-778.75,-236.25,1,94.266,
01/01/2000,01:15:45.06,20.74,-59.05,-992.59,70.0,-717.50,-420.0,1,94.351,
01/01/2000,01:15:45.07,20.74,-59.05,-992.59,78.75,-665.0,-271.25,1,94.276,
01/01/2000,01:15:45.08,20.74,-59.29,-992.59,175.0,-647.50,-315.0,1,94.281,
01/01/2000,01:15:45.09,20.98,-59.29,-992.47,105.0,-647.50,-367.50,1,94.286,
01/01/2000,01:15:45.10,20.86,-59.41,-992.47,323.75,-787.50,-315.0,1,94.291,
01/01/2000,01:15:45.12,20.98,-59.29,-992.35,183.75,-735.0,-315.0,1,94.295,
01/01/2000,01:15:45.13,20.98,-59.29,-992.35,35.0,-691.25,-411.25,1,94.300,
01/01/2000,01:15:45.14,20.86,-59.17,-992.59,253.75,-665.0,-297.50,1,94.305,
01/01/2000,01:15:45.15,20.98,-59.29,-992.84,70.0,-682.50,-411.25,1,94.310,
01/01/2000,01:15:45.16,20.98,-59.41,-992.71,157.50,-708.75,-350.0,1,94.314,
01/01/2000,01:15:45.17,21.11,-59.54,-992.59,183.75,-673.75,-376.25,1,94.319,
01/01/2000,01:15:45.18,20.98,-59.41,-992.47,201.25,-743.75,-428.75,1,94.324,
01/01/2000,01:15:45.19,20.98,-59.29,-992.47,218.75,-682.50,-210.0,1,94.329,
01/01/2000,01:15:45.20,20.86,-59.41,-992.71,192.50,-726.25,-315.0,1,94.333,
01/01/2000,01:15:45.21,20.86,-59.54,-992.84,210.0,-682.50,-350.0,1,94.338,
01/01/2000,01:15:45.22,20.98,-59.66,-992.84,131.25,-717.50,-402.50,1,94.343,
01/01/2000,01:15:45.23,20.98,-59.54,-992.59,175.0,-700.0,-332.50,1,94.347,
01/01/2000,01:15:45.24,20.98,-59.54,-992.59,140.0,-656.25,-341.25,1,94.352,
01/01/2000,01:15:45.25,20.86,-59.41,-992.59,201.25,-656.25,-236.25,1,94.279,
01/01/2000,01:15:45.26,20.74,-59.29,-992.59,245.0,-621.25,-393.75,1,94.283,
01/01/2000,01:15:45.27,20.74,-59.29,-992.59,113.75,-708.75,-455.0,1,94.288,
01/01/2000,01:15:45.28,20.74,-59.29,-992.59,105.0,-656.25,-411.25,1,94.293,
01/01/2000,01:15:45.29,20.86,-59.29,-992.47,96.25,-665.0,-358.75,1,94.298,
01/01/2000,01:15:45.30,20.86,-59.41,-992.35,262.50,-717.50,-315.0,1,94.302,
01/01/2000,01:15:45.31,20.74,-59.54,-992.35,43.75,-743.75,-288.75,1,94.307,
01/01/2000,01:15:45.33,20.74,-59.29,-992.59,175.0,-726.25,-393.75,1,94.312,
01/01/2000,01:15:45.34,20.74,-59.29,-992.59,201.25,-673.75,-332.50,1,94.316,
01/01/2000,01:15:45.35,20.74,-59.05,-992.59,157.50,-682.50,-306.25,1,94.321,
01/01/2000,01:15:45.36,20.74,-59.17,-992.35,113.75,-726.25,-358.75,1,94.326,
01/01/2000,01:15:45.37,20.74,-59.29,-992.35,166.25,-743.75,-280.0,1,94.330,
01/01/2000,01:15:45.38,20.62,-59.29,-992.35,148.75,-752.50,-393.75,1,94.335,
01/01/2000,01:15:45.39,20.74,-59.17,-992.35,201.25,-682.50,-402.50,1,94.262,
01/01/2000,01:15:45.40,20.62,-59.05,-992.35,35.0,-665.0,-428.75,1,94.267,
01/01/2000,01:15:45.41,20.62,-59.05,-992.35,201.25,-647.50,-288.75,1,94.272,
01/01/2000,01:15:45.42,20.74,-59.05,-992.35,166.25,-735.0,-297.50,1,94.276,
01/01/2000,01:15:45.43,20.98,-59.05,-992.47,183.75,-840.0,-367.50,1,94.281,
01/01/2000,01:15:45.44,20.98,-59.17,-992.59,87.50,-656.25,-393.75,1,94.286,
01/01/2000,01:15:45.45,20.98,-59.17,-992.59,26.25,-656.25,-367.50,1,94.290,
01/01/2000,01:15:45.47,20.74,-59.17,-992.47,166.25,-726.25,-315.0,1,94.295,
01/01/2000,01:15:45.48,20.74,-59.29,-992.71,131.25,-700.0,-280.0,1,94.300,
01/01/2000,01:15:45.49,20.86,-59.29,-992.59,122.50,-665.0,-288.75,1,94.304,
01/01/2000,01:15:45.50,20.98,-59.29,-992.59,105.0,-638.75,-297.50,1,94.309,
01/01/2000,01:15:45.51,20.98,-59.29,-992.47,113.75,-717.50,-280.0,1,94.314,
01/01/2000,01:15:45.52,20.86,-59.29,-992.35,140.0,-612.50,-332.50,1,94.318,
01/01/2000,01:15:45.53,20.74,-59.29,-992.59,166.25,-700.0,-490.0,1,94.246,
01/01/2000,01:15:45.54,20.86,-59.17,-992.71,236.25,-568.75,-192.50,1,94.251,
01/01/2000,01:15:45.55,20.86,-59.29,-992.71,26.25,-682.50,-332.50,1,94.256,
01/01/2000,01:15:45.56,20.98,-59.29,-992.35,113.75,-787.50,-385.0,1,94.260,
01/01/2000,01:15:45.57,20.98,-59.29,-992.10,131.25,-752.50,-463.75,1,94.265,
01/01/2000,01:15:45.58,20.98,-59.29,-992.10,183.75,-752.50,-358.75,1,94.270,
01/01/2000,01:15:45.59,20.98,-59.17,-992.23,148.75,-603.75,-271.25,1,94.274,
01/01/2000,01:15:45.60,20.74,-59.17,-992.47,227.50,-682.50,-376.25,1,94.279,
01/01/2000,01:15:45.61,20.74,-59.29,-992.23,78.75,-560.0,-367.50,1,94.283,
01/01/2000,01:15:45.62,20.74,-59.29,-992.10,183.75,-665.0,-358.75,1,94.288,
01/01/2000,01:15:45.64,20.74,-59.29,-992.10,175.0,-778.75,-315.0,1,94.293,
01/01/2000,01:15:45.65,21.23,-59.17,-992.35,166.25,-656.25,-323.75,1,94.297,
01/01/2000,01:15:45.66,21.23,-59.29,-992.47,236.25,-726.25,-323.75,1,94.302,
01/01/2000,01:15:45.67,20.86,-59.29,-992.47,61.25,-630.0,-341.25,1,94.306,
01/01/2000,01:15:45.68,20.62,-59.17,-992.59,148.75,-630.0,-498.75,1,94.311,
01/01/2000,01:15:45.69,20.98,-59.05,-992.71,166.25,-673.75,-358.75,1,94.315,
01/01/2000,01:15:45.70,21.23,-58.80,-992.71,157.50,-638.75,-236.25,1,94.320,
01/01/2000,01:15:45.71,21.11,-59.29,-992.59,96.25,-752.50,-315.0,1,94.325,
01/01/2000,01:15:45.72,20.74,-59.54,-992.10,26.25,-717.50,-472.50,1,94.329,
01/01/2000,01:15:45.73,20.62,-59.66,-992.23,157.50,-656.25,-481.25,1,94.334,
01/01/2000,01:15:45.74,20.98,-59.17,-992.59,253.75,-717.50,-533.75,1,94.338,
01/01/2000,01:15:45.75,21.23,-58.93,-992.59,43.75,-778.75,-288.75,1,94.343,
01/01/2000,01:15:45.76,20.98,-59.17,-992.35,175.0,-603.75,-358.75,1,94.347,
01/01/2000,01:15:45.77,20.74,-59.54,-992.23,113.75,-708.75,-420.0,1,94.352,
01/01/2000,01:15:45.78,20.98,-59.78,-992.59,148.75,-752.50,-420.0,1,94.356,
01/01/2000,01:15:45.79,21.11,-59.66,-992.84,96.25,-787.50,-350.0,1,94.361,
01/01/2000,01:15:45.80,21.23,-59.29,-992.96,175.0,-691.25,-341.25,1,94.365,
01/01/2000,01:15:45.81,20.98,-59.29,-992.59,131.25,-752.50,-210.0,1,94.295,
01/01/2000,01:15:45.82,20.74,-59.29,-992.35,140.0,-647.50,-323.75,1,94.299,
01/01/2000,01:15:45.83,20.98,-59.54,-992.71,210.0,-796.25,-376.25,1,94.304,
01/01/2000,01:15:45.84,21.23,-59.54,-993.20,280.0,-813.75,-323.75,1,94.308,
01/01/2000,01:15:45.85,21.11,-59.54,-993.08,122.50,-726.25,-341.25,1,94.313,
01/01/2000,01:15:45.87,20.98,-59.54,-992.59,96.25,-735.0,-350.0,1,94.317,
01/01/2000,01:15:45.87,20.74,-59.41,-992.35,148.75,-743.75,-332.50,1,94.322,
01/01/2000,01:15:45.89,20.86,-59.29,-992.84,96.25,-665.0,-332.50,1,94.326,
01/01/2000,01:15:45.90,21.11,-59.41,-993.32,70.0,-673.75,-280.0,1,94.331,
01/01/2000,01:15:45.91,21.23,-59.29,-993.08,87.50,-647.50,-376.25,1,94.335,
01/01/2000,01:15:45.92,20.98,-59.54,-992.71,140.0,-717.50,-358.75,1,94.340,
01/01/2000,01:15:45.93,20.74,-59.41,-992.59,201.25,-726.25,-411.25,1,94.344,
01/01/2000,01:15:45.94,20.74,-59.29,-992.96,131.25,-691.25,-428.75,1,94.349,
01/01/2000,01:15:45.95,20.98,-59.29,-993.08,236.25,-673.75,-288.75,1,94.353,
01/01/2000,01:15:45.96,20.86,-59.41,-992.84,245.0,-700.0,-262.50,1,94.283,
01/01/2000,01:15:45.97,20.74,-59.66,-992.71,140.0,-743.75,-297.50,1,94.288,
01/01/2000,01:15:45.99,20.86,-59.66,-992.84,148.75,-761.25,-350.0,1,94.292,
01/01/2000,01:15:46.00,20.98,-59.54,-993.20,201.25,-700.0,-350.0,1,94.297,
01/01/2000,01:15:46.01,20.98,-59.41,-993.20,140.0,-656.25,-420.0,1,94.301,
01/01/2000,01:15:46.02,20.86,-59.54,-992.96,227.50,-700.0,-288.75,1,94.306,
01/01/2000,01:15:46.03,20.86,-59.54,-992.84,175.0,-743.75,-385.0,1,94.310,
01/01/2000,01:15:46.04,20.74,-59.66,-992.84,166.25,-813.75,-385.0,1,94.315,
01/01/2000,01:15:46.05,20.98,-59.66,-993.08,183.75,-691.25,-332.50,1,94.319,
01/01/2000,01:15:46.06,21.11,-59.54,-993.32,122.50,-665.0,-420.0,1,94.323,
01/01/2000,01:15:46.07,20.98,-59.54,-993.32,113.75,-656.25,-315.0,1,94.328,
01/01/2000,01:15:46.08,20.98,-59.54,-992.84,113.75,-612.50,-288.75,1,94.332,
01/01/2000,01:15:46.09,20.86,-59.66,-992.96,140.0,-805.0,-341.25,1,94.337,
01/01/2000,01:15:46.10,20.98,-59.54,-992.96,52.50,-796.25,-332.50,1,94.341,
01/01/2000,01:15:46.11,20.98,-59.54,-993.08,43.75,-691.25,-297.50,1,94.345,
01/01/2000,01:15:46.12,20.98,-59.54,-993.08,43.75,-691.25,-297.50,1,94.350,
01/01/2000,01:15:46.13,20.86,-59.66,-992.84,131.25,-805.0,-323.75,1,94.354,
01/01/2000,01:15:46.14,20.86,-59.78,-992.84,105.0,-656.25,-393.75,1,94.359,
01/01/2000,01:15:46.15,20.74,-59.66,-992.96,148.75,-560.0,-420.0,1,94.363,
01/01/2000,01:15:46.16,20.74,-59.66,-993.08,61.25,-700.0,-358.75,1,94.367,
01/01/2000,01:15:46.18,20.74,-59.54,-992.84,192.50,-761.25,-306.25,1,94.299,
01/01/2000,01:15:46.19,20.74,-59.41,-992.71,140.0,-656.25,-350.0,1,94.303,
01/01/2000,01:15:46.20,20.74,-59.54,-992.84,157.50,-700.0,-463.75,1,94.308,
01/01/2000,01:15:46.21,20.98,-59.41,-992.84,148.75,-735.0,-367.50,1,94.312,
01/01/2000,01:15:46.22,20.98,-59.41,-993.08,183.75,-726.25,-323.75,1,94.316,
01/01/2000,01:15:46.23,20.74,-59.29,-993.08,157.50,-726.25,-236.25,1,94.321,
01/01/2000,01:15:46.24,20.74,-59.29,-992.96,148.75,-700.0,-253.75,1,94.253,
01/01/2000,01:15:46.25,20.74,-59.29,-992.96,105.0,-638.75,-323.75,1,94.257,
01/01/2000,01:15:46.26,20.86,-59.41,-992.96,122.50,-857.50,-385.0,1,94.262,
01/01/2000,01:15:46.27,20.74,-59.54,-992.96,148.75,-647.50,-428.75,1,94.266,
01/01/2000,01:15:46.28,20.86,-59.41,-992.84,183.75,-761.25,-271.25,1,94.270,
01/01/2000,01:15:46.29,20.74,-59.41,-992.84,192.50,-761.25,-393.75,1,94.275,
01/01/2000,01:15:46.30,20.86,-59.29,-992.84,148.75,-700.0,-358.75,1,94.279,
01/01/2000,01:15:46.32,20.86,-59.29,-992.96,113.75,-691.25,-288.75,1,94.284,
01/01/2000,01:15:46.33,20.86,-59.29,-993.08,113.75,-796.25,-350.0,1,94.288,
01/01/2000,01:15:46.34,20.86,-59.41,-993.20,96.25,-647.50,-428.75,1,94.292,
01/01/2000,01:15:46.35,20.86,-59.41,-993.20,140.0,-743.75,-350.0,1,94.297,
01/01/2000,01:15:46.36,20.86,-59.17,-993.08,113.75,-717.50,-306.25,1,94.301,
01/01/2000,01:15:46.37,20.86,-59.05,-993.08,192.50,-665.0,-306.25,1,94.305,
01/01/2000,01:15:46.38,20.98,-59.29,-993.08,183.75,-717.50,-227.50,1,94.310,
01/01/2000,01:15:46.39,20.98,-59.05,-993.08,183.75,-665.0,-350.0,1,94.314,
01/01/2000,01:15:46.40,20.98,-59.17,-993.08,183.75,-595.0,-323.75,1,94.318,
01/01/2000,01:15:46.41,20.98,-59.05,-992.96,105.0,-708.75,-306.25,1,94.322,
01/01/2000,01:15:46.42,21.11,-59.05,-993.08,175.0,-752.50,-463.75,1,94.327,
01/01/2000,01:15:46.43,21.11,-58.93,-993.08,157.50,-717.50,-271.25,1,94.331,
01/01/2000,01:15:46.44,20.98,-59.05,-993.08,122.50,-647.50,-411.25,1,94.335,
01/01/2000,01:15:46.45,20.86,-59.05,-992.96,113.75,-735.0,-385.0,1,94.268,
01/01/2000,01:15:46.46,20.98,-59.05,-993.08,157.50,-682.50,-341.25,1,94.273,
01/01/2000,01:15:46.47,20.98,-58.93,-993.20,227.50,-717.50,-385.0,1,94.277,
01/01/2000,01:15:46.48,21.11,-59.17,-993.20,96.25,-717.50,-288.75,1,94.281,
01/01/2000,01:15:46.50,20.98,-59.29,-993.08,96.25,-726.25,-341.25,1,94.286,
01/01/2000,01:15:46.51,21.11,-59.29,-993.20,227.50,-665.0,-297.50,1,94.290,
01/01/2000,01:15:46.52,20.98,-59.29,-993.32,236.25,-717.50,-315.0,1,94.294,
01/01/2000,01:15:46.53,20.98,-59.05,-993.20,140.0,-700.0,-288.75,1,94.299,
01/01/2000,01:15:46.54,20.98,-59.05,-993.08,26.25,-717.50,-402.50,1,94.303,
01/01/2000,01:15:46.55,20.98,-59.17,-992.96,218.75,-673.75,-341.25,1,94.307,
01/01/2000,01:15:46.56,20.86,-59.41,-992.96,227.50,-796.25,-341.25,1,94.311,
01/01/2000,01:15:46.57,20.86,-59.29,-992.96,140.0,-682.50,-393.75,1,94.316,
01/01/2000,01:15:46.58,20.98,-59.17,-992.84,210.0,-542.50,-385.0,1,94.320,
01/01/2000,01:15:46.59,20.98,-58.93,-992.84,236.25,-630.0,-358.75,1,94.254,
01/01/2000,01:15:46.60,20.98,-59.05,-992.84,105.0,-673.75,-262.50,1,94.258,
01/01/2000,01:15:46.61,20.86,-59.17,-992.71,96.25,-752.50,-297.50,1,94.262,
01/01/2000,01:15:46.62,20.86,-59.41,-992.71,78.75,-708.75,-350.0,1,94.267,
01/01/2000,01:15:46.63,20.86,-59.41,-992.84,52.50,-630.0,-315.0,1,94.271,
01/01/2000,01:15:46.64,20.98,-59.17,-992.84,201.25,-717.50,-315.0,1,94.275,
01/01/2000,01:15:46.65,20.98,-59.05,-992.84,96.25,-700.0,-227.50,1,94.279,
01/01/2000,01:15:46.66,20.98,-59.17,-992.84,175.0,-717.50,-306.25,1,94.284,
01/01/2000,01:15:46.67,20.98,-59.29,-992.84,271.25,-708.75,-280.0,1,94.288,
01/01/2000,01:15:46.68,20.98,-59.29,-992.96,148.75,-735.0,-332.50,1,94.292,
01/01/2000,01:15:46.69,21.11,-59.17,-992.84,166.25,-717.50,-306.25,1,94.296,
01/01/2000,01:15:46.70,20.98,-59.29,-992.71,166.25,-682.50,-341.25,1,94.301,
01/01/2000,01:15:46.71,20.86,-59.17,-992.47,122.50,-770.0,-306.25,1,94.305,
01/01/2000,01:15:46.72,20.98,-59.17,-992.84,236.25,-752.50,-350.0,1,94.309,
01/01/2000,01:15:46.74,20.98,-59.17,-993.08,280.0,-778.75,-385.0,1,94.313,
01/01/2000,01:15:46.75,21.11,-59.17,-992.96,236.25,-595.0,-297.50,1,94.317,
01/01/2000,01:15:46.76,21.23,-59.17,-992.84,122.50,-673.75,-376.25,1,94.322,
01/01/2000,01:15:46.77,21.23,-59.17,-992.71,87.50,-603.75,-446.25,1,94.326,
01/01/2000,01:15:46.78,21.11,-59.05,-992.84,157.50,-656.25,-332.50,1,94.330,
01/01/2000,01:15:46.79,21.23,-59.05,-992.84,96.25,-778.75,-428.75,1,94.334,
01/01/2000,01:15:46.80,21.11,-59.17,-992.84,253.75,-700.0,-411.25,1,94.269,
01/01/2000,01:15:46.81,20.98,-59.05,-992.71,105.0,-752.50,-306.25,1,94.273,
01/01/2000,01:15:46.82,20.86,-59.17,-992.59,122.50,-726.25,-393.75,1,94.277,
01/01/2000,01:15:46.83,20.98,-59.17,-992.59,271.25,-708.75,-350.0,1,94.282,
01/01/2000,01:15:46.84,21.11,-59.17,-992.84,96.25,-621.25,-376.25,1,94.286,
01/01/2000,01:15:46.85,21.11,-59.05,-992.84,201.25,-717.50,-402.50,1,94.290,
01/01/2000,01:15:46.86,20.98,-59.05,-992.84,175.0,-665.0,-341.25,1,94.294,
01/01/2000,01:15:46.88,20.98,-59.05,-992.59,113.75,-796.25,-315.0,1,94.298,
01/01/2000,01:15:46.89,20.98,-59.05,-992.59,288.75,-708.75,-332.50,1,94.302,
01/01/2000,01:15:46.90,20.98,-59.05,-992.59,253.75,-778.75,-280.0,1,94.307,
01/01/2000,01:15:46.91,21.23,-59.05,-992.59,201.25,-726.25,-393.75,1,94.311,
01/01/2000,01:15:46.92,20.98,-58.93,-992.71,131.25,-778.75,-350.0,1,94.315,
01/01/2000,01:15:46.93,20.98,-59.05,-992.47,148.75,-752.50,-288.75,1,94.319,
01/01/2000,01:15:46.94,20.98,-59.05,-992.35,87.50,-630.0,-280.0,1,94.323,
01/01/2000,01:15:46.95,21.23,-58.93,-992.35,175.0,-735.0,-437.50,1,94.327,
01/01/2000,01:15:46.96,20.98,-58.80,-992.47,96.25,-638.75,-315.0,1,94.331,
01/01/2000,01:15:46.97,21.11,-58.93,-992.47,183.75,-708.75,-393.75,1,94.336,
01/01/2000,01:15:46.98,20.98,-58.93,-992.59,87.50,-603.75,-315.0,1,94.340,
01/01/2000,01:15:46.99,20.98,-58.80,-992.59,113.75,-708.75,-306.25,1,94.344,
01/01/2000,01:15:47.01,20.98,-58.93,-992.35,210.0,-752.50,-323.75,1,94.280,
01/01/2000,01:15:47.02,20.86,-59.05,-992.35,113.75,-656.25,-411.25,1,94.284,
01/01/2000,01:15:47.03,20.98,-59.05,-992.35,148.75,-682.50,-437.50,1,94.288,
01/01/2000,01:15:47.04,20.98,-58.93,-992.35,105.0,-682.50,-358.75,1,94.292,
01/01/2000,01:15:47.05,20.98,-58.93,-992.47,271.25,-717.50,-350.0,1,94.296,
01/01/2000,01:15:47.06,20.86,-58.80,-992.35,192.50,-647.50,-402.50,1,94.300,
01/01/2000,01:15:47.07,20.86,-59.05,-992.23,175.0,-778.75,-420.0,1,94.304,
01/01/2000,01:15:47.08,20.86,-59.05,-992.35,253.75,-700.0,-271.25,1,94.308,
01/01/2000,01:15:47.09,21.11,-59.05,-992.47,113.75,-638.75,-341.25,1,94.245,
01/01/2000,01:15:47.10,21.11,-59.05,-992.47,131.25,-682.50,-437.50,1,94.317,
01/01/2000,01:15:47.11,20.98,-59.05,-992.35,122.50,-700.0,-262.50,1,94.253,
01/01/2000,01:15:47.12,20.86,-59.17,-992.35,297.50,-682.50,-385.0,1,94.325,
01/01/2000,01:15:47.13,20.98,-59.17,-992.35,148.75,-700.0,-315.0,1,94.261,
01/01/2000,01:15:47.14,20.98,-59.05,-992.35,183.75,-735.0,-350.0,1,94.265,
01/01/2000,01:15:47.15,20.86,-59.05,-992.35,113.75,-673.75,-376.25,1,94.269,
01/01/2000,01:15:47.17,20.98,-59.05,-992.35,140.0,-682.50,-350.0,1,94.273,
01/01/2000,01:15:47.18,20.98,-59.05,-992.23,87.50,-630.0,-385.0,1,94.278,
01/01/2000,01:15:47.19,20.98,-59.05,-992.10,96.25,-708.75,-385.0,1,94.282,
01/01/2000,01:15:47.20,21.11,-59.17,-992.35,122.50,-673.75,-297.50,1,94.286,
01/01/2000,01:15:47.21,21.23,-59.17,-992.35,192.50,-743.75,-332.50,1,94.290,
01/01/2000,01:15:47.22,21.23,-59.17,-992.47,78.75,-673.75,-350.0,1,94.294,
01/01/2000,01:15:47.23,21.23,-59.29,-992.35,183.75,-708.75,-358.75,1,94.298,
01/01/2000,01:15:47.24,21.23,-59.29,-992.35,236.25,-691.25,-306.25,1,94.302,
01/01/2000,01:15:47.25,21.23,-59.41,-992.23,87.50,-717.50,-245.0,1,94.306,
01/01/2000,01:15:47.26,20.98,-59.17,-992.10,122.50,-700.0,-306.25,1,94.310,
01/01/2000,01:15:47.27,20.98,-59.29,-992.10,236.25,-752.50,-306.25,1,94.314,
01/01/2000,01:15:47.28,20.86,-59.29,-991.98,183.75,-665.0,-262.50,1,94.318,
01/01/2000,01:15:47.29,20.86,-59.29,-992.23,236.25,-743.75,-376.25,1,94.322,
01/01/2000,01:15:47.30,20.98,-59.29,-992.23,175.0,-708.75,-402.50,1,94.259,
01/01/2000,01:15:47.31,20.86,-59.41,-991.98,245.0,-638.75,-288.75,1,94.263,
01/01/2000,01:15:47.32,20.74,-59.41,-991.86,245.0,-726.25,-437.50,1,94.268,
01/01/2000,01:15:47.33,20.62,-59.29,-991.86,227.50,-691.25,-376.25,1,94.272,
01/01/2000,01:15:47.34,20.74,-59.29,-992.10,175.0,-673.75,-323.75,1,94.276,
01/01/2000,01:15:47.35,20.86,-59.17,-992.10,43.75,-691.25,-218.75,1,94.280,
01/01/2000,01:15:47.37,20.98,-59.29,-991.86,26.25,-700.0,-341.25,1,94.284,
01/01/2000,01:15:47.38,20.74,-59.29,-991.74,140.0,-638.75,-437.50,1,94.288,
01/01/2000,01:15:47.39,20.62,-59.17,-991.98,166.25,-708.75,-358.75,1,94.292,
01/01/2000,01:15:47.40,20.74,-59.05,-992.23,148.75,-691.25,-297.50,1,94.296,
01/01/2000,01:15:47.41,20.62,-58.93,-992.23,175.0,-708.75,-271.25,1,94.300,
01/01/2000,01:15:47.42,20.62,-59.05,-991.98,78.75,-691.25,-288.75,1,94.304,
01/01/2000,01:15:47.43,20.74,-59.17,-991.86,175.0,-682.50,-376.25,1,94.308,
01/01/2000,01:15:47.44,20.98,-59.17,-991.98,175.0,-700.0,-306.25,1,94.246,
01/01/2000,01:15:47.45,21.23,-59.29,-992.10,210.0,-717.50,-393.75,1,94.250,
01/01/2000,01:15:47.46,21.11,-59.05,-992.23,105.0,-717.50,-280.0,1,94.254,
01/01/2000,01:15:47.47,20.98,-59.17,-991.98,105.0,-638.75,-367.50,1,94.258,
01/01/2000,01:15:47.48,20.98,-59.17,-991.98,183.75,-682.50,-262.50,1,94.262,
01/01/2000,01:15:47.49,21.11,-59.17,-992.10,175.0,-770.0,-323.75,1,94.266,
01/01/2000,01:15:47.50,21.35,-59.29,-992.23,218.75,-656.25,-315.0,1,94.270,
01/01/2000,01:15:47.52,20.98,-59.41,-992.10,192.50,-612.50,-393.75,1,94.274,
01/01/2000,01:15:47.53,20.86,-59.29,-992.10,113.75,-647.50,-402.50,1,94.278,
01/01/2000,01:15:47.54,20.98,-59.05,-992.23,105.0,-770.0,-393.75,1,94.282,
01/01/2000,01:15:47.55,20.86,-59.05,-992.35,52.50,-603.75,-262.50,1,94.286,
01/01/2000,01:15:47.56,20.74,-59.17,-992.23,96.25,-647.50,-306.25,1,94.290,
01/01/2000,01:15:47.57,20.86,-59.29,-991.98,192.50,-708.75,-227.50,1,94.228,
01/01/2000,01:15:47.58,20.74,-59.29,-991.86,192.50,-612.50,-306.25,1,94.232,
01/01/2000,01:15:47.59,20.74,-59.17,-992.10,227.50,-770.0,-393.75,1,94.236,
01/01/2000,01:15:47.60,20.74,-59.05,-992.23,227.50,-752.50,-341.25,1,94.240,
01/01/2000,01:15:47.61,20.74,-58.93,-992.23,201.25,-726.25,-306.25,1,94.244,
01/01/2000,01:15:47.62,20.74,-59.05,-992.10,157.50,-717.50,-323.75,1,94.248,
01/01/2000,01:15:47.63,20.74,-59.05,-991.98,122.50,-673.75,-323.75,1,94.252,
01/01/2000,01:15:47.64,20.74,-59.17,-991.98,105.0,-665.0,-262.50,1,94.256,
01/01/2000,01:15:47.65,20.86,-59.29,-992.10,70.0,-630.0,-393.75,1,94.260,
01/01/2000,01:15:47.67,20.86,-59.17,-992.23,70.0,-647.50,-358.75,1,94.264,
01/01/2000,01:15:47.68,20.74,-59.29,-992.10,245.0,-595.0,-367.50,1,94.268,
01/01/2000,01:15:47.69,20.62,-59.29,-992.10,175.0,-700.0,-288.75,1,94.272,
01/01/2000,01:15:47.70,20.74,-59.29,-992.10,26.25,-638.75,-332.50,1,94.276,
01/01/2000,01:15:47.71,20.86,-59.29,-992.23,96.25,-735.0,-341.25,1,94.280,
01/01/2000,01:15:47.72,20.86,-59.29,-992.23,122.50,-638.75,-271.25,1,94.284,
01/01/2000,01:15:47.73,20.74,-59.05,-992.23,218.75,-656.25,-358.75,1,94.288,
01/01/2000,01:15:47.74,20.74,-58.93,-991.98,166.25,-682.50,-376.25,1,94.292,
01/01/2000,01:15:47.75,20.74,-58.80,-991.98,201.25,-665.0,-350.0,1,94.296,
01/01/2000,01:15:47.76,20.98,-58.80,-992.10,175.0,-673.75,-350.0,1,94.299,
01/01/2000,01:15:47.77,20.98,-59.05,-992.10,52.50,-743.75,-297.50,1,94.303,
01/01/2000,01:15:47.78,20.98,-59.29,-992.10,148.75,-656.25,-350.0,1,94.307,
01/01/2000,01:15:47.79,20.98,-59.05,-991.74,166.25,-717.50,-367.50,1,94.247,
01/01/2000,01:15:47.80,20.98,-58.93,-992.10,210.0,-708.75,-350.0,1,94.251,
01/01/2000,01:15:47.81,20.98,-58.93,-992.10,52.50,-665.0,-280.0,1,94.254,
01/01/2000,01:15:47.82,20.98,-59.05,-992.10,157.50,-708.75,-367.50,1,94.258,
01/01/2000,01:15:47.83,20.98,-59.17,-992.23,113.75,-577.50,-420.0,1,94.262,
01/01/2000,01:15:47.84,21.11,-59.17,-992.23,157.50,-726.25,-411.25,1,94.266,
01/01/2000,01:15:47.85,21.23,-58.93,-992.35,43.75,-700.0,-280.0,1,94.270,
01/01/2000,01:15:47.87,21.23,-58.80,-992.47,52.50,-787.50,-297.50,1,94.274,
01/01/2000,01:15:47.88,21.35,-58.93,-992.35,253.75,-700.0,-420.0,1,94.278,
01/01/2000,01:15:47.89,21.23,-58.80,-992.23,113.75,-621.25,-376.25,1,94.282,
01/01/2000,01:15:47.90,21.23,-58.93,-992.23,61.25,-577.50,-341.25,1,94.286,
01/01/2000,01:15:47.91,21.35,-58.93,-992.23,35.0,-682.50,-288.75,1,94.290,
01/01/2000,01:15:47.92,21.47,-59.05,-992.10,227.50,-700.0,-297.50,1,94.293,
01/01/2000,01:15:47.93,21.47,-59.05,-992.10,271.25,-682.50,-280.0,1,94.297,
01/01/2000,01:15:47.94,21.23,-58.93,-991.98,122.50,-673.75,-332.50,1,94.301,
01/01/2000,01:15:47.95,21.35,-58.80,-991.98,192.50,-726.25,-428.75,1,94.305,
01/01/2000,01:15:47.96,21.35,-58.80,-992.10,175.0,-787.50,-297.50,1,94.309,
01/01/2000,01:15:47.97,21.47,-58.93,-992.10,210.0,-621.25,-288.75,1,94.313,
01/01/2000,01:15:47.98,21.35,-59.05,-992.10,227.50,-682.50,-393.75,1,94.317,
01/01/2000,01:15:47.99,21.23,-58.80,-992.10,201.25,-700.0,-358.75,1,94.320,
01/01/2000,01:15:48.00,21.35,-58.80,-992.10,245.0,-735.0,-332.50,1,94.261,
01/01/2000,01:15:48.02,21.35,-58.68,-992.10,262.50,-673.75,-367.50,1,94.265,
01/01/2000,01:15:48.02,21.35,-58.80,-992.10,166.25,-761.25,-288.75,1,94.268,
01/01/2000,01:15:48.04,21.23,-59.05,-991.98,183.75,-717.50,-455.0,1,94.272,
01/01/2000,01:15:48.05,21.35,-59.05,-991.86,113.75,-735.0,-376.25,1,94.276,
01/01/2000,01:15:48.06,21.35,-58.93,-991.98,70.0,-638.75,-306.25,1,94.280,
01/01/2000,01:15:48.07,21.35,-59.05,-991.98,140.0,-761.25,-350.0,1,94.284,
01/01/2000,01:15:48.08,20.98,-59.05,-991.86,192.50,-717.50,-297.50,1,94.288,
01/01/2000,01:15:48.09,20.98,-59.05,-991.86,61.25,-717.50,-350.0,1,94.291,
01/01/2000,01:15:48.10,21.11,-59.17,-991.98,96.25,-673.75,-393.75,1,94.295,
01/01/2000,01:15:48.11,21.11,-59.05,-991.86,96.25,-708.75,-332.50,1,94.236,
01/01/2000,01:15:48.12,20.98,-59.05,-991.86,166.25,-708.75,-481.25,1,94.303,
01/01/2000,01:15:48.13,20.86,-59.05,-991.74,105.0,-717.50,-332.50,1,94.244,
01/01/2000,01:15:48.14,20.86,-59.17,-991.74,175.0,-682.50,-323.75,1,94.247,
01/01/2000,01:15:48.15,20.86,-59.05,-991.86,157.50,-708.75,-446.25,1,94.251,
01/01/2000,01:15:48.16,20.74,-58.93,-991.86,87.50,-700.0,-236.25,1,94.255,
01/01/2000,01:15:48.17,20.74,-59.17,-991.86,140.0,-656.25,-376.25,1,94.259,
01/01/2000,01:15:48.18,20.62,-59.05,-991.86,175.0,-665.0,-323.75,1,94.263,
01/01/2000,01:15:48.19,20.74,-59.05,-991.86,201.25,-516.25,-332.50,1,94.267,
01/01/2000,01:15:48.20,20.86,-59.05,-991.98,122.50,-761.25,-332.50,1,94.270,
01/01/2000,01:15:48.22,21.11,-58.93,-992.10,183.75,-691.25,-323.75,1,94.274,
01/01/2000,01:15:48.23,21.11,-59.17,-992.10,140.0,-708.75,-350.0,1,94.278,
01/01/2000,01:15:48.24,21.11,-59.05,-991.98,201.25,-735.0,-393.75,1,94.282,
01/01/2000,01:15:48.25,20.98,-59.05,-992.10,175.0,-708.75,-315.0,1,94.286,
01/01/2000,01:15:48.26,21.11,-58.93,-992.10,236.25,-708.75,-297.50,1,94.290,
01/01/2000,01:15:48.27,20.98,-59.05,-992.10,122.50,-656.25,-341.25,1,94.293,
01/01/2000,01:15:48.28,20.98,-59.05,-992.10,157.50,-603.75,-332.50,1,94.297,
01/01/2000,01:15:48.29,20.98,-59.05,-992.10,157.50,-726.25,-262.50,1,94.301,
01/01/2000,01:15:48.30,20.98,-59.05,-992.23,43.75,-621.25,-411.25,1,94.305,
01/01/2000,01:15:48.31,21.11,-59.05,-992.10,78.75,-638.75,-218.75,1,94.308,
01/01/2000,01:15:48.32,21.11,-59.05,-991.98,236.25,-743.75,-367.50,1,94.250,
01/01/2000,01:15:48.33,21.11,-59.05,-991.98,183.75,-673.75,-393.75,1,94.316,
01/01/2000,01:15:48.34,20.98,-59.05,-992.10,210.0,-638.75,-315.0,1,94.257,
01/01/2000,01:15:48.36,20.98,-59.05,-992.35,131.25,-743.75,-323.75,1,94.261,
01/01/2000,01:15:48.37,21.11,-58.93,-992.10,148.75,-595.0,-306.25,1,94.265,
01/01/2000,01:15:48.38,20.98,-58.93,-991.98,201.25,-638.75,-385.0,1,94.269,
01/01/2000,01:15:48.39,20.98,-59.05,-991.86,148.75,-700.0,-262.50,1,94.273,
01/01/2000,01:15:48.40,20.86,-58.93,-991.86,78.75,-743.75,-437.50,1,94.276,
01/01/2000,01:15:48.41,20.98,-58.93,-991.86,288.75,-726.25,-315.0,1,94.280,
01/01/2000,01:15:48.42,21.11,-58.80,-991.86,140.0,-577.50,-306.25,1,94.284,
01/01/2000,01:15:48.43,20.98,-59.05,-991.86,166.25,-691.25,-411.25,1,94.288,
01/01/2000,01:15:48.44,20.98,-59.05,-991.98,105.0,-691.25,-411.25,1,94.291,
01/01/2000,01:15:48.45,20.98,-59.17,-992.10,280.0,-717.50,-358.75,1,94.295,
01/01/2000,01:15:48.46,20.98,-59.17,-992.23,122.50,-665.0,-297.50,1,94.299,
01/01/2000,01:15:48.47,21.11,-59.05,-992.23,245.0,-796.25,-341.25,1,94.303,
01/01/2000,01:15:48.48,21.11,-59.05,-992.35,105.0,-726.25,-350.0,1,94.306,
01/01/2000,01:15:48.49,21.11,-59.05,-992.10,297.50,-700.0,-358.75,1,94.310,
01/01/2000,01:15:48.50,21.11,-59.29,-992.23,113.75,-595.0,-385.0,1,94.252,
01/01/2000,01:15:48.51,21.23,-59.29,-992.35,192.50,-665.0,-262.50,1,94.256,
01/01/2000,01:15:48.52,21.23,-59.29,-992.35,157.50,-621.25,-245.0,1,94.260,
01/01/2000,01:15:48.53,21.11,-59.29,-992.10,175.0,-612.50,-341.25,1,94.263,
01/01/2000,01:15:48.55,21.11,-59.29,-992.10,166.25,-735.0,-297.50,1,94.267,
01/01/2000,01:15:48.56,21.11,-59.41,-992.10,166.25,-630.0,-420.0,1,94.271,
01/01/2000,01:15:48.57,21.11,-59.54,-992.23,166.25,-708.75,-262.50,1,94.275,
01/01/2000,01:15:48.58,21.11,-59.41,-992.10,0.0,-735.0,-288.75,1,94.278,
01/01/2000,01:15:48.59,21.11,-59.54,-992.10,201.25,-638.75,-297.50,1,94.282,
01/01/2000,01:15:48.60,20.98,-59.41,-992.23,218.75,-708.75,-271.25,1,94.286,
01/01/2000,01:15:48.61,20.98,-59.54,-992.35,227.50,-533.75,-262.50,1,94.289,
01/01/2000,01:15:48.62,20.98,-59.41,-992.35,17.50,-708.75,-280.0,1,94.293,
01/01/2000,01:15:48.63,20.98,-59.29,-992.23,253.75,-717.50,-315.0,1,94.297,
01/01/2000,01:15:48.64,20.98,-59.41,-992.35,140.0,-752.50,-341.25,1,94.239,
01/01/2000,01:15:48.65,20.98,-59.41,-992.35,113.75,-673.75,-315.0,1,94.304,
01/01/2000,01:15:48.66,21.11,-59.29,-992.35,78.75,-665.0,-472.50,1,94.247,
01/01/2000,01:15:48.67,21.23,-59.29,-992.47,245.0,-673.75,-376.25,1,94.251,
01/01/2000,01:15:48.68,21.11,-59.29,-992.59,271.25,-665.0,-385.0,1,94.254,
01/01/2000,01:15:48.69,20.98,-59.29,-992.59,148.75,-691.25,-332.50,1,94.258,
01/01/2000,01:15:48.70,20.98,-59.17,-992.59,306.25,-708.75,-323.75,1,94.262,
01/01/2000,01:15:48.72,21.23,-59.29,-992.71,166.25,-673.75,-315.0,1,94.265,
01/01/2000,01:15:48.73,21.23,-59.29,-992.84,157.50,-638.75,-332.50,1,94.269,
01/01/2000,01:15:48.74,21.23,-59.29,-992.59,280.0,-595.0,-385.0,1,94.273,
01/01/2000,01:15:48.75,21.11,-59.29,-992.47,218.75,-691.25,-332.50,1,94.277,
01/01/2000,01:15:48.76,21.11,-59.17,-992.59,122.50,-778.75,-306.25,1,94.280,
01/01/2000,01:15:48.77,21.11,-59.17,-992.84,87.50,-708.75,-271.25,1,94.284,
01/01/2000,01:15:48.78,21.11,-59.29,-992.84,35.0,-682.50,-323.75,1,94.288,
01/01/2000,01:15:48.79,20.98,-59.41,-992.84,105.0,-813.75,-315.0,1,94.291,
01/01/2000,01:15:48.80,20.98,-59.29,-992.71,183.75,-682.50,-455.0,1,94.295,
01/01/2000,01:15:48.81,20.98,-59.29,-992.84,218.75,-682.50,-367.50,1,94.299,
01/01/2000,01:15:48.82,21.11,-59.05,-992.96,192.50,-647.50,-288.75,1,94.302,
01/01/2000,01:15:48.83,21.23,-59.17,-992.84,113.75,-787.50,-271.25,1,94.306,
01/01/2000,01:15:48.84,21.11,-59.17,-992.84,87.50,-752.50,-332.50,1,94.309,
01/01/2000,01:15:48.85,20.86,-59.41,-992.84,315.0,-700.0,-358.75,1,94.253,
01/01/2000,01:15:48.86,20.86,-59.29,-992.84,262.50,-621.25,-393.75,1,94.257,
01/01/2000,01:15:48.87,20.98,-59.17,-993.08,166.25,-708.75,-323.75,1,94.260,
01/01/2000,01:15:48.88,20.98,-59.29,-992.84,166.25,-700.0,-341.25,1,94.264,
01/01/2000,01:15:48.89,20.86,-59.29,-992.71,192.50,-726.25,-306.25,1,94.268,
01/01/2000,01:15:48.90,20.74,-59.29,-992.71,210.0,-603.75,-341.25,1,94.271,
01/01/2000,01:15:48.91,20.86,-59.41,-992.71,245.0,-743.75,-376.25,1,94.275,
01/01/2000,01:15:48.93,21.11,-59.29,-992.84,218.75,-708.75,-402.50,1,94.278,
01/01/2000,01:15:48.94,20.98,-59.54,-992.71,96.25,-665.0,-341.25,1,94.282,
01/01/2000,01:15:48.95,20.98,-59.54,-992.59,218.75,-673.75,-253.75,1,94.286,
01/01/2000,01:15:48.96,20.86,-59.78,-992.47,288.75,-630.0,-367.50,1,94.289,
01/01/2000,01:15:48.97,20.86,-59.54,-992.59,140.0,-717.50,-323.75,1,94.293,
01/01/2000,01:15:48.98,20.98,-59.54,-992.59,105.0,-735.0,-315.0,1,94.297,
01/01/2000,01:15:48.99,20.98,-59.54,-992.59,201.25,-743.75,-297.50,1,94.300,
01/01/2000,01:15:49.00,20.86,-59.66,-992.47,183.75,-612.50,-271.25,1,94.304,
01/01/2000,01:15:49.01,20.98,-59.78,-992.59,201.25,-621.25,-402.50,1,94.248,
01/01/2000,01:15:49.02,20.98,-59.66,-992.59,131.25,-656.25,-218.75,1,94.311,
01/01/2000,01:15:49.03,20.98,-59.54,-992.59,166.25,-700.0,-315.0,1,94.255,
01/01/2000,01:15:49.04,20.98,-59.66,-992.47,61.25,-691.25,-367.50,1,94.259,
01/01/2000,01:15:49.06,20.86,-59.78,-992.59,227.50,-726.25,-393.75,1,94.262,
01/01/2000,01:15:49.07,20.86,-59.54,-992.59,96.25,-743.75,-341.25,1,94.266,
01/01/2000,01:15:49.08,20.86,-59.54,-992.59,113.75,-700.0,-280.0,1,94.270,
01/01/2000,01:15:49.09,20.86,-59.54,-992.59,201.25,-673.75,-341.25,1,94.273,
01/01/2000,01:15:49.10,20.86,-59.54,-992.47,87.50,-708.75,-341.25,1,94.277,
01/01/2000,01:15:49.11,20.86,-59.54,-992.59,218.75,-682.50,-350.0,1,94.280,
01/01/2000,01:15:49.12,20.86,-59.54,-992.59,113.75,-603.75,-350.0,1,94.284,
01/01/2000,01:15:49.13,20.98,-59.41,-992.59,201.25,-621.25,-341.25,1,94.288,
01/01/2000,01:15:49.14,20.98,-59.41,-992.71,271.25,-726.25,-288.75,1,94.232,
01/01/2000,01:15:49.15,20.98,-59.41,-992.71,175.0,-665.0,-350.0,1,94.236,
01/01/2000,01:15:49.16,20.86,-59.54,-992.84,210.0,-682.50,-367.50,1,94.239,
01/01/2000,01:15:49.17,20.98,-59.41,-992.96,113.75,-665.0,-350.0,1,94.243,
01/01/2000,01:15:49.18,20.98,-59.29,-992.84,288.75,-586.25,-385.0,1,94.246,
01/01/2000,01:15:49.19,21.11,-59.29,-992.59,70.0,-691.25,-350.0,1,94.250,
01/01/2000,01:15:49.21,21.11,-59.29,-992.59,210.0,-743.75,-420.0,1,94.254,
01/01/2000,01:15:49.22,21.11,-59.17,-992.71,78.75,-700.0,-236.25,1,94.257,
01/01/2000,01:15:49.23,20.98,-59.29,-992.71,131.25,-752.50,-332.50,1,94.261,
01/01/2000,01:15:49.24,20.98,-59.29,-992.84,166.25,-700.0,-350.0,1,94.264,
01/01/2000,01:15:49.25,20.98,-59.29,-992.71,192.50,-586.25,-341.25,1,94.268,
01/01/2000,01:15:49.26,20.98,-59.29,-992.71,201.25,-752.50,-306.25,1,94.271,
01/01/2000,01:15:49.27,20.98,-59.29,-992.71,201.25,-691.25,-420.0,1,94.275,
01/01/2000,01:15:49.28,21.11,-59.29,-992.71,122.50,-673.75,-358.75,1,94.279,
01/01/2000,01:15:49.29,21.23,-59.41,-992.84,87.50,-708.75,-341.25,1,94.282,
01/01/2000,01:15:49.30,21.23,-59.17,-992.84,78.75,-752.50,-288.75,1,94.286,
01/01/2000,01:15:49.31,21.23,-59.29,-992.71,157.50,-857.50,-402.50,1,94.289,
01/01/2000,01:15:49.32,21.23,-59.29,-992.71,192.50,-717.50,-253.75,1,94.293,
01/01/2000,01:15:49.33,21.23,-59.41,-992.84,-70.0,-638.75,-420.0,1,94.296,
01/01/2000,01:15:49.34,21.23,-59.29,-992.84,52.50,-638.75,-411.25,1,94.300,
01/01/2000,01:15:49.35,21.11,-59.17,-992.84,70.0,-717.50,-350.0,1,94.245,
01/01/2000,01:15:49.36,20.98,-59.29,-992.84,183.75,-682.50,-262.50,1,94.249,
01/01/2000,01:15:49.37,21.11,-59.29,-992.59,87.50,-708.75,-350.0,1,94.252,
01/01/2000,01:15:49.39,20.98,-59.29,-992.71,227.50,-743.75,-350.0,1,94.256,
01/01/2000,01:15:49.40,20.98,-59.41,-992.59,175.0,-735.0,-367.50,1,94.259,
01/01/2000,01:15:49.41,21.11,-59.41,-992.59,166.25,-735.0,-350.0,1,94.263,
01/01/2000,01:15:49.42,20.86,-59.29,-992.59,35.0,-621.25,-341.25,1,94.266,
01/01/2000,01:15:49.43,20.98,-59.17,-992.71,236.25,-691.25,-306.25,1,94.270,
01/01/2000,01:15:49.44,20.98,-59.17,-992.84,183.75,-673.75,-385.0,1,94.273,
01/01/2000,01:15:49.45,20.86,-59.29,-992.84,192.50,-700.0,-393.75,1,94.277,
01/01/2000,01:15:49.46,20.74,-59.41,-992.59,131.25,-726.25,-376.25,1,94.280,
01/01/2000,01:15:49.47,20.74,-59.54,-992.47,140.0,-586.25,-358.75,1,94.284,
01/01/2000,01:15:49.48,20.74,-59.29,-992.47,288.75,-647.50,-376.25,1,94.287,
01/01/2000,01:15:49.49,20.74,-59.17,-992.59,218.75,-612.50,-341.25,1,94.233,
01/01/2000,01:15:49.50,20.74,-59.17,-992.59,70.0,-647.50,-262.50,1,94.237,
01/01/2000,01:15:49.51,20.74,-59.29,-992.47,183.75,-735.0,-323.75,1,94.240,
01/01/2000,01:15:49.52,20.74,-59.29,-992.47,148.75,-665.0,-402.50,1,94.244,
01/01/2000,01:15:49.53,20.86,-59.29,-992.47,306.25,-630.0,-376.25,1,94.247,
01/01/2000,01:15:49.54,20.86,-59.17,-992.59,253.75,-813.75,-253.75,1,94.251,
01/01/2000,01:15:49.56,20.86,-59.17,-992.59,210.0,-735.0,-315.0,1,94.254,
01/01/2000,01:15:49.57,20.86,-59.17,-992.71,236.25,-787.50,-367.50,1,94.200,
01/01/2000,01:15:49.58,20.86,-59.17,-992.59,175.0,-665.0,-341.25,1,94.204,
01/01/2000,01:15:49.59,20.98,-59.29,-992.71,175.0,-708.75,-315.0,1,94.207,
01/01/2000,01:15:49.60,21.11,-59.29,-992.71,245.0,-665.0,-288.75,1,94.211,
01/01/2000,01:15:49.61,20.98,-59.17,-992.71,166.25,-796.25,-315.0,1,94.214,
01/01/2000,01:15:49.62,20.86,-59.17,-992.59,201.25,-638.75,-341.25,1,94.218,
01/01/2000,01:15:49.63,20.86,-59.05,-992.59,210.0,-630.0,-367.50,1,94.221,
01/01/2000,01:15:49.64,20.98,-59.05,-992.59,17.50,-761.25,-297.50,1,94.225,
01/01/2000,01:15:49.65,20.98,-59.17,-992.35,96.25,-665.0,-341.25,1,94.228,
01/01/2000,01:15:49.66,20.86,-59.29,-992.10,253.75,-735.0,-385.0,1,94.232,
01/01/2000,01:15:49.67,20.74,-59.41,-992.10,192.50,-752.50,-323.75,1,94.235,
01/01/2000,01:15:49.68,20.74,-59.29,-992.23,52.50,-752.50,-253.75,1,94.239,
01/01/2000,01:15:49.69,20.86,-59.17,-992.23,288.75,-638.75,-341.25,1,94.242,
01/01/2000,01:15:49.71,20.98,-59.17,-992.35,122.50,-743.75,-332.50,1,94.246,
01/01/2000,01:15:49.72,20.86,-59.29,-992.23,113.75,-752.50,-393.75,1,94.249,
01/01/2000,01:15:49.73,20.86,-59.41,-992.10,105.0,-796.25,-367.50,1,94.253,
01/01/2000,01:15:49.74,20.86,-59.29,-992.23,157.50,-612.50,-262.50,1,94.256,
01/01/2000,01:15:49.75,20.98,-59.29,-992.23,201.25,-630.0,-376.25,1,94.260,
01/01/2000,01:15:49.76,20.98,-59.29,-992.23,131.25,-638.75,-288.75,1,94.263,
01/01/2000,01:15:49.77,20.98,-59.54,-992.23,131.25,-700.0,-297.50,1,94.267,
01/01/2000,01:15:49.78,20.74,-59.54,-992.35,52.50,-673.75,-358.75,1,94.270,
01/01/2000,01:15:49.79,20.74,-59.54,-992.59,52.50,-717.50,-376.25,1,94.274,
01/01/2000,01:15:49.80,20.98,-59.41,-992.59,183.75,-682.50,-358.75,1,94.277,
01/01/2000,01:15:49.81,20.74,-59.41,-992.59,157.50,-813.75,-192.50,1,94.281,
01/01/2000,01:15:49.82,20.62,-59.54,-992.35,35.0,-621.25,-367.50,1,94.284,
01/01/2000,01:15:49.83,20.62,-59.54,-992.35,271.25,-673.75,-376.25,1,94.287,
01/01/2000,01:15:49.84,20.74,-59.41,-992.59,253.75,-638.75,-288.75,1,94.234,
01/01/2000,01:15:49.85,20.86,-59.41,-992.59,210.0,-717.50,-350.0,1,94.238,
01/01/2000,01:15:49.86,20.74,-59.41,-992.71,78.75,-647.50,-306.25,1,94.241,
01/01/2000,01:15:49.87,20.86,-59.41,-992.71,61.25,-761.25,-367.50,1,94.245,
01/01/2000,01:15:49.88,20.86,-59.29,-992.59,87.50,-770.0,-385.0,1,94.248,
01/01/2000,01:15:49.89,20.86,-59.05,-992.84,113.75,-612.50,-376.25,1,94.251,
01/01/2000,01:15:49.90,21.11,-59.05,-992.71,157.50,-647.50,-358.75,1,94.255,
01/01/2000,01:15:49.92,20.98,-59.17,-992.59,140.0,-717.50,-227.50,1,94.258,
01/01/2000,01:15:49.93,20.98,-59.17,-992.59,148.75,-665.0,-323.75,1,94.262,
