rtcDate,rtcTime,aX,aY,aZ,gX,gY,gZ,dataRdy,output_Hz,
01/01/2000,01:06:54.94,18.42,-49.29,-854.37,148.75,-638.75,-376.25,1,0.0,
01/01/2000,01:06:54.95,19.15,-51.12,-885.84,210.0,-647.50,-367.50,1,100.0,
01/01/2000,01:06:54.96,19.28,-51.97,-898.77,210.0,-638.75,-350.0,1,100.0,
01/01/2000,01:06:54.97,19.52,-52.58,-910.12,35.0,-717.50,-245.0,1,100.0,
01/01/2000,01:06:54.98,19.76,-53.56,-925.13,253.75,-717.50,-306.25,1,100.0,
01/01/2000,01:06:54.99,20.01,-54.05,-933.54,227.50,-708.75,-376.25,1,100.0,
01/01/2000,01:06:55.00,20.13,-54.53,-940.74,166.25,-787.50,-341.25,1,100.0,
01/01/2000,01:06:55.02,20.25,-55.02,-949.77,78.75,-630.0,-315.0,1,100.0,
01/01/2000,01:06:55.03,20.37,-55.39,-955.02,183.75,-822.50,-393.75,1,100.0,
01/01/2000,01:06:55.04,20.50,-55.51,-959.41,122.50,-778.75,-323.75,1,100.0,
01/01/2000,01:06:55.05,20.74,-55.75,-963.80,271.25,-630.0,-402.50,1,100.0,
01/01/2000,01:06:55.06,20.98,-56.00,-967.58,96.25,-778.75,-315.0,1,100.0,
01/01/2000,01:06:55.07,20.98,-56.24,-972.10,323.75,-770.0,-323.75,1,100.0,
01/01/2000,01:06:55.08,20.98,-56.36,-974.54,210.0,-638.75,-280.0,1,100.0,
01/01/2000,01:06:55.09,20.98,-56.36,-976.73,113.75,-700.0,-315.0,1,100.0,
01/01/2000,01:06:55.10,20.98,-56.61,-979.66,245.0,-796.25,-245.0,1,100.0,
01/01/2000,01:06:55.11,21.11,-56.61,-981.49,201.25,-726.25,-332.50,1,100.0,
01/01/2000,01:06:55.12,20.98,-56.85,-982.83,96.25,-752.50,-376.25,1,100.0,
01/01/2000,01:06:55.13,20.98,-56.97,-984.05,175.0,-752.50,-332.50,1,100.0,
01/01/2000,01:06:55.14,20.98,-56.97,-985.03,175.0,-743.75,-332.50,1,100.0,
01/01/2000,01:06:55.15,21.23,-56.85,-986.25,157.50,-735.0,-350.0,1,100.0,
01/01/2000,01:06:55.16,21.47,-56.97,-986.98,157.50,-708.75,-315.0,1,100.0,
01/01/2000,01:06:55.17,21.23,-57.10,-987.71,253.75,-682.50,-428.75,1,100.0,
01/01/2000,01:06:55.18,21.23,-57.10,-988.81,183.75,-603.75,-402.50,1,100.0,
01/01/2000,01:06:55.19,21.35,-57.10,-989.42,210.0,-691.25,-393.75,1,100.0,
01/01/2000,01:06:55.20,21.47,-57.22,-989.91,148.75,-708.75,-236.25,1,100.0,
01/01/2000,01:06:55.21,21.47,-57.10,-990.15,288.75,-787.50,-315.0,1,100.0,
01/01/2000,01:06:55.22,21.35,-57.34,-990.76,157.50,-726.25,-210.0,1,96.552,
01/01/2000,01:06:55.23,21.47,-57.34,-991.13,192.50,-700.0,-332.50,1,96.667,
01/01/2000,01:06:55.24,21.35,-57.34,-991.37,367.50,-630.0,-376.25,1,96.774,
01/01/2000,01:06:55.25,21.35,-56.85,-991.37,-35.0,-726.25,-332.50,1,96.875,
01/01/2000,01:06:55.26,21.47,-57.10,-991.25,105.0,-638.75,-227.50,1,96.970,
01/01/2000,01:06:55.27,21.47,-57.10,-991.37,183.75,-691.25,-297.50,1,97.059,
01/01/2000,01:06:55.29,21.35,-57.34,-991.74,131.25,-638.75,-393.75,1,97.143,
01/01/2000,01:06:55.30,21.47,-57.46,-991.98,131.25,-647.50,-341.25,1,97.222,
01/01/2000,01:06:55.31,21.35,-57.10,-992.35,183.75,-735.0,-393.75,1,97.297,
01/01/2000,01:06:55.32,21.47,-56.97,-992.35,96.25,-761.25,-367.50,1,97.368,
01/01/2000,01:06:55.33,21.47,-57.22,-992.10,183.75,-735.0,-288.75,1,97.436,
01/01/2000,01:06:55.34,21.35,-57.34,-992.35,96.25,-735.0,-341.25,1,97.500,
01/01/2000,01:06:55.35,21.23,-57.71,-992.84,175.0,-656.25,-411.25,1,97.561,
01/01/2000,01:06:55.36,21.23,-57.34,-993.08,140.0,-735.0,-227.50,1,97.619,
01/01/2000,01:06:55.37,21.47,-57.34,-992.84,201.25,-700.0,-341.25,1,97.674,
01/01/2000,01:06:55.38,21.35,-57.22,-992.59,183.75,-778.75,-472.50,1,97.727,
01/01/2000,01:06:55.39,21.23,-57.34,-992.59,192.50,-770.0,-245.0,1,97.778,
01/01/2000,01:06:55.40,21.23,-57.46,-992.96,166.25,-726.25,-437.50,1,97.826,
01/01/2000,01:06:55.41,21.35,-57.46,-993.20,113.75,-691.25,-446.25,1,97.872,
01/01/2000,01:06:55.42,21.35,-57.46,-993.08,96.25,-708.75,-288.75,1,97.917,
01/01/2000,01:06:55.43,21.35,-57.58,-992.71,131.25,-656.25,-455.0,1,96.0,
01/01/2000,01:06:55.44,21.35,-57.46,-992.71,131.25,-831.25,-350.0,1,96.078,
01/01/2000,01:06:55.45,21.59,-57.58,-992.84,183.75,-691.25,-297.50,1,96.154,
01/01/2000,01:06:55.47,21.59,-57.58,-993.08,43.75,-735.0,-358.75,1,96.226,
01/01/2000,01:06:55.48,21.47,-57.71,-992.71,218.75,-682.50,-367.50,1,96.296,
01/01/2000,01:06:55.49,21.47,-57.58,-992.59,175.0,-805.0,-402.50,1,96.364,
01/01/2000,01:06:55.50,21.72,-57.58,-992.59,43.75,-673.75,-218.75,1,96.429,
01/01/2000,01:06:55.51,21.84,-57.83,-992.84,157.50,-568.75,-367.50,1,96.491,
01/01/2000,01:06:55.52,21.59,-57.83,-992.96,218.75,-726.25,-402.50,1,96.552,
01/01/2000,01:06:55.53,21.47,-57.83,-992.84,262.50,-691.25,-385.0,1,96.610,
01/01/2000,01:06:55.54,21.35,-57.58,-992.71,166.25,-665.0,-297.50,1,96.667,
01/01/2000,01:06:55.55,21.35,-57.58,-992.84,43.75,-708.75,-280.0,1,96.721,
01/01/2000,01:06:55.56,21.35,-57.58,-992.84,271.25,-673.75,-253.75,1,96.774,
01/01/2000,01:06:55.57,21.35,-57.58,-993.08,96.25,-717.50,-358.75,1,95.313,
01/01/2000,01:06:55.58,21.23,-57.58,-992.84,166.25,-717.50,-358.75,1,95.385,
01/01/2000,01:06:55.59,21.23,-57.58,-992.84,148.75,-682.50,-385.0,1,95.455,
01/01/2000,01:06:55.60,21.23,-57.34,-992.84,183.75,-647.50,-323.75,1,95.522,
01/01/2000,01:06:55.61,21.23,-57.46,-992.84,70.0,-638.75,-280.0,1,95.588,
01/01/2000,01:06:55.62,21.35,-57.46,-992.84,332.50,-682.50,-341.25,1,95.652,
01/01/2000,01:06:55.63,21.23,-57.71,-993.08,288.75,-673.75,-358.75,1,95.714,
01/01/2000,01:06:55.65,21.23,-57.83,-992.96,262.50,-630.0,-385.0,1,95.775,
01/01/2000,01:06:55.66,21.72,-57.58,-992.59,70.0,-717.50,-490.0,1,95.833,
01/01/2000,01:06:55.67,21.72,-57.83,-992.47,350.0,-726.25,-96.25,1,95.890,
01/01/2000,01:06:55.68,21.59,-57.71,-992.47,52.50,-525.0,-236.25,1,95.946,
01/01/2000,01:06:55.69,20.50,-57.83,-993.32,210.0,-638.75,-227.50,1,96.0,
01/01/2000,01:06:55.70,20.74,-57.71,-993.57,87.50,-612.50,-568.75,1,96.053,
01/01/2000,01:06:55.71,21.59,-56.97,-992.84,131.25,-638.75,-341.25,1,96.104,
01/01/2000,01:06:55.72,21.72,-57.10,-992.10,175.0,-778.75,26.25,1,96.154,
01/01/2000,01:06:55.73,21.47,-57.83,-991.74,87.50,-665.0,-131.25,1,96.203,
01/01/2000,01:06:55.74,21.11,-58.19,-992.23,96.25,-595.0,-568.75,1,96.250,
01/01/2000,01:06:55.75,21.23,-57.71,-993.08,227.50,-621.25,-612.50,1,96.296,
01/01/2000,01:06:55.76,21.59,-57.10,-993.20,183.75,-656.25,-350.0,1,96.341,
01/01/2000,01:06:55.77,21.47,-56.61,-992.84,17.50,-700.0,-175.0,1,96.386,
01/01/2000,01:06:55.78,21.47,-57.10,-992.10,105.0,-647.50,-306.25,1,95.294,
01/01/2000,01:06:55.79,21.23,-57.58,-992.23,105.0,-682.50,-323.75,1,95.349,
01/01/2000,01:06:55.80,21.35,-57.83,-993.08,105.0,-656.25,-393.75,1,95.402,
01/01/2000,01:06:55.81,21.47,-57.83,-993.32,157.50,-682.50,-551.25,1,95.455,
01/01/2000,01:06:55.82,21.35,-57.22,-993.08,140.0,-665.0,-280.0,1,95.506,
01/01/2000,01:06:55.83,21.23,-56.85,-992.47,210.0,-568.75,-201.25,1,95.556,
01/01/2000,01:06:55.84,21.23,-56.85,-992.10,131.25,-770.0,-175.0,1,95.604,
01/01/2000,01:06:55.86,21.23,-57.34,-992.71,166.25,-638.75,-341.25,1,95.652,
01/01/2000,01:06:55.87,21.72,-57.71,-993.08,236.25,-621.25,-402.50,1,95.699,
01/01/2000,01:06:55.88,21.47,-57.34,-992.71,297.50,-708.75,-428.75,1,95.745,
01/01/2000,01:06:55.89,21.47,-57.22,-992.10,140.0,-621.25,-376.25,1,95.789,
01/01/2000,01:06:55.90,21.47,-57.22,-991.86,227.50,-761.25,-376.25,1,95.833,
01/01/2000,01:06:55.91,21.59,-56.97,-992.10,87.50,-691.25,-210.0,1,95.876,
01/01/2000,01:06:55.92,21.84,-57.22,-992.84,87.50,-647.50,-280.0,1,95.918,
01/01/2000,01:06:55.93,21.72,-57.58,-992.71,113.75,-700.0,-323.75,1,95.0,
01/01/2000,01:06:55.94,21.47,-57.58,-992.10,210.0,-595.0,-472.50,1,96.0,
01/01/2000,01:06:55.95,21.59,-57.58,-991.86,192.50,-805.0,-288.75,1,95.098,
01/01/2000,01:06:55.96,21.72,-57.34,-992.23,218.75,-787.50,-218.75,1,95.146,
01/01/2000,01:06:55.98,21.84,-57.34,-992.84,157.50,-752.50,-358.75,1,95.192,
01/01/2000,01:06:55.99,21.72,-57.34,-992.84,52.50,-656.25,-402.50,1,95.238,
01/01/2000,01:06:56.00,21.72,-57.34,-992.47,245.0,-700.0,-376.25,1,95.283,
01/01/2000,01:06:56.01,21.84,-57.34,-992.10,201.25,-621.25,-332.50,1,95.327,
01/01/2000,01:06:56.02,21.96,-57.46,-992.10,148.75,-612.50,-288.75,1,95.370,
01/01/2000,01:06:56.03,22.08,-57.58,-992.23,192.50,-735.0,-376.25,1,95.413,
01/01/2000,01:06:56.04,21.84,-57.58,-992.35,148.75,-656.25,-332.50,1,95.455,
01/01/2000,01:06:56.05,21.72,-57.71,-992.35,131.25,-778.75,-358.75,1,95.495,
01/01/2000,01:06:56.06,21.72,-57.46,-992.35,210.0,-638.75,-376.25,1,95.536,
01/01/2000,01:06:56.07,21.96,-57.22,-992.23,96.25,-708.75,-385.0,1,95.575,
01/01/2000,01:06:56.08,21.96,-57.34,-992.35,306.25,-726.25,-271.25,1,95.614,
01/01/2000,01:06:56.09,21.59,-57.58,-992.71,87.50,-612.50,-411.25,1,95.652,
01/01/2000,01:06:56.10,21.35,-57.71,-992.59,17.50,-665.0,-332.50,1,95.690,
01/01/2000,01:06:56.11,21.47,-57.46,-992.59,175.0,-691.25,-402.50,1,95.726,
01/01/2000,01:06:56.12,21.59,-57.22,-992.47,0.0,-665.0,-297.50,1,95.763,
01/01/2000,01:06:56.13,21.72,-57.34,-992.35,218.75,-708.75,-288.75,1,95.0,
01/01/2000,01:06:56.14,21.72,-57.46,-992.35,131.25,-735.0,-245.0,1,95.041,
01/01/2000,01:06:56.15,21.47,-57.71,-992.59,166.25,-708.75,-385.0,1,95.082,
01/01/2000,01:06:56.16,21.59,-57.71,-992.59,210.0,-708.75,-402.50,1,95.122,
01/01/2000,01:06:56.17,21.72,-57.46,-992.59,96.25,-673.75,-341.25,1,95.161,
01/01/2000,01:06:56.18,21.72,-57.22,-992.59,148.75,-700.0,-323.75,1,95.200,
01/01/2000,01:06:56.19,21.84,-57.22,-992.47,140.0,-700.0,-315.0,1,95.238,
01/01/2000,01:06:56.21,21.72,-57.46,-992.59,157.50,-630.0,-393.75,1,95.276,
01/01/2000,01:06:56.22,21.84,-57.83,-992.84,148.75,-673.75,-481.25,1,95.313,
01/01/2000,01:06:56.23,21.84,-57.58,-992.84,157.50,-735.0,-437.50,1,95.349,
01/01/2000,01:06:56.24,21.72,-57.34,-992.59,131.25,-805.0,-315.0,1,95.385,
01/01/2000,01:06:56.25,21.72,-57.22,-992.35,140.0,-743.75,-280.0,1,95.420,
01/01/2000,01:06:56.26,21.59,-57.46,-992.47,236.25,-735.0,-323.75,1,95.455,
01/01/2000,01:06:56.27,21.72,-57.46,-992.59,227.50,-656.25,-280.0,1,95.489,
01/01/2000,01:06:56.28,21.96,-57.34,-992.59,192.50,-761.25,-358.75,1,95.522,
01/01/2000,01:06:56.29,21.84,-57.34,-992.35,87.50,-673.75,-306.25,1,95.556,
01/01/2000,01:06:56.30,21.72,-57.34,-992.10,87.50,-621.25,-385.0,1,95.588,
01/01/2000,01:06:56.31,21.59,-57.22,-992.23,175.0,-665.0,-280.0,1,95.620,
01/01/2000,01:06:56.32,21.59,-57.34,-992.35,61.25,-717.50,-297.50,1,94.964,
01/01/2000,01:06:56.33,21.47,-57.46,-992.59,183.75,-665.0,-350.0,1,95.683,
01/01/2000,01:06:56.35,21.59,-57.46,-992.47,271.25,-691.25,-323.75,1,95.035,
01/01/2000,01:06:56.36,21.72,-57.46,-992.23,96.25,-665.0,-341.25,1,95.070,
01/01/2000,01:06:56.37,21.59,-57.34,-992.23,113.75,-691.25,-323.75,1,95.105,
01/01/2000,01:06:56.38,21.59,-57.34,-992.10,253.75,-595.0,-323.75,1,95.139,
01/01/2000,01:06:56.39,21.47,-57.58,-992.47,236.25,-778.75,-367.50,1,95.172,
01/01/2000,01:06:56.40,21.47,-57.58,-992.59,166.25,-735.0,-315.0,1,95.205,
01/01/2000,01:06:56.41,21.47,-57.34,-992.35,105.0,-787.50,-306.25,1,95.238,
01/01/2000,01:06:56.42,21.35,-57.34,-992.35,183.75,-831.25,-411.25,1,95.270,
01/01/2000,01:06:56.43,21.47,-57.22,-992.35,175.0,-595.0,-271.25,1,95.302,
01/01/2000,01:06:56.44,21.59,-57.22,-992.47,245.0,-770.0,-297.50,1,95.333,
01/01/2000,01:06:56.45,21.59,-57.34,-992.35,131.25,-665.0,-350.0,1,95.364,
01/01/2000,01:06:56.46,21.47,-57.34,-992.23,17.50,-700.0,-455.0,1,95.395,
01/01/2000,01:06:56.47,21.47,-57.22,-992.10,148.75,-673.75,-437.50,1,95.425,
01/01/2000,01:06:56.49,21.84,-57.22,-992.35,157.50,-700.0,-288.75,1,94.839,
01/01/2000,01:06:56.50,21.59,-57.34,-992.59,183.75,-638.75,-306.25,1,94.872,
01/01/2000,01:06:56.51,21.35,-57.34,-992.71,122.50,-726.25,-393.75,1,94.904,
01/01/2000,01:06:56.52,21.47,-57.34,-992.59,253.75,-717.50,-262.50,1,94.937,
01/01/2000,01:06:56.53,21.72,-57.10,-992.35,157.50,-700.0,-297.50,1,94.969,
01/01/2000,01:06:56.54,21.72,-57.10,-992.10,210.0,-647.50,-183.75,1,95.0,
01/01/2000,01:06:56.55,21.47,-57.34,-991.98,87.50,-665.0,-437.50,1,95.031,
01/01/2000,01:06:56.56,21.35,-57.46,-992.10,245.0,-691.25,-376.25,1,95.062,
01/01/2000,01:06:56.57,21.35,-57.46,-992.35,122.50,-612.50,-490.0,1,95.092,
01/01/2000,01:06:56.58,21.47,-57.22,-992.47,315.0,-577.50,-341.25,1,95.122,
01/01/2000,01:06:56.59,21.47,-56.97,-992.47,140.0,-770.0,-227.50,1,95.152,
01/01/2000,01:06:56.60,21.35,-57.22,-992.35,157.50,-805.0,-210.0,1,95.181,
01/01/2000,01:06:56.61,21.23,-57.46,-992.47,201.25,-840.0,-297.50,1,95.210,
01/01/2000,01:06:56.62,21.35,-57.58,-992.35,43.75,-691.25,-358.75,1,95.238,
01/01/2000,01:06:56.63,21.59,-57.58,-992.35,140.0,-647.50,-463.75,1,95.266,
01/01/2000,01:06:56.64,21.59,-57.34,-992.35,218.75,-691.25,-411.25,1,94.737,
01/01/2000,01:06:56.65,21.72,-57.22,-992.35,280.0,-735.0,-262.50,1,95.322,
01/01/2000,01:06:56.66,21.72,-57.34,-992.47,245.0,-621.25,-175.0,1,94.798,
01/01/2000,01:06:56.67,21.47,-57.34,-992.59,131.25,-708.75,-288.75,1,94.828,
01/01/2000,01:06:56.68,21.72,-57.46,-992.59,192.50,-717.50,-420.0,1,94.857,
01/01/2000,01:06:56.69,21.72,-57.34,-992.35,210.0,-656.25,-288.75,1,94.886,
01/01/2000,01:06:56.71,21.59,-57.10,-991.98,227.50,-831.25,-341.25,1,94.915,
01/01/2000,01:06:56.72,21.47,-57.22,-992.10,157.50,-700.0,-341.25,1,94.944,
01/01/2000,01:06:56.73,21.47,-57.10,-992.23,131.25,-647.50,-332.50,1,94.972,
01/01/2000,01:06:56.74,21.72,-57.34,-992.47,192.50,-673.75,-358.75,1,95.0,
01/01/2000,01:06:56.75,21.84,-57.10,-992.35,192.50,-665.0,-280.0,1,95.028,
01/01/2000,01:06:56.76,21.96,-57.10,-992.23,148.75,-647.50,-315.0,1,95.055,
01/01/2000,01:06:56.77,21.72,-57.34,-991.86,201.25,-673.75,-350.0,1,95.082,
01/01/2000,01:06:56.78,21.72,-57.34,-991.86,166.25,-735.0,-393.75,1,95.109,
01/01/2000,01:06:56.79,21.47,-57.10,-992.10,70.0,-638.75,-376.25,1,95.135,
01/01/2000,01:06:56.80,21.47,-56.97,-991.98,157.50,-796.25,-385.0,1,95.161,
01/01/2000,01:06:56.81,21.35,-57.10,-991.62,183.75,-577.50,-350.0,1,95.187,
01/01/2000,01:06:56.82,21.23,-57.10,-991.62,131.25,-735.0,-315.0,1,95.213,
01/01/2000,01:06:56.83,21.47,-57.34,-991.74,131.25,-691.25,-288.75,1,95.238,
01/01/2000,01:06:56.84,21.59,-57.34,-991.98,175.0,-691.25,-393.75,1,94.764,
01/01/2000,01:06:56.85,21.59,-57.10,-992.10,218.75,-682.50,-358.75,1,94.792,
01/01/2000,01:06:56.86,21.47,-57.10,-991.86,262.50,-717.50,-280.0,1,94.819,
01/01/2000,01:06:56.87,21.35,-56.97,-991.74,105.0,-761.25,-315.0,1,94.845,
01/01/2000,01:06:56.88,21.59,-57.22,-991.86,8.75,-796.25,-376.25,1,94.872,
01/01/2000,01:06:56.89,21.72,-57.34,-991.98,183.75,-691.25,-358.75,1,94.898,
01/01/2000,01:06:56.90,21.47,-57.46,-991.86,166.25,-682.50,-306.25,1,94.924,
01/01/2000,01:06:56.92,21.23,-57.34,-991.62,245.0,-673.75,-376.25,1,94.949,
01/01/2000,01:06:56.93,21.35,-57.34,-991.62,218.75,-708.75,-350.0,1,94.975,
01/01/2000,01:06:56.94,21.47,-57.10,-991.74,0.0,-656.25,-323.75,1,95.0,
01/01/2000,01:06:56.95,21.59,-57.22,-991.86,148.75,-691.25,-323.75,1,95.025,
01/01/2000,01:06:56.96,21.47,-57.34,-991.86,175.0,-551.25,-341.25,1,95.050,
01/01/2000,01:06:56.97,21.47,-57.34,-991.74,166.25,-656.25,-332.50,1,95.074,
01/01/2000,01:06:56.98,21.35,-57.46,-991.86,315.0,-743.75,-350.0,1,95.098,
01/01/2000,01:06:57.00,21.59,-57.10,-992.10,26.25,-708.75,-393.75,1,94.660,
01/01/2000,01:06:57.01,21.72,-57.10,-991.98,253.75,-577.50,-341.25,1,94.686,
01/01/2000,01:06:57.02,21.47,-57.10,-991.86,78.75,-717.50,-148.75,1,94.712,
01/01/2000,01:06:57.03,21.59,-57.34,-991.86,35.0,-708.75,-437.50,1,94.737,
01/01/2000,01:06:57.04,21.47,-57.22,-992.10,113.75,-612.50,-306.25,1,94.762,
01/01/2000,01:06:57.05,21.59,-57.10,-992.10,148.75,-630.0,-350.0,1,94.787,
01/01/2000,01:06:57.06,21.72,-56.97,-992.10,271.25,-761.25,-323.75,1,94.811,
01/01/2000,01:06:57.07,21.47,-56.85,-992.10,52.50,-761.25,-245.0,1,94.836,
01/01/2000,01:06:57.08,21.47,-57.22,-992.10,201.25,-621.25,-420.0,1,94.860,
01/01/2000,01:06:57.09,21.47,-57.22,-992.10,245.0,-726.25,-280.0,1,94.884,
01/01/2000,01:06:57.10,21.72,-57.34,-992.35,166.25,-726.25,-315.0,1,94.907,
01/01/2000,01:06:57.11,21.59,-57.34,-992.35,332.50,-630.0,-402.50,1,94.931,
01/01/2000,01:06:57.12,21.47,-57.22,-992.35,52.50,-638.75,-280.0,1,94.954,
01/01/2000,01:06:57.13,21.47,-57.10,-992.35,148.75,-717.50,-376.25,1,94.977,
01/01/2000,01:06:57.14,21.59,-56.97,-992.35,210.0,-673.75,-306.25,1,95.0,
01/01/2000,01:06:57.15,21.59,-57.10,-992.35,96.25,-665.0,-332.50,1,95.023,
01/01/2000,01:06:57.16,21.72,-57.34,-992.47,306.25,-682.50,-271.25,1,95.045,
01/01/2000,01:06:57.17,21.59,-57.46,-992.35,26.25,-691.25,-358.75,1,95.067,
01/01/2000,01:06:57.18,21.59,-57.34,-992.35,210.0,-787.50,-350.0,1,95.089,
01/01/2000,01:06:57.19,21.47,-57.34,-992.23,192.50,-840.0,-358.75,1,94.690,
01/01/2000,01:06:57.20,21.59,-57.22,-992.23,113.75,-726.25,-341.25,1,94.714,
01/01/2000,01:06:57.21,21.72,-57.34,-992.10,236.25,-700.0,-341.25,1,94.737,
01/01/2000,01:06:57.22,21.59,-57.46,-992.10,52.50,-665.0,-463.75,1,94.760,
01/01/2000,01:06:57.23,21.47,-57.58,-992.10,131.25,-743.75,-446.25,1,94.783,
01/01/2000,01:06:57.24,21.47,-57.58,-992.23,70.0,-630.0,-350.0,1,94.805,
01/01/2000,01:06:57.25,21.47,-57.34,-992.10,157.50,-752.50,-350.0,1,94.828,
01/01/2000,01:06:57.27,21.47,-57.46,-992.10,148.75,-691.25,-323.75,1,94.850,
01/01/2000,01:06:57.28,21.47,-57.46,-992.10,87.50,-673.75,-376.25,1,94.872,
01/01/2000,01:06:57.29,21.47,-57.58,-992.10,183.75,-770.0,-341.25,1,94.894,
01/01/2000,01:06:57.30,21.47,-57.46,-992.23,148.75,-656.25,-297.50,1,94.915,
01/01/2000,01:06:57.31,21.47,-57.46,-992.35,17.50,-743.75,-253.75,1,94.937,
01/01/2000,01:06:57.32,21.47,-57.58,-992.35,201.25,-621.25,-323.75,1,94.958,
01/01/2000,01:06:57.33,21.47,-57.58,-992.10,183.75,-691.25,-297.50,1,94.979,
01/01/2000,01:06:57.34,21.47,-57.58,-992.10,157.50,-638.75,-306.25,1,95.0,
01/01/2000,01:06:57.35,21.59,-57.58,-992.35,192.50,-735.0,-288.75,1,95.021,
01/01/2000,01:06:57.36,21.47,-57.58,-992.47,175.0,-700.0,-306.25,1,95.041,
01/01/2000,01:06:57.37,21.47,-57.34,-992.35,52.50,-708.75,-271.25,1,95.062,
01/01/2000,01:06:57.38,21.47,-57.34,-992.35,245.0,-691.25,-332.50,1,95.082,
01/01/2000,01:06:57.39,21.35,-57.34,-992.35,35.0,-708.75,-271.25,1,94.715,
01/01/2000,01:06:57.41,21.35,-57.46,-992.59,183.75,-673.75,-350.0,1,94.737,
01/01/2000,01:06:57.42,21.47,-57.58,-992.59,96.25,-717.50,-306.25,1,94.758,
01/01/2000,01:06:57.43,21.35,-57.58,-992.59,157.50,-700.0,-323.75,1,94.779,
01/01/2000,01:06:57.44,21.47,-57.58,-992.59,166.25,-778.75,-411.25,1,94.800,
01/01/2000,01:06:57.45,21.47,-57.34,-992.71,227.50,-673.75,-315.0,1,94.821,
01/01/2000,01:06:57.46,21.47,-57.34,-992.84,52.50,-770.0,-297.50,1,94.841,
01/01/2000,01:06:57.47,21.47,-57.46,-992.84,210.0,-621.25,-402.50,1,94.862,
01/01/2000,01:06:57.48,21.35,-57.58,-992.84,262.50,-752.50,-341.25,1,94.882,
01/01/2000,01:06:57.49,21.47,-57.58,-992.59,8.75,-603.75,-297.50,1,94.902,
01/01/2000,01:06:57.50,21.47,-57.22,-992.47,140.0,-735.0,-297.50,1,94.553,
01/01/2000,01:06:57.51,21.35,-57.34,-992.47,148.75,-752.50,-358.75,1,94.574,
01/01/2000,01:06:57.52,21.35,-57.22,-992.35,131.25,-621.25,-341.25,1,94.595,
01/01/2000,01:06:57.53,21.23,-57.22,-992.10,236.25,-665.0,-332.50,1,94.615,
01/01/2000,01:06:57.54,21.35,-57.34,-992.23,78.75,-708.75,-280.0,1,94.636,
01/01/2000,01:06:57.56,21.35,-57.71,-992.59,218.75,-630.0,-288.75,1,94.656,
01/01/2000,01:06:57.57,21.35,-57.58,-992.84,87.50,-726.25,-350.0,1,94.677,
01/01/2000,01:06:57.58,21.47,-57.58,-992.71,52.50,-638.75,-358.75,1,94.697,
01/01/2000,01:06:57.59,21.35,-57.58,-992.35,236.25,-682.50,-315.0,1,94.717,
01/01/2000,01:06:57.60,21.23,-57.58,-992.47,210.0,-717.50,-262.50,1,94.737,
01/01/2000,01:06:57.61,21.23,-57.58,-992.59,140.0,-682.50,-280.0,1,94.757,
01/01/2000,01:06:57.62,21.35,-57.58,-992.71,140.0,-770.0,-385.0,1,94.776,
01/01/2000,01:06:57.63,21.47,-57.58,-992.71,140.0,-691.25,-253.75,1,94.796,
01/01/2000,01:06:57.64,21.47,-57.83,-992.59,218.75,-673.75,-420.0,1,94.815,
01/01/2000,01:06:57.65,21.47,-57.71,-992.59,131.25,-621.25,-315.0,1,94.834,
01/01/2000,01:06:57.66,21.59,-57.58,-992.59,8.75,-673.75,-341.25,1,94.853,
01/01/2000,01:06:57.67,21.59,-57.58,-992.71,218.75,-735.0,-288.75,1,94.872,
01/01/2000,01:06:57.68,21.47,-57.58,-992.47,140.0,-796.25,-280.0,1,94.891,
01/01/2000,01:06:57.69,21.35,-57.71,-992.47,131.25,-726.25,-393.75,1,94.909,
01/01/2000,01:06:57.70,21.23,-57.46,-992.59,157.50,-700.0,-350.0,1,94.928,
01/01/2000,01:06:57.71,21.23,-57.34,-992.71,306.25,-682.50,-288.75,1,94.946,
01/01/2000,01:06:57.72,21.35,-57.46,-992.84,113.75,-726.25,-227.50,1,94.964,
01/01/2000,01:06:57.73,21.23,-57.46,-992.96,52.50,-682.50,-341.25,1,94.982,
01/01/2000,01:06:57.74,21.47,-57.58,-992.84,96.25,-717.50,-280.0,1,95.0,
01/01/2000,01:06:57.75,21.35,-57.83,-992.84,157.50,-647.50,-367.50,1,95.018,
01/01/2000,01:06:57.76,21.35,-57.71,-992.59,87.50,-665.0,-350.0,1,94.700,
01/01/2000,01:06:57.77,21.47,-57.58,-992.71,131.25,-752.50,-315.0,1,94.718,
01/01/2000,01:06:57.78,21.35,-57.46,-992.84,227.50,-612.50,-192.50,1,94.737,
01/01/2000,01:06:57.79,21.47,-57.83,-992.84,87.50,-708.75,-350.0,1,94.755,
01/01/2000,01:06:57.80,21.47,-57.71,-992.84,192.50,-752.50,-411.25,1,94.774,
01/01/2000,01:06:57.81,21.47,-57.83,-992.71,253.75,-682.50,-227.50,1,94.792,
01/01/2000,01:06:57.83,21.72,-57.95,-992.71,218.75,-761.25,-341.25,1,94.810,
01/01/2000,01:06:57.84,21.59,-57.58,-992.71,166.25,-787.50,-332.50,1,94.828,
01/01/2000,01:06:57.85,21.72,-57.34,-992.59,122.50,-656.25,-297.50,1,94.845,
01/01/2000,01:06:57.86,21.59,-57.34,-992.59,157.50,-682.50,-323.75,1,94.863,
01/01/2000,01:06:57.87,21.59,-57.22,-992.59,131.25,-647.50,-315.0,1,94.881,
01/01/2000,01:06:57.88,21.72,-57.46,-992.59,140.0,-787.50,-306.25,1,94.898,
01/01/2000,01:06:57.89,21.84,-57.58,-992.71,218.75,-656.25,-271.25,1,94.915,
01/01/2000,01:06:57.90,21.72,-57.58,-992.59,297.50,-770.0,-341.25,1,94.932,
01/01/2000,01:06:57.91,21.59,-57.46,-992.59,183.75,-612.50,-367.50,1,94.949,
01/01/2000,01:06:57.92,21.72,-57.34,-992.59,70.0,-805.0,-306.25,1,94.966,
01/01/2000,01:06:57.93,21.84,-57.22,-992.71,227.50,-612.50,-350.0,1,94.983,
01/01/2000,01:06:57.94,21.72,-57.46,-992.71,157.50,-621.25,-332.50,1,95.0,
01/01/2000,01:06:57.95,21.47,-57.58,-992.59,122.50,-603.75,-323.75,1,95.017,
01/01/2000,01:06:57.96,21.47,-57.58,-992.59,192.50,-700.0,-376.25,1,95.033,
01/01/2000,01:06:57.98,21.59,-57.46,-992.59,166.25,-726.25,-437.50,1,94.737,
01/01/2000,01:06:57.98,21.59,-57.34,-992.71,192.50,-586.25,-358.75,1,94.754,
01/01/2000,01:06:58.00,21.47,-57.34,-992.71,96.25,-691.25,-280.0,1,94.771,
01/01/2000,01:06:58.01,21.59,-57.46,-992.59,236.25,-647.50,-332.50,1,94.788,
01/01/2000,01:06:58.02,21.72,-57.58,-992.59,166.25,-682.50,-350.0,1,94.805,
01/01/2000,01:06:58.03,21.84,-57.58,-992.59,-8.75,-708.75,-332.50,1,94.822,
01/01/2000,01:06:58.04,21.72,-57.58,-992.84,253.75,-603.75,-420.0,1,94.839,
01/01/2000,01:06:58.05,21.59,-57.46,-992.71,210.0,-665.0,-376.25,1,94.855,
01/01/2000,01:06:58.06,21.72,-57.46,-992.59,157.50,-665.0,-472.50,1,94.872,
01/01/2000,01:06:58.07,21.47,-57.22,-992.84,148.75,-577.50,-341.25,1,94.888,
01/01/2000,01:06:58.08,21.59,-57.46,-992.71,105.0,-630.0,-350.0,1,94.904,
01/01/2000,01:06:58.09,21.47,-57.46,-992.71,236.25,-717.50,-280.0,1,94.620,
01/01/2000,01:06:58.10,21.47,-57.46,-992.84,210.0,-656.25,-358.75,1,94.937,
01/01/2000,01:06:58.11,21.47,-57.83,-992.96,140.0,-691.25,-411.25,1,94.654,
01/01/2000,01:06:58.12,21.47,-57.58,-993.08,148.75,-778.75,-323.75,1,94.671,
01/01/2000,01:06:58.13,21.59,-57.34,-993.08,140.0,-717.50,-428.75,1,94.688,
01/01/2000,01:06:58.14,21.72,-57.34,-992.71,70.0,-691.25,-350.0,1,94.704,
01/01/2000,01:06:58.15,21.47,-57.34,-992.59,218.75,-682.50,-350.0,1,94.720,
01/01/2000,01:06:58.16,21.72,-57.58,-992.35,227.50,-665.0,-385.0,1,94.737,
01/01/2000,01:06:58.18,21.35,-57.58,-992.59,183.75,-560.0,-446.25,1,94.753,
01/01/2000,01:06:58.19,21.72,-57.83,-992.59,61.25,-708.75,-376.25,1,94.769,
01/01/2000,01:06:58.20,21.72,-57.83,-992.59,323.75,-770.0,-358.75,1,94.785,
01/01/2000,01:06:58.21,21.35,-57.22,-992.71,-26.25,-735.0,-87.50,1,94.801,
01/01/2000,01:06:58.22,21.47,-58.07,-992.71,183.75,-700.0,-551.25,1,94.817,
01/01/2000,01:06:58.23,21.23,-57.83,-992.96,175.0,-708.75,-420.0,1,94.833,
01/01/2000,01:06:58.24,21.47,-57.71,-992.84,52.50,-638.75,-385.0,1,94.848,
01/01/2000,01:06:58.25,21.47,-57.71,-992.59,236.25,-638.75,-358.75,1,94.864,
01/01/2000,01:06:58.26,21.11,-57.34,-992.59,113.75,-647.50,-245.0,1,94.880,
01/01/2000,01:06:58.27,21.35,-57.58,-992.59,157.50,-568.75,-446.25,1,94.895,
01/01/2000,01:06:58.28,21.59,-57.58,-992.71,297.50,-805.0,-306.25,1,94.910,
01/01/2000,01:06:58.29,21.72,-57.58,-992.71,8.75,-682.50,-262.50,1,94.925,
01/01/2000,01:06:58.30,21.72,-58.07,-992.47,236.25,-752.50,-297.50,1,94.940,
01/01/2000,01:06:58.31,21.47,-57.83,-992.47,87.50,-822.50,-236.25,1,94.955,
01/01/2000,01:06:58.32,21.72,-57.58,-992.71,113.75,-568.75,-385.0,1,94.690,
01/01/2000,01:06:58.33,21.72,-57.34,-992.96,113.75,-700.0,-315.0,1,94.706,
01/01/2000,01:06:58.35,21.47,-57.34,-992.84,-43.75,-708.75,-227.50,1,94.721,
01/01/2000,01:06:58.35,21.72,-57.83,-992.59,227.50,-638.75,-385.0,1,94.737,
01/01/2000,01:06:58.37,21.23,-57.58,-992.59,236.25,-708.75,-288.75,1,94.752,
01/01/2000,01:06:58.38,21.72,-57.34,-992.59,201.25,-708.75,-306.25,1,94.767,
01/01/2000,01:06:58.39,21.72,-57.58,-992.59,183.75,-621.25,-402.50,1,94.783,
01/01/2000,01:06:58.40,21.47,-57.34,-992.59,61.25,-796.25,-140.0,1,94.798,
01/01/2000,01:06:58.41,21.59,-57.58,-992.59,157.50,-612.50,-490.0,1,94.813,
01/01/2000,01:06:58.42,21.23,-57.34,-992.84,227.50,-752.50,-210.0,1,94.828,
01/01/2000,01:06:58.43,21.59,-57.46,-992.71,43.75,-638.75,-385.0,1,94.842,
01/01/2000,01:06:58.44,21.84,-57.83,-992.59,306.25,-735.0,-411.25,1,94.857,
01/01/2000,01:06:58.45,21.59,-57.46,-992.35,-96.25,-691.25,-253.75,1,94.872,
01/01/2000,01:06:58.46,21.59,-57.83,-992.35,253.75,-770.0,-463.75,1,94.618,
01/01/2000,01:06:58.47,21.35,-57.58,-992.59,131.25,-752.50,-385.0,1,94.633,
01/01/2000,01:06:58.48,21.59,-57.22,-992.59,52.50,-665.0,-332.50,1,94.648,
01/01/2000,01:06:58.49,21.84,-57.46,-992.59,358.75,-673.75,-332.50,1,94.663,
01/01/2000,01:06:58.50,21.59,-57.34,-992.47,-8.75,-621.25,-297.50,1,94.678,
01/01/2000,01:06:58.51,21.59,-57.83,-992.23,166.25,-630.0,-332.50,1,94.693,
01/01/2000,01:06:58.52,21.47,-57.71,-992.23,245.0,-761.25,-393.75,1,94.708,
01/01/2000,01:06:58.54,21.59,-57.58,-992.59,70.0,-691.25,-306.25,1,94.722,
01/01/2000,01:06:58.55,21.35,-57.46,-992.59,183.75,-656.25,-253.75,1,94.475,
01/01/2000,01:06:58.56,21.11,-57.58,-992.59,52.50,-691.25,-245.0,1,94.751,
01/01/2000,01:06:58.57,21.47,-57.83,-992.59,323.75,-761.25,-358.75,1,94.505,
01/01/2000,01:06:58.58,21.23,-57.58,-992.71,96.25,-673.75,-280.0,1,94.521,
01/01/2000,01:06:58.59,21.47,-57.83,-992.84,-17.50,-656.25,-306.25,1,94.536,
01/01/2000,01:06:58.60,21.47,-57.34,-992.59,262.50,-708.75,-437.50,1,94.550,
01/01/2000,01:06:58.61,21.23,-57.22,-992.35,105.0,-752.50,-288.75,1,94.565,
01/01/2000,01:06:58.62,21.11,-57.34,-992.35,236.25,-665.0,-358.75,1,94.580,
01/01/2000,01:06:58.63,21.11,-57.34,-992.47,218.75,-682.50,-245.0,1,94.595,
01/01/2000,01:06:58.64,21.47,-57.34,-992.84,87.50,-708.75,-262.50,1,94.609,
01/01/2000,01:06:58.65,21.59,-57.71,-992.84,210.0,-656.25,-376.25,1,94.624,
01/01/2000,01:06:58.66,21.47,-57.58,-992.71,148.75,-805.0,-323.75,1,94.638,
01/01/2000,01:06:58.68,21.35,-57.58,-992.59,210.0,-673.75,-507.50,1,94.652,
01/01/2000,01:06:58.69,21.47,-57.34,-992.84,175.0,-743.75,-350.0,1,94.667,
01/01/2000,01:06:58.70,21.59,-57.22,-992.84,61.25,-700.0,-306.25,1,94.681,
01/01/2000,01:06:58.71,21.72,-57.46,-992.71,192.50,-656.25,-358.75,1,94.695,
01/01/2000,01:06:58.72,21.59,-57.71,-992.35,210.0,-682.50,-315.0,1,94.709,
01/01/2000,01:06:58.73,21.59,-57.71,-992.23,122.50,-822.50,-341.25,1,94.723,
01/01/2000,01:06:58.74,21.59,-57.83,-992.47,218.75,-708.75,-428.75,1,94.737,
01/01/2000,01:06:58.75,21.59,-57.22,-992.84,87.50,-630.0,-218.75,1,94.751,
01/01/2000,01:06:58.76,21.59,-57.34,-992.84,96.25,-761.25,-367.50,1,94.764,
01/01/2000,01:06:58.77,21.47,-57.22,-992.59,131.25,-761.25,-218.75,1,94.778,
01/01/2000,01:06:58.78,21.47,-57.34,-992.47,61.25,-673.75,-367.50,1,94.792,
01/01/2000,01:06:58.79,21.72,-57.58,-992.71,78.75,-700.0,-271.25,1,94.805,
01/01/2000,01:06:58.80,21.72,-57.58,-992.96,192.50,-743.75,-402.50,1,94.819,
01/01/2000,01:06:58.81,21.84,-57.83,-992.71,236.25,-621.25,-385.0,1,94.588,
01/01/2000,01:06:58.82,21.59,-57.58,-992.35,78.75,-752.50,-271.25,1,94.602,
01/01/2000,01:06:58.83,21.47,-57.34,-992.35,157.50,-586.25,-332.50,1,94.615,
01/01/2000,01:06:58.84,21.11,-57.34,-992.47,236.25,-638.75,-341.25,1,94.629,
01/01/2000,01:06:58.85,21.23,-57.10,-992.71,-43.75,-638.75,-306.25,1,94.643,
01/01/2000,01:06:58.86,21.47,-57.46,-992.71,297.50,-665.0,-367.50,1,94.656,
01/01/2000,01:06:58.87,21.35,-57.34,-992.71,157.50,-673.75,-297.50,1,94.670,
01/01/2000,01:06:58.89,21.23,-57.83,-992.84,96.25,-682.50,-420.0,1,94.684,
01/01/2000,01:06:58.90,21.23,-57.71,-993.32,113.75,-673.75,-376.25,1,94.697,
01/01/2000,01:06:58.91,21.47,-57.22,-993.57,166.25,-682.50,-306.25,1,94.710,
01/01/2000,01:06:58.92,21.59,-57.46,-993.08,166.25,-770.0,-192.50,1,94.724,
01/01/2000,01:06:58.93,20.98,-57.46,-992.59,166.25,-656.25,-280.0,1,94.737,
01/01/2000,01:06:58.94,21.11,-57.46,-992.23,157.50,-682.50,-332.50,1,94.750,
01/01/2000,01:06:58.95,21.23,-57.46,-992.35,323.75,-735.0,-463.75,1,94.763,
01/01/2000,01:06:58.96,21.47,-57.58,-992.84,43.75,-726.25,-105.0,1,94.776,
01/01/2000,01:06:58.97,21.47,-57.83,-992.96,367.50,-708.75,-472.50,1,94.789,
01/01/2000,01:06:58.98,21.23,-57.34,-992.84,70.0,-743.75,-411.25,1,94.802,
01/01/2000,01:06:58.99,21.47,-57.34,-992.59,35.0,-717.50,-385.0,1,94.815,
01/01/2000,01:06:59.00,21.72,-57.46,-992.59,271.25,-708.75,-315.0,1,94.828,
01/01/2000,01:06:59.01,21.59,-57.10,-992.59,78.75,-630.0,-201.25,1,94.840,
01/01/2000,01:06:59.02,21.72,-57.34,-992.35,376.25,-638.75,-472.50,1,94.621,
01/01/2000,01:06:59.04,21.35,-57.10,-992.59,183.75,-682.50,-262.50,1,94.634,
01/01/2000,01:06:59.05,21.59,-57.22,-992.59,96.25,-761.25,-385.0,1,94.647,
01/01/2000,01:06:59.06,21.72,-57.22,-992.71,166.25,-735.0,-420.0,1,94.660,
01/01/2000,01:06:59.07,21.72,-57.46,-992.71,140.0,-717.50,-297.50,1,94.673,
01/01/2000,01:06:59.08,21.72,-57.58,-992.59,271.25,-726.25,-420.0,1,94.686,
01/01/2000,01:06:59.09,21.47,-57.34,-992.59,35.0,-542.50,-297.50,1,94.699,
01/01/2000,01:06:59.10,21.72,-57.34,-992.47,358.75,-665.0,-315.0,1,94.712,
01/01/2000,01:06:59.11,21.72,-57.10,-992.59,70.0,-691.25,-385.0,1,94.724,
01/01/2000,01:06:59.12,21.72,-57.22,-992.71,26.25,-656.25,-122.50,1,94.737,
01/01/2000,01:06:59.13,21.72,-57.58,-992.71,218.75,-656.25,-411.25,1,94.749,
01/01/2000,01:06:59.14,21.72,-57.34,-992.84,113.75,-691.25,-288.75,1,94.537,
01/01/2000,01:06:59.15,21.96,-57.46,-992.59,140.0,-682.50,-385.0,1,94.774,
01/01/2000,01:06:59.16,21.84,-57.46,-992.59,113.75,-813.75,-393.75,1,94.563,
01/01/2000,01:06:59.17,21.47,-57.22,-992.59,26.25,-638.75,-236.25,1,94.575,
01/01/2000,01:06:59.18,21.47,-57.46,-992.59,140.0,-770.0,-463.75,1,94.588,
01/01/2000,01:06:59.19,21.35,-57.22,-992.47,113.75,-691.25,-367.50,1,94.601,
01/01/2000,01:06:59.20,21.35,-57.34,-992.47,87.50,-656.25,-385.0,1,94.614,
01/01/2000,01:06:59.21,21.47,-57.58,-992.71,297.50,-612.50,-288.75,1,94.626,
01/01/2000,01:06:59.22,21.47,-57.46,-992.84,175.0,-673.75,-323.75,1,94.639,
01/01/2000,01:06:59.24,21.72,-57.58,-992.71,140.0,-603.75,-245.0,1,94.651,
01/01/2000,01:06:59.25,21.47,-57.46,-992.59,140.0,-665.0,-420.0,1,94.664,
01/01/2000,01:06:59.26,21.47,-57.34,-992.47,131.25,-647.50,-323.75,1,94.676,
01/01/2000,01:06:59.27,21.47,-57.22,-992.35,87.50,-612.50,-367.50,1,94.688,
01/01/2000,01:06:59.28,21.59,-57.22,-992.23,96.25,-735.0,-271.25,1,94.700,
01/01/2000,01:06:59.29,21.59,-57.46,-992.47,122.50,-560.0,-288.75,1,94.713,
01/01/2000,01:06:59.30,21.47,-57.46,-992.59,122.50,-735.0,-245.0,1,94.725,
01/01/2000,01:06:59.31,21.47,-57.46,-992.59,148.75,-691.25,-420.0,1,94.737,
01/01/2000,01:06:59.32,21.23,-57.34,-992.59,271.25,-647.50,-297.50,1,94.749,
01/01/2000,01:06:59.33,21.23,-57.22,-992.47,131.25,-761.25,-402.50,1,94.761,
01/01/2000,01:06:59.34,21.23,-57.22,-992.47,131.25,-813.75,-280.0,1,94.773,
01/01/2000,01:06:59.35,21.47,-57.10,-992.59,183.75,-612.50,-218.75,1,94.785,
01/01/2000,01:06:59.36,21.47,-57.46,-992.59,131.25,-595.0,-271.25,1,94.796,
01/01/2000,01:06:59.37,21.35,-57.58,-992.59,35.0,-586.25,-393.75,1,94.808,
01/01/2000,01:06:59.38,21.35,-57.34,-992.35,61.25,-778.75,-428.75,1,94.607,
01/01/2000,01:06:59.40,21.35,-57.22,-992.47,201.25,-621.25,-376.25,1,94.619,
01/01/2000,01:06:59.40,21.35,-57.10,-992.47,183.75,-717.50,-201.25,1,94.631,
01/01/2000,01:06:59.42,21.23,-57.34,-992.35,210.0,-673.75,-288.75,1,94.643,
01/01/2000,01:06:59.43,21.11,-57.34,-992.35,201.25,-673.75,-332.50,1,94.655,
01/01/2000,01:06:59.44,21.23,-57.34,-992.35,210.0,-752.50,-402.50,1,94.667,
01/01/2000,01:06:59.45,21.35,-57.58,-992.71,122.50,-735.0,-402.50,1,94.678,
01/01/2000,01:06:59.46,21.23,-57.46,-992.71,175.0,-665.0,-323.75,1,94.690,
01/01/2000,01:06:59.47,21.23,-57.34,-992.59,227.50,-612.50,-402.50,1,94.702,
01/01/2000,01:06:59.48,21.35,-57.10,-992.59,218.75,-665.0,-271.25,1,94.714,
01/01/2000,01:06:59.49,21.47,-57.34,-992.59,192.50,-761.25,-315.0,1,94.725,
01/01/2000,01:06:59.50,21.72,-57.34,-992.47,183.75,-770.0,-393.75,1,94.737,
01/01/2000,01:06:59.51,21.72,-57.34,-992.35,245.0,-647.50,-350.0,1,94.748,
01/01/2000,01:06:59.52,21.47,-57.22,-991.98,183.75,-673.75,-402.50,1,94.553,
01/01/2000,01:06:59.53,21.35,-57.10,-992.35,192.50,-630.0,-306.25,1,94.565,
01/01/2000,01:06:59.54,21.59,-56.97,-992.59,113.75,-577.50,-218.75,1,94.577,
01/01/2000,01:06:59.55,21.84,-57.10,-992.59,157.50,-700.0,-271.25,1,94.589,
01/01/2000,01:06:59.57,21.59,-57.34,-991.98,245.0,-743.75,-332.50,1,94.600,
01/01/2000,01:06:59.58,21.47,-57.46,-991.98,183.75,-700.0,-385.0,1,94.612,
01/01/2000,01:06:59.59,21.59,-57.34,-992.10,122.50,-647.50,-358.75,1,94.421,
01/01/2000,01:06:59.60,21.72,-57.22,-992.10,175.0,-638.75,-315.0,1,94.635,
01/01/2000,01:06:59.61,21.47,-57.10,-992.10,157.50,-700.0,-350.0,1,94.444,
01/01/2000,01:06:59.62,21.47,-57.10,-992.10,87.50,-595.0,-288.75,1,94.456,
01/01/2000,01:06:59.63,21.72,-57.34,-992.23,175.0,-770.0,-341.25,1,94.468,
01/01/2000,01:06:59.64,22.08,-57.46,-992.59,87.50,-787.50,-385.0,1,94.480,
01/01/2000,01:06:59.65,22.20,-57.46,-992.71,297.50,-700.0,-323.75,1,94.492,
01/01/2000,01:06:59.66,22.08,-57.34,-992.59,236.25,-700.0,-358.75,1,94.503,
01/01/2000,01:06:59.67,21.47,-57.10,-992.23,105.0,-682.50,-446.25,1,94.515,
01/01/2000,01:06:59.68,21.47,-56.97,-992.10,52.50,-743.75,-358.75,1,94.526,
01/01/2000,01:06:59.69,21.47,-56.85,-992.10,183.75,-638.75,-341.25,1,94.538,
01/01/2000,01:06:59.70,21.59,-56.85,-992.10,-17.50,-630.0,-253.75,1,94.549,
01/01/2000,01:06:59.71,21.35,-57.22,-992.47,236.25,-682.50,-341.25,1,94.561,
01/01/2000,01:06:59.72,21.47,-57.22,-992.47,17.50,-586.25,-376.25,1,94.572,
01/01/2000,01:06:59.74,21.72,-57.10,-992.47,192.50,-787.50,-481.25,1,94.583,
01/01/2000,01:06:59.75,21.84,-56.85,-992.47,17.50,-770.0,-341.25,1,94.595,
01/01/2000,01:06:59.76,21.84,-57.34,-992.35,113.75,-691.25,-332.50,1,94.606,
01/01/2000,01:06:59.77,21.47,-57.10,-992.35,78.75,-735.0,-323.75,1,94.617,
01/01/2000,01:06:59.78,21.47,-57.34,-992.23,183.75,-612.50,-306.25,1,94.628,
01/01/2000,01:06:59.79,21.59,-57.10,-992.10,192.50,-735.0,-376.25,1,94.639,
01/01/2000,01:06:59.80,21.59,-57.22,-992.23,166.25,-577.50,-323.75,1,94.650,
01/01/2000,01:06:59.81,21.35,-57.46,-992.35,262.50,-796.25,-332.50,1,94.661,
01/01/2000,01:06:59.82,21.11,-57.34,-992.47,236.25,-595.0,-428.75,1,94.672,
01/01/2000,01:06:59.83,21.35,-57.34,-992.35,227.50,-612.50,-350.0,1,94.683,
01/01/2000,01:06:59.84,21.59,-57.10,-992.23,131.25,-630.0,-332.50,1,94.694,
01/01/2000,01:06:59.85,21.59,-57.10,-992.10,78.75,-647.50,-262.50,1,94.705,
01/01/2000,01:06:59.86,21.72,-57.58,-991.98,367.50,-612.50,-393.75,1,94.715,
01/01/2000,01:06:59.88,21.35,-57.10,-991.98,122.50,-778.75,-218.75,1,94.534,
01/01/2000,01:06:59.89,21.59,-57.22,-992.10,113.75,-656.25,-297.50,1,94.545,
01/01/2000,01:06:59.90,21.59,-57.22,-992.47,87.50,-682.50,-236.25,1,94.556,
01/01/2000,01:06:59.91,21.72,-57.22,-992.47,105.0,-603.75,-350.0,1,94.567,
01/01/2000,01:06:59.92,21.84,-57.58,-992.23,227.50,-656.25,-402.50,1,94.578,
01/01/2000,01:06:59.93,21.47,-57.46,-992.10,166.25,-787.50,-402.50,1,94.589,
01/01/2000,01:06:59.94,21.47,-57.46,-992.10,140.0,-778.75,-446.25,1,94.600,
01/01/2000,01:06:59.95,21.72,-57.34,-992.23,148.75,-708.75,-218.75,1,94.611,
01/01/2000,01:06:59.96,21.47,-57.10,-992.35,26.25,-647.50,-262.50,1,94.622,
01/01/2000,01:06:59.97,21.59,-57.22,-992.35,105.0,-673.75,-297.50,1,94.632,
01/01/2000,01:06:59.98,21.59,-57.34,-992.47,96.25,-700.0,-245.0,1,94.643,
01/01/2000,01:06:59.99,21.84,-57.58,-992.59,122.50,-700.0,-402.50,1,94.653,
01/01/2000,01:07:00.00,21.96,-57.46,-992.35,271.25,-735.0,-201.25,1,94.664,
01/01/2000,01:07:00.01,21.84,-57.22,-992.10,61.25,-778.75,-341.25,1,94.488,
01/01/2000,01:07:00.02,21.59,-57.34,-991.86,122.50,-691.25,-332.50,1,94.499,
01/01/2000,01:07:00.03,21.47,-57.10,-991.98,70.0,-682.50,-385.0,1,94.510,
01/01/2000,01:07:00.04,21.59,-57.34,-992.10,140.0,-682.50,-385.0,1,94.521,
01/01/2000,01:07:00.05,21.72,-57.46,-992.35,210.0,-647.50,-376.25,1,94.531,
01/01/2000,01:07:00.06,21.59,-57.71,-992.59,157.50,-682.50,-420.0,1,94.542,
01/01/2000,01:07:00.08,21.59,-57.58,-992.35,183.75,-726.25,-402.50,1,94.553,
01/01/2000,01:07:00.09,21.47,-57.10,-992.10,78.75,-822.50,-402.50,1,94.380,
01/01/2000,01:07:00.10,21.35,-57.34,-992.10,227.50,-743.75,-315.0,1,94.391,
01/01/2000,01:07:00.11,21.23,-57.34,-991.98,122.50,-717.50,-288.75,1,94.402,
01/01/2000,01:07:00.12,21.23,-57.58,-991.86,157.50,-752.50,-437.50,1,94.412,
01/01/2000,01:07:00.13,21.35,-57.58,-991.86,201.25,-743.75,-358.75,1,94.423,
01/01/2000,01:07:00.14,21.35,-57.46,-992.10,131.25,-752.50,-350.0,1,94.434,
01/01/2000,01:07:00.15,21.59,-57.46,-992.35,262.50,-735.0,-315.0,1,94.444,
01/01/2000,01:07:00.16,21.47,-57.34,-992.35,105.0,-673.75,-288.75,1,94.455,
01/01/2000,01:07:00.17,21.35,-57.34,-992.35,175.0,-647.50,-315.0,1,94.466,
01/01/2000,01:07:00.18,21.47,-57.46,-992.23,183.75,-708.75,-411.25,1,94.476,
01/01/2000,01:07:00.19,21.59,-57.34,-991.74,122.50,-691.25,-350.0,1,94.487,
01/01/2000,01:07:00.20,21.84,-57.58,-991.49,148.75,-726.25,-280.0,1,94.497,
01/01/2000,01:07:00.21,21.72,-57.71,-991.74,105.0,-787.50,-315.0,1,94.508,
01/01/2000,01:07:00.23,21.47,-57.71,-992.23,166.25,-691.25,-376.25,1,94.518,
01/01/2000,01:07:00.24,21.59,-57.34,-992.35,183.75,-638.75,-393.75,1,94.528,
01/01/2000,01:07:00.25,21.72,-56.97,-992.23,166.25,-577.50,-245.0,1,94.539,
01/01/2000,01:07:00.26,21.72,-56.97,-991.74,227.50,-717.50,-210.0,1,94.549,
01/01/2000,01:07:00.27,21.84,-57.34,-991.49,201.25,-665.0,-367.50,1,94.559,
01/01/2000,01:07:00.28,21.72,-57.46,-991.62,87.50,-717.50,-446.25,1,94.569,
01/01/2000,01:07:00.29,21.72,-57.34,-991.86,113.75,-621.25,-350.0,1,94.579,
01/01/2000,01:07:00.30,21.72,-57.10,-992.10,210.0,-595.0,-315.0,1,94.590,
01/01/2000,01:07:00.31,21.47,-56.85,-992.10,183.75,-735.0,-297.50,1,94.600,
01/01/2000,01:07:00.32,21.47,-57.22,-991.98,113.75,-717.50,-332.50,1,94.434,
01/01/2000,01:07:00.33,21.35,-57.46,-991.86,201.25,-665.0,-245.0,1,94.620,
01/01/2000,01:07:00.34,21.47,-57.58,-991.86,157.50,-682.50,-411.25,1,94.455,
01/01/2000,01:07:00.35,21.47,-57.71,-992.23,157.50,-673.75,-376.25,1,94.465,
01/01/2000,01:07:00.37,21.47,-57.34,-992.23,61.25,-708.75,-385.0,1,94.475,
01/01/2000,01:07:00.38,21.47,-57.34,-992.10,70.0,-700.0,-288.75,1,94.485,
01/01/2000,01:07:00.39,21.47,-57.34,-992.10,157.50,-787.50,-428.75,1,94.495,
01/01/2000,01:07:00.40,21.72,-57.46,-992.23,148.75,-708.75,-306.25,1,94.505,
01/01/2000,01:07:00.41,21.59,-57.58,-992.23,52.50,-761.25,-463.75,1,94.516,
01/01/2000,01:07:00.42,21.47,-57.58,-992.10,148.75,-822.50,-393.75,1,94.526,
01/01/2000,01:07:00.43,21.47,-57.58,-991.86,148.75,-726.25,-271.25,1,94.536,
01/01/2000,01:07:00.44,21.47,-57.22,-991.98,280.0,-682.50,-350.0,1,94.545,
01/01/2000,01:07:00.45,21.47,-57.22,-992.10,96.25,-630.0,-341.25,1,94.555,
01/01/2000,01:07:00.46,21.47,-57.34,-991.98,113.75,-603.75,-385.0,1,94.565,
01/01/2000,01:07:00.47,21.35,-57.46,-991.98,201.25,-682.50,-402.50,1,94.575,
01/01/2000,01:07:00.48,21.35,-57.46,-991.86,70.0,-735.0,-297.50,1,94.585,
01/01/2000,01:07:00.49,21.35,-57.46,-991.98,271.25,-735.0,-376.25,1,94.595,
01/01/2000,01:07:00.50,21.35,-57.46,-992.10,140.0,-761.25,-376.25,1,94.604,
01/01/2000,01:07:00.51,21.35,-57.34,-992.23,140.0,-638.75,-341.25,1,94.444,
01/01/2000,01:07:00.52,21.47,-57.34,-992.10,140.0,-726.25,-332.50,1,94.454,
01/01/2000,01:07:00.53,21.47,-57.34,-991.86,43.75,-770.0,-271.25,1,94.464,
01/01/2000,01:07:00.54,21.59,-57.46,-991.98,218.75,-560.0,-271.25,1,94.474,
01/01/2000,01:07:00.55,21.47,-57.46,-991.98,157.50,-752.50,-227.50,1,94.484,
01/01/2000,01:07:00.56,21.47,-57.58,-992.10,52.50,-708.75,-341.25,1,94.494,
01/01/2000,01:07:00.58,21.47,-57.22,-992.23,183.75,-778.75,-175.0,1,94.504,
01/01/2000,01:07:00.59,21.47,-57.34,-992.23,157.50,-691.25,-376.25,1,94.346,
01/01/2000,01:07:00.60,21.47,-57.34,-992.35,175.0,-717.50,-288.75,1,94.356,
01/01/2000,01:07:00.61,21.72,-57.46,-992.35,192.50,-621.25,-367.50,1,94.366,
01/01/2000,01:07:00.62,21.59,-57.46,-992.35,271.25,-621.25,-323.75,1,94.376,
01/01/2000,01:07:00.63,21.59,-57.34,-992.23,157.50,-656.25,-376.25,1,94.386,
01/01/2000,01:07:00.64,21.35,-57.34,-992.10,210.0,-612.50,-385.0,1,94.396,
01/01/2000,01:07:00.65,21.47,-57.34,-991.86,140.0,-612.50,-341.25,1,94.406,
01/01/2000,01:07:00.66,21.47,-57.34,-991.86,131.25,-647.50,-227.50,1,94.415,
01/01/2000,01:07:00.67,21.59,-57.58,-991.98,183.75,-796.25,-280.0,1,94.425,
01/01/2000,01:07:00.68,21.47,-57.71,-992.10,192.50,-603.75,-411.25,1,94.435,
01/01/2000,01:07:00.69,21.47,-57.58,-992.10,280.0,-638.75,-420.0,1,94.444,
01/01/2000,01:07:00.71,21.35,-57.34,-992.10,175.0,-691.25,-332.50,1,94.454,
01/01/2000,01:07:00.71,21.59,-57.10,-992.10,236.25,-682.50,-236.25,1,94.464,
01/01/2000,01:07:00.73,21.47,-57.22,-992.10,271.25,-831.25,-288.75,1,94.473,
01/01/2000,01:07:00.74,21.47,-57.34,-992.10,131.25,-647.50,-323.75,1,94.483,
01/01/2000,01:07:00.75,21.47,-57.46,-992.10,140.0,-787.50,-341.25,1,94.492,
01/01/2000,01:07:00.76,21.47,-57.22,-992.10,113.75,-603.75,-245.0,1,94.502,
01/01/2000,01:07:00.77,21.47,-57.22,-992.23,157.50,-787.50,-271.25,1,94.511,
01/01/2000,01:07:00.78,21.35,-57.22,-992.10,35.0,-682.50,-350.0,1,94.521,
01/01/2000,01:07:00.79,21.23,-57.34,-991.86,227.50,-682.50,-332.50,1,94.530,
01/01/2000,01:07:00.80,21.35,-57.22,-991.86,210.0,-621.25,-315.0,1,94.539,
01/01/2000,01:07:00.81,21.47,-57.22,-991.86,288.75,-761.25,-245.0,1,94.549,
01/01/2000,01:07:00.82,21.47,-57.22,-991.86,131.25,-708.75,-297.50,1,94.558,
01/01/2000,01:07:00.83,21.23,-57.34,-991.62,201.25,-612.50,-341.25,1,94.567,
01/01/2000,01:07:00.84,21.23,-57.34,-991.62,236.25,-612.50,-402.50,1,94.576,
01/01/2000,01:07:00.85,21.23,-57.34,-991.62,122.50,-708.75,-385.0,1,94.585,
01/01/2000,01:07:00.86,21.47,-57.22,-991.86,148.75,-647.50,-288.75,1,94.435,
01/01/2000,01:07:00.87,21.59,-57.34,-991.86,157.50,-700.0,-288.75,1,94.444,
01/01/2000,01:07:00.88,21.47,-57.58,-991.74,192.50,-682.50,-455.0,1,94.454,
01/01/2000,01:07:00.89,21.23,-57.34,-991.74,61.25,-682.50,-306.25,1,94.463,
01/01/2000,01:07:00.90,21.35,-57.46,-991.86,288.75,-568.75,-350.0,1,94.472,
01/01/2000,01:07:00.91,21.35,-57.34,-991.98,113.75,-700.0,-358.75,1,94.482,
01/01/2000,01:07:00.92,21.35,-57.34,-991.86,61.25,-595.0,-402.50,1,94.491,
01/01/2000,01:07:00.94,21.35,-57.46,-991.74,201.25,-665.0,-481.25,1,94.500,
01/01/2000,01:07:00.95,21.47,-57.46,-991.74,78.75,-682.50,-297.50,1,94.509,
01/01/2000,01:07:00.96,21.59,-57.46,-991.74,253.75,-708.75,-376.25,1,94.518,
01/01/2000,01:07:00.97,21.47,-57.34,-991.86,271.25,-621.25,-350.0,1,94.527,
01/01/2000,01:07:00.98,21.47,-57.34,-991.86,236.25,-673.75,-411.25,1,94.536,
01/01/2000,01:07:00.99,21.59,-57.34,-991.62,131.25,-726.25,-297.50,1,94.545,
01/01/2000,01:07:01.00,21.72,-57.34,-991.86,210.0,-717.50,-306.25,1,94.554,
01/01/2000,01:07:01.01,21.72,-57.58,-991.98,227.50,-743.75,-358.75,1,94.563,
01/01/2000,01:07:01.02,21.59,-57.58,-992.10,166.25,-743.75,-428.75,1,94.572,
01/01/2000,01:07:01.03,21.47,-57.46,-992.10,61.25,-708.75,-411.25,1,94.426,
01/01/2000,01:07:01.04,21.59,-57.34,-991.86,332.50,-743.75,-402.50,1,94.590,
01/01/2000,01:07:01.05,21.47,-57.34,-991.86,306.25,-638.75,-341.25,1,94.444,
01/01/2000,01:07:01.06,21.59,-57.58,-991.98,236.25,-700.0,-402.50,1,94.454,
01/01/2000,01:07:01.08,21.47,-57.46,-992.10,157.50,-612.50,-332.50,1,94.463,
01/01/2000,01:07:01.09,21.47,-57.46,-991.86,105.0,-717.50,-358.75,1,94.472,
01/01/2000,01:07:01.10,21.47,-57.34,-991.86,140.0,-700.0,-358.75,1,94.481,
01/01/2000,01:07:01.11,21.47,-57.22,-991.86,210.0,-735.0,-288.75,1,94.489,
01/01/2000,01:07:01.12,21.72,-57.22,-991.98,70.0,-752.50,-297.50,1,94.498,
01/01/2000,01:07:01.13,21.47,-57.34,-991.86,192.50,-682.50,-271.25,1,94.507,
01/01/2000,01:07:01.14,21.47,-57.46,-991.86,236.25,-700.0,-323.75,1,94.364,
01/01/2000,01:07:01.15,21.59,-57.46,-991.98,148.75,-796.25,-341.25,1,94.373,
01/01/2000,01:07:01.16,21.47,-57.22,-991.98,113.75,-673.75,-367.50,1,94.382,
01/01/2000,01:07:01.17,21.47,-57.10,-991.98,183.75,-586.25,-341.25,1,94.391,
01/01/2000,01:07:01.18,21.47,-57.22,-991.86,166.25,-673.75,-288.75,1,94.400,
01/01/2000,01:07:01.19,21.23,-57.34,-991.98,105.0,-700.0,-315.0,1,94.409,
01/01/2000,01:07:01.20,21.35,-57.46,-991.98,227.50,-708.75,-472.50,1,94.418,
01/01/2000,01:07:01.21,21.35,-57.46,-991.98,218.75,-638.75,-315.0,1,94.427,
01/01/2000,01:07:01.22,21.23,-57.34,-991.98,78.75,-630.0,-350.0,1,94.436,
01/01/2000,01:07:01.23,21.35,-57.34,-991.86,157.50,-708.75,-306.25,1,94.444,
01/01/2000,01:07:01.24,21.23,-57.22,-991.98,61.25,-717.50,-236.25,1,94.453,
01/01/2000,01:07:01.25,21.23,-57.34,-992.10,105.0,-778.75,-218.75,1,94.462,
01/01/2000,01:07:01.26,21.35,-57.46,-992.10,332.50,-708.75,-385.0,1,94.471,
01/01/2000,01:07:01.27,21.47,-57.34,-991.98,70.0,-743.75,-315.0,1,94.479,
01/01/2000,01:07:01.29,21.59,-57.22,-991.74,271.25,-708.75,-376.25,1,94.488,
01/01/2000,01:07:01.30,21.47,-57.22,-991.98,140.0,-700.0,-288.75,1,94.497,
01/01/2000,01:07:01.31,21.47,-57.34,-992.10,192.50,-656.25,-245.0,1,94.505,
01/01/2000,01:07:01.32,21.59,-57.34,-992.10,341.25,-700.0,-428.75,1,94.514,
01/01/2000,01:07:01.33,21.47,-57.34,-991.86,52.50,-743.75,-210.0,1,94.523,
01/01/2000,01:07:01.34,21.72,-57.34,-991.86,157.50,-761.25,-288.75,1,94.531,
01/01/2000,01:07:01.35,21.47,-57.34,-991.98,131.25,-638.75,-315.0,1,94.393,
01/01/2000,01:07:01.36,21.47,-57.46,-992.10,341.25,-595.0,-402.50,1,94.401,
01/01/2000,01:07:01.37,21.59,-57.34,-992.23,148.75,-770.0,-420.0,1,94.410,
01/01/2000,01:07:01.38,21.72,-57.34,-992.10,192.50,-647.50,-341.25,1,94.419,
01/01/2000,01:07:01.39,21.84,-57.22,-991.86,262.50,-691.25,-262.50,1,94.427,
01/01/2000,01:07:01.40,21.72,-57.34,-991.98,236.25,-638.75,-393.75,1,94.436,
01/01/2000,01:07:01.41,21.72,-57.34,-991.98,183.75,-656.25,-428.75,1,94.444,
01/01/2000,01:07:01.43,21.72,-57.58,-992.23,218.75,-682.50,-385.0,1,94.453,
01/01/2000,01:07:01.44,21.72,-57.46,-992.23,245.0,-647.50,-306.25,1,94.462,
01/01/2000,01:07:01.45,21.72,-57.58,-991.86,113.75,-752.50,-463.75,1,94.470,
01/01/2000,01:07:01.46,21.72,-57.46,-991.74,175.0,-630.0,-297.50,1,94.479,
01/01/2000,01:07:01.47,21.59,-57.58,-991.98,148.75,-665.0,-367.50,1,94.487,
01/01/2000,01:07:01.48,21.72,-57.71,-992.23,236.25,-656.25,-306.25,1,94.495,
01/01/2000,01:07:01.49,21.59,-57.71,-992.23,183.75,-708.75,-358.75,1,94.504,
01/01/2000,01:07:01.50,21.47,-57.58,-991.98,148.75,-577.50,-402.50,1,94.512,
01/01/2000,01:07:01.51,21.47,-57.34,-991.86,131.25,-682.50,-323.75,1,94.521,
01/01/2000,01:07:01.52,21.59,-57.34,-991.86,148.75,-656.25,-358.75,1,94.529,
01/01/2000,01:07:01.53,21.59,-57.46,-991.86,253.75,-770.0,-262.50,1,94.537,
01/01/2000,01:07:01.54,21.59,-57.46,-991.98,157.50,-665.0,-376.25,1,94.545,
01/01/2000,01:07:01.55,21.47,-57.58,-991.98,105.0,-656.25,-411.25,1,94.554,
01/01/2000,01:07:01.56,21.47,-57.34,-991.86,52.50,-848.75,-376.25,1,94.419,
01/01/2000,01:07:01.57,21.72,-57.10,-991.86,236.25,-761.25,-358.75,1,94.428,
01/01/2000,01:07:01.58,21.59,-57.22,-991.86,253.75,-577.50,-192.50,1,94.436,
01/01/2000,01:07:01.59,21.47,-57.34,-991.86,288.75,-700.0,-280.0,1,94.444,
01/01/2000,01:07:01.61,21.47,-57.58,-991.86,245.0,-647.50,-367.50,1,94.453,
01/01/2000,01:07:01.62,21.47,-57.34,-991.86,157.50,-743.75,-306.25,1,94.461,
01/01/2000,01:07:01.63,21.72,-57.34,-991.98,122.50,-656.25,-306.25,1,94.469,
01/01/2000,01:07:01.64,21.59,-57.34,-992.10,166.25,-726.25,-376.25,1,94.478,
01/01/2000,01:07:01.65,21.47,-57.46,-992.10,131.25,-682.50,-350.0,1,94.486,
01/01/2000,01:07:01.66,21.35,-57.34,-991.98,148.75,-682.50,-367.50,1,94.494,
01/01/2000,01:07:01.67,21.59,-57.22,-992.10,227.50,-665.0,-323.75,1,94.502,
01/01/2000,01:07:01.68,21.59,-57.10,-992.10,245.0,-612.50,-315.0,1,94.510,
01/01/2000,01:07:01.69,21.59,-57.22,-992.10,210.0,-656.25,-411.25,1,94.519,
01/01/2000,01:07:01.70,21.47,-57.10,-991.98,253.75,-735.0,-420.0,1,94.527,
01/01/2000,01:07:01.71,21.47,-56.97,-992.10,148.75,-735.0,-376.25,1,94.395,
01/01/2000,01:07:01.72,21.72,-57.10,-992.10,218.75,-673.75,-288.75,1,94.404,
01/01/2000,01:07:01.73,21.72,-56.97,-992.10,122.50,-735.0,-358.75,1,94.412,
01/01/2000,01:07:01.74,21.59,-57.10,-991.98,253.75,-673.75,-315.0,1,94.420,
01/01/2000,01:07:01.75,21.47,-57.10,-992.10,131.25,-735.0,-315.0,1,94.428,
01/01/2000,01:07:01.76,21.47,-57.22,-992.23,131.25,-665.0,-297.50,1,94.436,
01/01/2000,01:07:01.78,21.23,-57.22,-992.35,140.0,-665.0,-367.50,1,94.444,
01/01/2000,01:07:01.79,21.23,-57.10,-992.10,96.25,-700.0,-262.50,1,94.453,
01/01/2000,01:07:01.80,21.23,-57.10,-992.23,26.25,-708.75,-376.25,1,94.461,
01/01/2000,01:07:01.81,21.23,-57.10,-992.23,148.75,-630.0,-358.75,1,94.469,
01/01/2000,01:07:01.82,21.35,-57.22,-992.35,105.0,-682.50,-358.75,1,94.477,
01/01/2000,01:07:01.83,21.47,-57.22,-992.23,245.0,-726.25,-350.0,1,94.485,
01/01/2000,01:07:01.84,21.47,-57.22,-992.10,210.0,-656.25,-236.25,1,94.493,
01/01/2000,01:07:01.85,21.47,-57.22,-992.10,192.50,-665.0,-323.75,1,94.501,
01/01/2000,01:07:01.86,21.47,-57.10,-992.10,175.0,-691.25,-315.0,1,94.509,
01/01/2000,01:07:01.87,21.47,-57.22,-992.35,140.0,-805.0,-376.25,1,94.517,
01/01/2000,01:07:01.88,21.47,-57.22,-992.23,122.50,-586.25,-358.75,1,94.524,
01/01/2000,01:07:01.89,21.59,-57.34,-992.23,218.75,-542.50,-358.75,1,94.532,
01/01/2000,01:07:01.90,21.59,-57.10,-991.98,113.75,-673.75,-315.0,1,94.540,
01/01/2000,01:07:01.91,21.72,-57.10,-991.86,157.50,-752.50,-262.50,1,94.548,
01/01/2000,01:07:01.92,21.47,-57.10,-991.98,192.50,-726.25,-323.75,1,94.421,
01/01/2000,01:07:01.93,21.59,-57.34,-992.10,253.75,-743.75,-393.75,1,94.429,
01/01/2000,01:07:01.94,21.72,-57.22,-991.86,192.50,-717.50,-402.50,1,94.437,
01/01/2000,01:07:01.95,21.47,-57.22,-991.86,148.75,-700.0,-271.25,1,94.444,
01/01/2000,01:07:01.96,21.47,-57.34,-991.86,175.0,-708.75,-428.75,1,94.452,
01/01/2000,01:07:01.98,21.47,-57.34,-992.10,183.75,-682.50,-490.0,1,94.460,
01/01/2000,01:07:01.99,21.47,-57.10,-992.10,131.25,-735.0,-376.25,1,94.468,
01/01/2000,01:07:02.00,21.47,-57.22,-992.10,253.75,-752.50,-358.75,1,94.476,
01/01/2000,01:07:02.01,21.47,-57.22,-991.98,8.75,-691.25,-306.25,1,94.484,
01/01/2000,01:07:02.02,21.35,-57.22,-991.86,218.75,-647.50,-332.50,1,94.492,
01/01/2000,01:07:02.03,21.23,-57.10,-991.86,271.25,-735.0,-350.0,1,94.499,
01/01/2000,01:07:02.04,21.23,-57.10,-991.98,122.50,-717.50,-306.25,1,94.507,
01/01/2000,01:07:02.05,21.11,-57.10,-991.98,131.25,-656.25,-402.50,1,94.515,
01/01/2000,01:07:02.06,21.23,-57.10,-991.86,192.50,-796.25,-288.75,1,94.390,
01/01/2000,01:07:02.07,21.23,-57.10,-991.62,192.50,-743.75,-341.25,1,94.398,
01/01/2000,01:07:02.08,20.98,-57.10,-991.74,175.0,-717.50,-323.75,1,94.406,
01/01/2000,01:07:02.09,21.23,-57.10,-991.86,113.75,-743.75,-332.50,1,94.413,
01/01/2000,01:07:02.10,21.23,-57.10,-991.98,157.50,-796.25,-332.50,1,94.421,
01/01/2000,01:07:02.12,21.23,-56.97,-991.86,236.25,-665.0,-367.50,1,94.429,
01/01/2000,01:07:02.13,21.23,-56.97,-991.62,131.25,-630.0,-446.25,1,94.437,
01/01/2000,01:07:02.14,21.35,-57.10,-991.62,280.0,-612.50,-420.0,1,94.444,
01/01/2000,01:07:02.15,21.47,-57.10,-991.86,210.0,-673.75,-350.0,1,94.452,
01/01/2000,01:07:02.16,21.47,-57.22,-991.86,280.0,-700.0,-428.75,1,94.460,
01/01/2000,01:07:02.17,21.47,-57.22,-991.86,192.50,-673.75,-358.75,1,94.467,
01/01/2000,01:07:02.18,21.59,-57.34,-991.86,157.50,-708.75,-315.0,1,94.475,
01/01/2000,01:07:02.19,21.59,-57.34,-991.86,131.25,-708.75,-280.0,1,94.483,
01/01/2000,01:07:02.20,21.72,-57.34,-991.86,140.0,-630.0,-262.50,1,94.490,
01/01/2000,01:07:02.21,21.72,-57.34,-991.86,201.25,-796.25,-332.50,1,94.498,
01/01/2000,01:07:02.22,21.59,-57.34,-991.86,131.25,-638.75,-358.75,1,94.505,
01/01/2000,01:07:02.23,21.59,-57.10,-991.86,227.50,-638.75,-350.0,1,94.513,
01/01/2000,01:07:02.24,21.47,-56.97,-991.86,148.75,-752.50,-393.75,1,94.521,
01/01/2000,01:07:02.25,21.59,-56.97,-991.86,183.75,-682.50,-280.0,1,94.528,
01/01/2000,01:07:02.26,21.47,-57.10,-991.98,113.75,-778.75,-297.50,1,94.536,
01/01/2000,01:07:02.28,21.47,-57.34,-991.74,210.0,-796.25,-376.25,1,94.414,
01/01/2000,01:07:02.29,21.47,-57.34,-991.86,140.0,-726.25,-332.50,1,94.422,
01/01/2000,01:07:02.30,21.84,-57.10,-991.98,183.75,-708.75,-288.75,1,94.429,
01/01/2000,01:07:02.31,21.96,-57.10,-991.86,157.50,-673.75,-315.0,1,94.437,
01/01/2000,01:07:02.32,21.96,-57.22,-991.86,113.75,-647.50,-280.0,1,94.444,
01/01/2000,01:07:02.33,21.72,-57.34,-991.86,166.25,-743.75,-358.75,1,94.452,
01/01/2000,01:07:02.34,21.72,-57.34,-991.86,157.50,-778.75,-376.25,1,94.459,
01/01/2000,01:07:02.35,21.84,-57.34,-992.10,218.75,-726.25,-306.25,1,94.467,
01/01/2000,01:07:02.36,21.59,-57.22,-992.10,262.50,-717.50,-463.75,1,94.474,
01/01/2000,01:07:02.37,21.47,-57.34,-991.86,175.0,-691.25,-315.0,1,94.482,
01/01/2000,01:07:02.38,21.47,-57.34,-991.74,140.0,-673.75,-236.25,1,94.489,
01/01/2000,01:07:02.39,21.47,-57.34,-991.98,105.0,-726.25,-358.75,1,94.497,
01/01/2000,01:07:02.40,21.59,-57.34,-991.86,148.75,-743.75,-358.75,1,94.504,
01/01/2000,01:07:02.41,21.72,-57.34,-991.86,105.0,-691.25,-402.50,1,94.385,
01/01/2000,01:07:02.42,21.72,-57.34,-991.62,70.0,-691.25,-376.25,1,94.393,
01/01/2000,01:07:02.43,21.72,-57.22,-991.74,245.0,-612.50,-297.50,1,94.400,
01/01/2000,01:07:02.44,21.72,-57.22,-991.86,201.25,-691.25,-245.0,1,94.407,
01/01/2000,01:07:02.45,21.72,-57.10,-992.10,192.50,-673.75,-376.25,1,94.415,
01/01/2000,01:07:02.46,21.59,-57.22,-991.98,148.75,-717.50,-323.75,1,94.422,
01/01/2000,01:07:02.48,21.47,-57.10,-991.74,218.75,-673.75,-420.0,1,94.430,
01/01/2000,01:07:02.49,21.47,-57.10,-991.98,236.25,-586.25,-323.75,1,94.437,
01/01/2000,01:07:02.50,21.59,-57.10,-991.98,218.75,-726.25,-341.25,1,94.444,
01/01/2000,01:07:02.51,21.59,-57.10,-992.10,113.75,-735.0,-297.50,1,94.452,
01/01/2000,01:07:02.52,21.72,-57.10,-991.98,70.0,-586.25,-367.50,1,94.459,
01/01/2000,01:07:02.53,21.72,-57.34,-991.74,148.75,-682.50,-428.75,1,94.466,
01/01/2000,01:07:02.54,21.59,-57.34,-991.74,157.50,-770.0,-332.50,1,94.474,
01/01/2000,01:07:02.55,21.47,-57.34,-991.86,87.50,-647.50,-350.0,1,94.481,
01/01/2000,01:07:02.56,21.47,-57.46,-991.86,201.25,-595.0,-323.75,1,94.488,
01/01/2000,01:07:02.57,21.35,-57.34,-991.86,175.0,-866.25,-437.50,1,94.495,
01/01/2000,01:07:02.58,21.35,-57.22,-991.62,148.75,-551.25,-245.0,1,94.503,
01/01/2000,01:07:02.59,21.23,-57.10,-991.74,183.75,-796.25,-350.0,1,94.510,
01/01/2000,01:07:02.60,21.47,-57.10,-991.86,183.75,-621.25,-306.25,1,94.517,
01/01/2000,01:07:02.61,21.35,-57.46,-991.86,175.0,-586.25,-341.25,1,94.524,
01/01/2000,01:07:02.63,21.23,-57.34,-991.74,341.25,-735.0,-358.75,1,94.408,
01/01/2000,01:07:02.64,21.35,-57.10,-991.62,183.75,-700.0,-288.75,1,94.416,
01/01/2000,01:07:02.65,21.23,-57.10,-991.74,157.50,-682.50,-411.25,1,94.423,
01/01/2000,01:07:02.66,21.23,-57.10,-991.74,183.75,-726.25,-323.75,1,94.430,
01/01/2000,01:07:02.67,21.35,-57.34,-991.74,148.75,-560.0,-341.25,1,94.437,
01/01/2000,01:07:02.68,21.47,-57.46,-991.62,122.50,-612.50,-315.0,1,94.444,
01/01/2000,01:07:02.69,21.47,-57.46,-991.49,131.25,-638.75,-437.50,1,94.330,
01/01/2000,01:07:02.70,21.35,-57.34,-991.62,271.25,-630.0,-306.25,1,94.337,
01/01/2000,01:07:02.71,21.47,-57.34,-991.74,96.25,-752.50,-358.75,1,94.344,
01/01/2000,01:07:02.72,21.47,-57.34,-991.74,96.25,-621.25,-323.75,1,94.352,
01/01/2000,01:07:02.73,21.35,-57.46,-991.86,70.0,-612.50,-332.50,1,94.359,
01/01/2000,01:07:02.74,21.35,-57.46,-991.74,70.0,-805.0,-358.75,1,94.366,
01/01/2000,01:07:02.75,21.47,-57.46,-991.74,192.50,-726.25,-306.25,1,94.373,
01/01/2000,01:07:02.76,21.47,-57.34,-991.62,201.25,-621.25,-280.0,1,94.381,
01/01/2000,01:07:02.77,21.47,-57.58,-991.74,236.25,-717.50,-297.50,1,94.388,
01/01/2000,01:07:02.78,21.47,-57.34,-991.86,122.50,-708.75,-306.25,1,94.395,
01/01/2000,01:07:02.79,21.47,-57.34,-991.86,166.25,-735.0,-376.25,1,94.402,
01/01/2000,01:07:02.80,21.47,-57.34,-991.86,87.50,-708.75,-280.0,1,94.409,
01/01/2000,01:07:02.81,21.47,-57.34,-991.62,131.25,-630.0,-358.75,1,94.416,
01/01/2000,01:07:02.82,21.47,-57.58,-991.62,52.50,-726.25,-288.75,1,94.423,
01/01/2000,01:07:02.84,21.47,-57.58,-991.86,201.25,-770.0,-315.0,1,94.430,
01/01/2000,01:07:02.85,21.47,-57.46,-991.86,61.25,-813.75,-367.50,1,94.437,
01/01/2000,01:07:02.86,21.47,-57.34,-991.74,253.75,-673.75,-385.0,1,94.444,
01/01/2000,01:07:02.87,21.47,-57.34,-991.74,175.0,-577.50,-306.25,1,94.451,
01/01/2000,01:07:02.88,21.35,-57.34,-991.86,131.25,-743.75,-332.50,1,94.458,
01/01/2000,01:07:02.89,21.23,-57.34,-991.86,262.50,-542.50,-271.25,1,94.465,
01/01/2000,01:07:02.90,21.23,-57.46,-991.86,175.0,-796.25,-350.0,1,94.472,
01/01/2000,01:07:02.91,21.23,-57.34,-991.98,192.50,-551.25,-288.75,1,94.361,
01/01/2000,01:07:02.92,21.35,-57.22,-991.98,131.25,-603.75,-271.25,1,94.486,
01/01/2000,01:07:02.93,21.23,-57.34,-991.98,245.0,-700.0,-341.25,1,94.375,
01/01/2000,01:07:02.94,21.23,-57.34,-991.98,43.75,-743.75,-253.75,1,94.382,
01/01/2000,01:07:02.95,21.23,-57.58,-992.10,315.0,-665.0,-420.0,1,94.389,
01/01/2000,01:07:02.96,21.35,-57.34,-992.23,122.50,-752.50,-218.75,1,94.396,
01/01/2000,01:07:02.98,21.35,-57.46,-992.10,201.25,-726.25,-358.75,1,94.403,
01/01/2000,01:07:02.99,21.23,-57.46,-992.10,201.25,-787.50,-350.0,1,94.410,
01/01/2000,01:07:03.00,21.23,-57.34,-992.10,183.75,-761.25,-393.75,1,94.417,
01/01/2000,01:07:03.01,21.47,-57.58,-992.10,192.50,-612.50,-455.0,1,94.424,
01/01/2000,01:07:03.02,21.59,-57.34,-992.10,218.75,-752.50,-411.25,1,94.431,
01/01/2000,01:07:03.03,21.72,-57.58,-992.10,166.25,-595.0,-341.25,1,94.438,
01/01/2000,01:07:03.04,21.59,-57.58,-991.86,218.75,-630.0,-332.50,1,94.444,
01/01/2000,01:07:03.05,21.23,-57.22,-991.98,192.50,-708.75,-271.25,1,94.451,
01/01/2000,01:07:03.06,21.47,-57.34,-991.98,148.75,-656.25,-210.0,1,94.458,
01/01/2000,01:07:03.07,21.47,-57.58,-991.86,122.50,-717.50,-358.75,1,94.465,
01/01/2000,01:07:03.08,21.47,-57.34,-991.74,87.50,-647.50,-332.50,1,94.472,
01/01/2000,01:07:03.09,21.59,-57.58,-991.62,332.50,-708.75,-402.50,1,94.479,
01/01/2000,01:07:03.10,21.47,-57.34,-991.62,192.50,-682.50,-358.75,1,94.485,
01/01/2000,01:07:03.11,21.72,-57.34,-991.62,201.25,-638.75,-288.75,1,94.377,
01/01/2000,01:07:03.12,21.59,-57.34,-991.74,183.75,-647.50,-245.0,1,94.383,
01/01/2000,01:07:03.14,21.47,-57.46,-991.62,253.75,-665.0,-385.0,1,94.390,
01/01/2000,01:07:03.15,21.59,-57.58,-991.62,0.0,-691.25,-393.75,1,94.397,
01/01/2000,01:07:03.16,21.72,-57.34,-991.86,140.0,-691.25,-385.0,1,94.404,
01/01/2000,01:07:03.17,21.72,-57.34,-991.86,271.25,-682.50,-367.50,1,94.411,
01/01/2000,01:07:03.18,21.35,-57.22,-991.86,122.50,-752.50,-306.25,1,94.417,
01/01/2000,01:07:03.19,21.35,-57.22,-991.86,61.25,-673.75,-210.0,1,94.424,
01/01/2000,01:07:03.20,21.47,-57.10,-991.98,166.25,-612.50,-315.0,1,94.431,
01/01/2000,01:07:03.21,21.47,-57.10,-991.98,245.0,-805.0,-315.0,1,94.438,
01/01/2000,01:07:03.22,21.59,-57.34,-991.86,70.0,-778.75,-367.50,1,94.444,
01/01/2000,01:07:03.23,21.72,-57.34,-991.86,183.75,-603.75,-288.75,1,94.451,
01/01/2000,01:07:03.24,21.72,-57.22,-991.86,61.25,-796.25,-323.75,1,94.458,
01/01/2000,01:07:03.25,21.59,-57.22,-992.10,157.50,-682.50,-350.0,1,94.465,
01/01/2000,01:07:03.26,21.47,-56.97,-992.10,122.50,-787.50,-323.75,1,94.358,
01/01/2000,01:07:03.27,21.59,-57.10,-991.98,122.50,-743.75,-367.50,1,94.365,
01/01/2000,01:07:03.28,21.59,-57.22,-991.98,157.50,-726.25,-341.25,1,94.371,
01/01/2000,01:07:03.29,21.47,-57.46,-991.98,227.50,-682.50,-227.50,1,94.378,
01/01/2000,01:07:03.30,21.72,-57.58,-991.86,227.50,-770.0,-367.50,1,94.385,
01/01/2000,01:07:03.31,21.23,-57.10,-992.10,183.75,-787.50,-253.75,1,94.391,
01/01/2000,01:07:03.33,21.96,-57.22,-991.86,253.75,-630.0,-201.25,1,94.398,
01/01/2000,01:07:03.34,21.59,-57.10,-991.86,341.25,-708.75,-271.25,1,94.405,
01/01/2000,01:07:03.35,21.59,-56.97,-991.86,183.75,-752.50,-271.25,1,94.411,
01/01/2000,01:07:03.36,21.84,-57.83,-991.74,446.25,-752.50,-560.0,1,94.418,
01/01/2000,01:07:03.37,21.47,-57.10,-992.10,0.0,-691.25,-367.50,1,94.425,
01/01/2000,01:07:03.38,21.72,-57.10,-991.86,105.0,-691.25,-306.25,1,94.431,
01/01/2000,01:07:03.39,21.72,-57.34,-991.62,376.25,-691.25,-420.0,1,94.438,
01/01/2000,01:07:03.40,21.35,-56.85,-991.37,-87.50,-726.25,-306.25,1,94.444,
01/01/2000,01:07:03.41,21.47,-57.46,-991.62,245.0,-743.75,-341.25,1,94.451,
01/01/2000,01:07:03.42,21.35,-57.22,-991.98,140.0,-612.50,-192.50,1,94.458,
01/01/2000,01:07:03.43,21.72,-57.58,-991.86,210.0,-577.50,-350.0,1,94.464,
01/01/2000,01:07:03.44,21.47,-57.58,-991.62,227.50,-752.50,-385.0,1,94.471,
01/01/2000,01:07:03.45,20.98,-56.97,-991.62,253.75,-647.50,-210.0,1,94.477,
01/01/2000,01:07:03.46,21.35,-57.34,-991.74,253.75,-708.75,-428.75,1,94.373,
01/01/2000,01:07:03.47,21.23,-56.73,-991.86,87.50,-752.50,-166.25,1,94.379,
01/01/2000,01:07:03.48,21.59,-57.22,-991.62,192.50,-638.75,-218.75,1,94.386,
01/01/2000,01:07:03.49,21.35,-57.34,-991.37,315.0,-726.25,-437.50,1,94.393,
01/01/2000,01:07:03.50,21.23,-57.10,-991.49,43.75,-586.25,-323.75,1,94.399,
01/01/2000,01:07:03.51,21.72,-57.58,-991.62,245.0,-656.25,-446.25,1,94.406,
01/01/2000,01:07:03.52,21.47,-57.10,-991.98,17.50,-708.75,-271.25,1,94.412,
01/01/2000,01:07:03.54,21.47,-57.34,-991.86,122.50,-735.0,-323.75,1,94.419,
01/01/2000,01:07:03.55,21.47,-57.22,-991.86,323.75,-743.75,-332.50,1,94.425,
01/01/2000,01:07:03.56,21.35,-57.10,-991.74,78.75,-752.50,-262.50,1,94.432,
01/01/2000,01:07:03.57,21.59,-57.46,-991.86,218.75,-638.75,-428.75,1,94.438,
01/01/2000,01:07:03.58,21.47,-57.34,-992.23,157.50,-665.0,-376.25,1,94.444,
01/01/2000,01:07:03.59,21.47,-57.34,-992.23,0.0,-717.50,-288.75,1,94.451,
01/01/2000,01:07:03.60,21.47,-57.46,-992.10,297.50,-577.50,-455.0,1,94.457,
01/01/2000,01:07:03.61,21.23,-56.97,-992.10,35.0,-612.50,-227.50,1,94.355,
01/01/2000,01:07:03.62,21.47,-57.34,-992.10,166.25,-726.25,-332.50,1,94.470,
01/01/2000,01:07:03.63,21.59,-57.22,-992.23,113.75,-761.25,-227.50,1,94.368,
01/01/2000,01:07:03.65,21.59,-57.58,-991.86,113.75,-682.50,-420.0,1,94.374,
01/01/2000,01:07:03.66,21.47,-57.46,-991.86,253.75,-726.25,-402.50,1,94.381,
01/01/2000,01:07:03.67,21.47,-57.34,-992.10,122.50,-761.25,-420.0,1,94.387,
01/01/2000,01:07:03.68,21.72,-57.34,-992.23,288.75,-700.0,-350.0,1,94.394,
01/01/2000,01:07:03.69,21.72,-57.10,-992.23,87.50,-638.75,-210.0,1,94.400,
01/01/2000,01:07:03.70,21.72,-57.71,-992.10,210.0,-700.0,-297.50,1,94.406,
01/01/2000,01:07:03.71,21.59,-57.71,-991.98,157.50,-752.50,-332.50,1,94.413,
01/01/2000,01:07:03.72,21.59,-57.71,-991.98,113.75,-717.50,-385.0,1,94.419,
01/01/2000,01:07:03.73,21.72,-57.46,-991.98,218.75,-647.50,-253.75,1,94.425,
01/01/2000,01:07:03.74,21.59,-57.34,-992.10,227.50,-735.0,-271.25,1,94.432,
01/01/2000,01:07:03.75,21.47,-57.34,-991.86,210.0,-673.75,-332.50,1,94.438,
01/01/2000,01:07:03.76,21.47,-57.34,-991.86,192.50,-612.50,-315.0,1,94.444,
01/01/2000,01:07:03.77,21.47,-57.34,-991.98,96.25,-726.25,-262.50,1,94.451,
01/01/2000,01:07:03.78,21.59,-57.58,-992.10,87.50,-717.50,-402.50,1,94.457,
01/01/2000,01:07:03.79,21.59,-57.46,-992.10,70.0,-700.0,-288.75,1,94.463,
01/01/2000,01:07:03.80,21.59,-57.34,-991.98,218.75,-708.75,-297.50,1,94.470,
01/01/2000,01:07:03.81,21.47,-57.34,-991.98,218.75,-778.75,-306.25,1,94.476,
01/01/2000,01:07:03.82,21.35,-57.22,-991.86,157.50,-708.75,-385.0,1,94.376,
01/01/2000,01:07:03.83,21.47,-57.22,-991.86,210.0,-787.50,-358.75,1,94.382,
01/01/2000,01:07:03.84,21.47,-57.34,-991.86,201.25,-682.50,-393.75,1,94.388,
01/01/2000,01:07:03.85,21.35,-57.34,-991.98,8.75,-717.50,-288.75,1,94.395,
01/01/2000,01:07:03.86,21.23,-57.34,-991.86,245.0,-691.25,-455.0,1,94.401,
01/01/2000,01:07:03.87,21.23,-57.10,-991.86,96.25,-691.25,-332.50,1,94.407,
01/01/2000,01:07:03.89,21.59,-57.10,-991.86,157.50,-595.0,-402.50,1,94.413,
01/01/2000,01:07:03.90,21.59,-57.34,-991.86,70.0,-682.50,-420.0,1,94.420,
01/01/2000,01:07:03.91,21.59,-57.58,-991.74,245.0,-726.25,-323.75,1,94.426,
01/01/2000,01:07:03.92,21.59,-57.46,-991.74,183.75,-682.50,-315.0,1,94.432,
01/01/2000,01:07:03.93,21.72,-57.46,-991.86,52.50,-682.50,-271.25,1,94.438,
01/01/2000,01:07:03.94,21.72,-57.46,-992.10,113.75,-708.75,-376.25,1,94.444,
01/01/2000,01:07:03.95,21.72,-57.58,-992.10,288.75,-752.50,-341.25,1,94.451,
01/01/2000,01:07:03.96,21.72,-57.58,-991.86,201.25,-700.0,-315.0,1,94.352,
01/01/2000,01:07:03.97,21.72,-57.58,-991.86,113.75,-682.50,-262.50,1,94.358,
01/01/2000,01:07:03.98,21.59,-57.71,-991.98,192.50,-647.50,-262.50,1,94.365,
01/01/2000,01:07:03.99,21.84,-57.58,-992.10,148.75,-647.50,-253.75,1,94.371,
01/01/2000,01:07:04.00,21.96,-57.58,-991.98,105.0,-665.0,-306.25,1,94.377,
01/01/2000,01:07:04.01,21.84,-57.46,-991.98,113.75,-735.0,-306.25,1,94.383,
01/01/2000,01:07:04.02,21.72,-57.58,-991.86,157.50,-743.75,-376.25,1,94.389,
01/01/2000,01:07:04.04,21.96,-57.58,-992.10,52.50,-682.50,-323.75,1,94.396,
01/01/2000,01:07:04.05,22.08,-57.58,-992.10,175.0,-656.25,-192.50,1,94.402,
01/01/2000,01:07:04.06,21.96,-57.58,-992.10,131.25,-778.75,-393.75,1,94.408,
01/01/2000,01:07:04.07,21.72,-57.58,-992.10,175.0,-498.75,-376.25,1,94.414,
01/01/2000,01:07:04.08,21.72,-57.58,-992.23,271.25,-612.50,-288.75,1,94.420,
01/01/2000,01:07:04.09,21.84,-57.46,-992.35,148.75,-638.75,-323.75,1,94.426,
01/01/2000,01:07:04.10,21.72,-57.58,-992.23,192.50,-717.50,-376.25,1,94.432,
01/01/2000,01:07:04.11,21.59,-57.71,-992.10,245.0,-752.50,-367.50,1,94.438,
01/01/2000,01:07:04.12,21.47,-57.58,-992.10,87.50,-787.50,-332.50,1,94.444,
01/01/2000,01:07:04.13,21.72,-57.71,-992.10,70.0,-761.25,-332.50,1,94.450,
01/01/2000,01:07:04.14,21.47,-57.58,-992.23,227.50,-665.0,-402.50,1,94.457,
01/01/2000,01:07:04.16,21.47,-57.46,-992.10,113.75,-770.0,-341.25,1,94.360,
01/01/2000,01:07:04.17,21.47,-57.58,-991.98,253.75,-735.0,-341.25,1,94.366,
01/01/2000,01:07:04.18,21.35,-57.58,-992.10,61.25,-708.75,-341.25,1,94.372,
01/01/2000,01:07:04.19,21.23,-57.83,-992.35,210.0,-717.50,-358.75,1,94.378,
01/01/2000,01:07:04.20,21.23,-57.58,-992.35,227.50,-656.25,-280.0,1,94.384,
01/01/2000,01:07:04.21,21.23,-57.58,-992.23,183.75,-883.75,-393.75,1,94.391,
01/01/2000,01:07:04.22,21.11,-57.58,-992.10,192.50,-691.25,-306.25,1,94.397,
01/01/2000,01:07:04.23,21.23,-57.58,-992.23,192.50,-612.50,-323.75,1,94.403,
01/01/2000,01:07:04.24,21.35,-57.71,-992.23,131.25,-770.0,-218.75,1,94.307,
01/01/2000,01:07:04.25,21.47,-57.83,-992.23,192.50,-761.25,-367.50,1,94.415,
01/01/2000,01:07:04.26,21.23,-57.83,-992.23,201.25,-507.50,-411.25,1,94.319,
01/01/2000,01:07:04.27,21.23,-57.58,-992.35,131.25,-673.75,-402.50,1,94.325,
01/01/2000,01:07:04.28,21.35,-57.58,-992.35,105.0,-665.0,-183.75,1,94.332,
01/01/2000,01:07:04.29,21.35,-57.58,-992.47,210.0,-787.50,-297.50,1,94.338,
01/01/2000,01:07:04.30,21.35,-57.58,-992.35,96.25,-691.25,-350.0,1,94.344,
01/01/2000,01:07:04.31,21.35,-57.83,-992.23,201.25,-778.75,-280.0,1,94.350,
01/01/2000,01:07:04.32,21.47,-57.83,-992.35,192.50,-656.25,-332.50,1,94.356,
01/01/2000,01:07:04.33,21.47,-57.71,-992.59,157.50,-813.75,-393.75,1,94.362,
01/01/2000,01:07:04.34,21.47,-57.58,-992.59,175.0,-673.75,-350.0,1,94.368,
01/01/2000,01:07:04.35,21.35,-57.58,-992.35,157.50,-787.50,-306.25,1,94.374,
01/01/2000,01:07:04.36,21.35,-57.71,-992.35,8.75,-717.50,-402.50,1,94.380,
01/01/2000,01:07:04.37,21.35,-57.71,-992.59,70.0,-700.0,-358.75,1,94.386,
01/01/2000,01:07:04.39,21.47,-57.83,-992.59,175.0,-752.50,-332.50,1,94.392,
01/01/2000,01:07:04.40,21.59,-57.46,-992.71,218.75,-831.25,-341.25,1,94.397,
01/01/2000,01:07:04.41,21.47,-57.46,-992.59,253.75,-665.0,-227.50,1,94.403,
01/01/2000,01:07:04.42,21.23,-57.34,-992.59,236.25,-735.0,-323.75,1,94.409,
01/01/2000,01:07:04.43,21.47,-57.34,-992.59,78.75,-752.50,-306.25,1,94.415,
01/01/2000,01:07:04.44,21.59,-57.34,-992.59,157.50,-621.25,-350.0,1,94.421,
01/01/2000,01:07:04.45,21.72,-57.34,-992.47,253.75,-682.50,-332.50,1,94.427,
01/01/2000,01:07:04.46,21.72,-57.46,-992.35,140.0,-735.0,-376.25,1,94.433,
01/01/2000,01:07:04.47,21.35,-57.58,-992.35,166.25,-691.25,-358.75,1,94.439,
01/01/2000,01:07:04.48,21.47,-57.22,-992.47,105.0,-630.0,-341.25,1,94.444,
01/01/2000,01:07:04.49,21.47,-56.97,-992.59,245.0,-726.25,-262.50,1,94.450,
01/01/2000,01:07:04.50,21.59,-57.10,-992.59,140.0,-691.25,-218.75,1,94.456,
01/01/2000,01:07:04.51,21.59,-57.22,-992.35,157.50,-638.75,-323.75,1,94.462,
01/01/2000,01:07:04.53,21.35,-57.58,-991.98,87.50,-778.75,-358.75,1,94.369,
01/01/2000,01:07:04.54,21.47,-57.46,-992.23,87.50,-700.0,-367.50,1,94.375,
01/01/2000,01:07:04.55,21.47,-57.22,-992.35,131.25,-735.0,-315.0,1,94.381,
01/01/2000,01:07:04.56,21.47,-57.10,-992.35,166.25,-761.25,-218.75,1,94.387,
01/01/2000,01:07:04.57,21.47,-57.10,-992.23,148.75,-700.0,-306.25,1,94.393,
01/01/2000,01:07:04.58,21.47,-57.22,-992.23,183.75,-752.50,-393.75,1,94.398,
01/01/2000,01:07:04.59,21.72,-57.46,-992.35,148.75,-682.50,-332.50,1,94.404,
01/01/2000,01:07:04.60,21.72,-57.46,-992.59,140.0,-796.25,-315.0,1,94.410,
01/01/2000,01:07:04.61,21.59,-57.46,-992.59,157.50,-787.50,-245.0,1,94.416,
01/01/2000,01:07:04.62,21.35,-57.34,-992.47,245.0,-726.25,-306.25,1,94.421,
01/01/2000,01:07:04.63,21.47,-57.34,-992.35,166.25,-612.50,-271.25,1,94.427,
01/01/2000,01:07:04.64,21.59,-57.46,-992.59,157.50,-673.75,-332.50,1,94.433,
01/01/2000,01:07:04.65,21.47,-57.46,-992.59,210.0,-682.50,-323.75,1,94.439,
01/01/2000,01:07:04.67,21.35,-57.46,-992.23,157.50,-770.0,-367.50,1,94.347,
01/01/2000,01:07:04.68,21.23,-57.34,-992.23,218.75,-673.75,-446.25,1,94.353,
01/01/2000,01:07:04.69,21.47,-57.10,-992.23,131.25,-708.75,-201.25,1,94.359,
01/01/2000,01:07:04.70,21.59,-57.10,-992.47,78.75,-787.50,-262.50,1,94.365,
01/01/2000,01:07:04.71,21.59,-57.34,-992.47,70.0,-630.0,-253.75,1,94.371,
01/01/2000,01:07:04.72,21.72,-57.46,-992.35,175.0,-682.50,-393.75,1,94.376,
01/01/2000,01:07:04.73,21.72,-57.46,-992.35,122.50,-612.50,-358.75,1,94.382,
01/01/2000,01:07:04.74,21.72,-57.34,-992.35,157.50,-735.0,-288.75,1,94.388,
01/01/2000,01:07:04.75,21.47,-57.22,-992.35,175.0,-682.50,-323.75,1,94.393,
01/01/2000,01:07:04.76,21.47,-57.22,-992.35,245.0,-673.75,-341.25,1,94.399,
01/01/2000,01:07:04.77,21.47,-57.34,-992.23,192.50,-761.25,-376.25,1,94.405,
01/01/2000,01:07:04.78,21.47,-57.34,-992.35,175.0,-691.25,-315.0,1,94.411,
01/01/2000,01:07:04.79,21.47,-57.46,-992.35,140.0,-656.25,-201.25,1,94.416,
01/01/2000,01:07:04.80,21.59,-57.46,-992.35,306.25,-665.0,-385.0,1,94.422,
01/01/2000,01:07:04.81,21.47,-57.71,-992.35,87.50,-691.25,-358.75,1,94.332,
01/01/2000,01:07:04.82,21.47,-57.58,-992.47,122.50,-743.75,-402.50,1,94.338,
01/01/2000,01:07:04.83,21.47,-57.46,-992.47,157.50,-778.75,-402.50,1,94.343,
01/01/2000,01:07:04.84,21.59,-57.46,-992.59,201.25,-752.50,-288.75,1,94.349,
01/01/2000,01:07:04.85,21.72,-57.46,-992.47,166.25,-638.75,-306.25,1,94.355,
01/01/2000,01:07:04.86,21.59,-57.58,-992.35,122.50,-700.0,-332.50,1,94.361,
01/01/2000,01:07:04.88,21.47,-57.71,-992.35,253.75,-761.25,-332.50,1,94.366,
01/01/2000,01:07:04.89,21.47,-57.58,-992.47,87.50,-612.50,-253.75,1,94.372,
01/01/2000,01:07:04.90,21.59,-57.58,-992.47,122.50,-682.50,-350.0,1,94.378,
01/01/2000,01:07:04.91,21.47,-57.58,-992.47,148.75,-647.50,-306.25,1,94.383,
01/01/2000,01:07:04.92,21.47,-57.71,-992.23,210.0,-691.25,-358.75,1,94.389,
01/01/2000,01:07:04.93,21.35,-57.71,-992.10,78.75,-700.0,-332.50,1,94.394,
01/01/2000,01:07:04.94,21.47,-57.71,-992.23,236.25,-638.75,-411.25,1,94.400,
01/01/2000,01:07:04.95,21.35,-57.58,-992.35,183.75,-665.0,-393.75,1,94.406,
01/01/2000,01:07:04.96,21.23,-57.58,-992.35,96.25,-787.50,-227.50,1,94.411,
01/01/2000,01:07:04.97,21.11,-57.58,-992.47,131.25,-673.75,-385.0,1,94.417,
01/01/2000,01:07:04.98,21.35,-57.58,-992.59,175.0,-682.50,-306.25,1,94.422,
01/01/2000,01:07:04.99,21.59,-57.58,-992.47,113.75,-717.50,-262.50,1,94.428,
01/01/2000,01:07:05.00,21.47,-57.83,-992.35,192.50,-691.25,-393.75,1,94.433,
01/01/2000,01:07:05.01,21.23,-57.83,-992.10,157.50,-638.75,-315.0,1,94.345,
01/01/2000,01:07:05.02,21.35,-57.58,-992.10,131.25,-621.25,-446.25,1,94.351,
01/01/2000,01:07:05.03,21.47,-57.46,-992.59,245.0,-577.50,-358.75,1,94.356,
01/01/2000,01:07:05.04,21.47,-57.58,-992.47,192.50,-778.75,-288.75,1,94.362,
01/01/2000,01:07:05.05,21.35,-57.71,-992.23,131.25,-586.25,-350.0,1,94.368,
01/01/2000,01:07:05.06,21.35,-57.95,-991.98,227.50,-735.0,-341.25,1,94.373,
01/01/2000,01:07:05.07,21.35,-57.95,-991.98,227.50,-752.50,-332.50,1,94.379,
01/01/2000,01:07:05.09,21.35,-57.83,-992.23,192.50,-752.50,-323.75,1,94.384,
01/01/2000,01:07:05.10,21.23,-57.46,-992.35,113.75,-743.75,-262.50,1,94.390,
01/01/2000,01:07:05.11,21.23,-57.34,-992.23,131.25,-638.75,-227.50,1,94.395,
01/01/2000,01:07:05.12,21.35,-57.46,-992.23,201.25,-586.25,-350.0,1,94.401,
01/01/2000,01:07:05.13,21.35,-57.58,-992.35,43.75,-673.75,-288.75,1,94.406,
01/01/2000,01:07:05.14,21.47,-57.71,-992.59,271.25,-761.25,-376.25,1,94.412,
01/01/2000,01:07:05.15,21.59,-57.58,-992.59,78.75,-831.25,-323.75,1,94.417,
01/01/2000,01:07:05.16,21.59,-57.58,-992.59,201.25,-770.0,-297.50,1,94.330,
01/01/2000,01:07:05.18,21.47,-57.58,-992.35,166.25,-778.75,-262.50,1,94.336,
01/01/2000,01:07:05.19,21.47,-57.71,-992.47,183.75,-770.0,-367.50,1,94.341,
01/01/2000,01:07:05.20,21.47,-57.83,-992.23,17.50,-647.50,-315.0,1,94.347,
01/01/2000,01:07:05.21,21.72,-58.07,-992.10,131.25,-700.0,-332.50,1,94.352,
01/01/2000,01:07:05.22,21.47,-57.71,-992.35,96.25,-752.50,-463.75,1,94.358,
01/01/2000,01:07:05.23,21.59,-57.58,-992.71,26.25,-717.50,-341.25,1,94.363,
01/01/2000,01:07:05.24,21.72,-57.83,-992.71,306.25,-656.25,-393.75,1,94.369,
01/01/2000,01:07:05.25,21.35,-57.58,-992.71,43.75,-612.50,-306.25,1,94.374,
01/01/2000,01:07:05.26,21.47,-57.58,-992.71,175.0,-612.50,-358.75,1,94.380,
01/01/2000,01:07:05.27,21.96,-57.71,-992.71,175.0,-682.50,-341.25,1,94.385,
01/01/2000,01:07:05.28,21.59,-57.95,-992.71,148.75,-726.25,-306.25,1,94.391,
01/01/2000,01:07:05.29,21.23,-58.19,-992.59,227.50,-656.25,-472.50,1,94.396,
01/01/2000,01:07:05.30,21.23,-57.95,-992.35,87.50,-647.50,-350.0,1,94.402,
01/01/2000,01:07:05.31,21.47,-57.83,-992.71,122.50,-638.75,-288.75,1,94.407,
01/01/2000,01:07:05.32,21.47,-57.83,-993.08,148.75,-612.50,-262.50,1,94.412,
01/01/2000,01:07:05.33,21.47,-57.83,-992.96,306.25,-717.50,-332.50,1,94.418,
01/01/2000,01:07:05.34,21.47,-58.07,-992.71,306.25,-682.50,-358.75,1,94.423,
01/01/2000,01:07:05.35,21.47,-57.95,-992.59,61.25,-726.25,-280.0,1,94.428,
01/01/2000,01:07:05.36,21.47,-57.83,-992.71,245.0,-673.75,-455.0,1,94.434,
01/01/2000,01:07:05.37,21.59,-57.58,-992.96,140.0,-700.0,-280.0,1,94.349,
01/01/2000,01:07:05.38,21.59,-57.58,-992.84,288.75,-717.50,-227.50,1,94.354,
01/01/2000,01:07:05.39,21.47,-57.58,-992.71,26.25,-717.50,-332.50,1,94.359,
01/01/2000,01:07:05.40,21.59,-57.83,-992.71,236.25,-787.50,-472.50,1,94.365,
01/01/2000,01:07:05.42,21.84,-57.71,-992.71,122.50,-691.25,-376.25,1,94.370,
01/01/2000,01:07:05.42,21.96,-57.83,-992.59,201.25,-656.25,-341.25,1,94.376,
01/01/2000,01:07:05.44,21.47,-57.83,-992.59,227.50,-673.75,-341.25,1,94.381,
01/01/2000,01:07:05.45,21.47,-57.83,-992.47,201.25,-577.50,-376.25,1,94.386,
01/01/2000,01:07:05.46,21.59,-57.58,-992.35,122.50,-761.25,-280.0,1,94.392,
01/01/2000,01:07:05.47,21.59,-57.71,-992.59,183.75,-665.0,-323.75,1,94.397,
01/01/2000,01:07:05.48,21.47,-57.83,-992.59,87.50,-691.25,-253.75,1,94.402,
01/01/2000,01:07:05.49,21.47,-57.95,-992.35,262.50,-647.50,-367.50,1,94.408,
01/01/2000,01:07:05.50,21.35,-57.83,-992.23,148.75,-612.50,-288.75,1,94.413,
01/01/2000,01:07:05.51,21.47,-57.83,-992.35,157.50,-700.0,-385.0,1,94.329,
01/01/2000,01:07:05.52,21.47,-57.58,-992.71,227.50,-700.0,-350.0,1,94.334,
01/01/2000,01:07:05.53,21.59,-57.58,-992.84,131.25,-708.75,-315.0,1,94.340,
01/01/2000,01:07:05.54,21.47,-57.71,-992.59,70.0,-682.50,-297.50,1,94.345,
01/01/2000,01:07:05.55,21.47,-57.83,-992.59,201.25,-665.0,-402.50,1,94.350,
01/01/2000,01:07:05.56,21.59,-57.95,-992.59,148.75,-630.0,-463.75,1,94.356,
01/01/2000,01:07:05.58,21.84,-57.83,-992.84,210.0,-612.50,-428.75,1,94.361,
01/01/2000,01:07:05.59,21.72,-57.71,-992.84,105.0,-735.0,-280.0,1,94.366,
01/01/2000,01:07:05.60,21.59,-57.71,-992.84,96.25,-735.0,-367.50,1,94.371,
01/01/2000,01:07:05.61,21.59,-57.83,-992.96,210.0,-726.25,-245.0,1,94.377,
01/01/2000,01:07:05.62,21.72,-57.83,-993.08,131.25,-700.0,-358.75,1,94.382,
01/01/2000,01:07:05.63,21.72,-57.83,-993.08,210.0,-787.50,-358.75,1,94.387,
01/01/2000,01:07:05.64,21.47,-57.95,-993.08,122.50,-717.50,-280.0,1,94.393,
01/01/2000,01:07:05.65,21.47,-57.83,-992.96,201.25,-665.0,-315.0,1,94.398,
01/01/2000,01:07:05.66,21.59,-57.83,-993.08,148.75,-638.75,-358.75,1,94.403,
01/01/2000,01:07:05.67,21.59,-57.71,-993.08,245.0,-857.50,-393.75,1,94.408,
01/01/2000,01:07:05.69,21.72,-57.71,-992.96,166.25,-630.0,-297.50,1,94.326,
01/01/2000,01:07:05.70,21.59,-57.58,-992.84,183.75,-682.50,-288.75,1,94.331,
01/01/2000,01:07:05.71,21.72,-57.58,-993.08,218.75,-700.0,-376.25,1,94.336,
01/01/2000,01:07:05.72,21.72,-57.58,-993.08,113.75,-700.0,-236.25,1,94.341,
01/01/2000,01:07:05.73,21.72,-57.46,-993.08,183.75,-761.25,-271.25,1,94.347,
01/01/2000,01:07:05.74,21.59,-57.58,-992.96,96.25,-682.50,-393.75,1,94.352,
01/01/2000,01:07:05.75,21.47,-57.58,-992.84,78.75,-708.75,-358.75,1,94.357,
01/01/2000,01:07:05.76,21.35,-57.58,-993.08,148.75,-612.50,-455.0,1,94.362,
01/01/2000,01:07:05.77,21.35,-57.71,-993.08,148.75,-691.25,-323.75,1,94.368,
01/01/2000,01:07:05.78,21.23,-57.58,-993.08,131.25,-700.0,-367.50,1,94.373,
01/01/2000,01:07:05.79,21.11,-57.46,-993.08,131.25,-647.50,-323.75,1,94.378,
01/01/2000,01:07:05.80,20.98,-57.58,-993.08,192.50,-700.0,-332.50,1,94.383,
01/01/2000,01:07:05.81,21.11,-57.46,-993.08,253.75,-577.50,-358.75,1,94.388,
01/01/2000,01:07:05.82,21.23,-57.34,-993.08,245.0,-638.75,-402.50,1,94.393,
01/01/2000,01:07:05.83,21.11,-57.34,-993.08,105.0,-691.25,-315.0,1,94.399,
01/01/2000,01:07:05.84,21.11,-57.34,-993.08,113.75,-726.25,-385.0,1,94.404,
01/01/2000,01:07:05.85,21.11,-57.34,-993.08,148.75,-743.75,-393.75,1,94.409,
01/01/2000,01:07:05.86,21.11,-57.34,-992.96,78.75,-735.0,-288.75,1,94.414,
01/01/2000,01:07:05.87,20.98,-57.46,-992.84,201.25,-770.0,-315.0,1,94.419,
01/01/2000,01:07:05.88,20.98,-57.46,-992.96,280.0,-665.0,-411.25,1,94.424,
01/01/2000,01:07:05.89,21.11,-57.58,-992.96,175.0,-770.0,-376.25,1,94.429,
01/01/2000,01:07:05.90,21.11,-57.71,-992.84,113.75,-621.25,-341.25,1,94.434,
01/01/2000,01:07:05.91,21.11,-57.71,-992.71,166.25,-656.25,-332.50,1,94.439,
01/01/2000,01:07:05.92,21.23,-57.58,-992.84,315.0,-621.25,-323.75,1,94.444,
01/01/2000,01:07:05.93,21.59,-57.58,-993.08,271.25,-691.25,-358.75,1,94.364,
01/01/2000,01:07:05.94,21.72,-57.58,-993.08,166.25,-577.50,-341.25,1,94.369,
01/01/2000,01:07:05.95,21.72,-57.83,-992.84,175.0,-638.75,-402.50,1,94.374,
01/01/2000,01:07:05.96,21.47,-57.83,-992.59,131.25,-708.75,-315.0,1,94.379,
01/01/2000,01:07:05.98,21.35,-57.71,-992.59,262.50,-700.0,-358.75,1,94.384,
01/01/2000,01:07:05.98,21.59,-57.58,-992.84,148.75,-682.50,-358.75,1,94.389,
01/01/2000,01:07:06.00,21.59,-57.71,-992.84,87.50,-691.25,-367.50,1,94.394,
01/01/2000,01:07:06.01,21.47,-57.83,-992.84,297.50,-647.50,-446.25,1,94.399,
01/01/2000,01:07:06.02,21.35,-57.71,-992.71,70.0,-682.50,-428.75,1,94.404,
01/01/2000,01:07:06.03,21.84,-57.34,-992.84,78.75,-743.75,-402.50,1,94.409,
01/01/2000,01:07:06.04,22.20,-57.34,-993.08,201.25,-630.0,-227.50,1,94.414,
01/01/2000,01:07:06.05,21.84,-57.58,-993.08,201.25,-682.50,-262.50,1,94.419,
01/01/2000,01:07:06.06,21.35,-57.58,-992.84,183.75,-735.0,-420.0,1,94.424,
01/01/2000,01:07:06.07,21.59,-57.46,-992.84,113.75,-638.75,-323.75,1,94.345,
01/01/2000,01:07:06.08,21.84,-57.22,-993.08,122.50,-770.0,-227.50,1,94.350,
01/01/2000,01:07:06.09,21.72,-57.58,-993.08,280.0,-595.0,-280.0,1,94.355,
01/01/2000,01:07:06.10,21.47,-57.71,-992.84,341.25,-586.25,-437.50,1,94.360,
01/01/2000,01:07:06.11,21.59,-57.83,-992.71,192.50,-735.0,-358.75,1,94.365,
01/01/2000,01:07:06.12,21.72,-57.58,-992.96,210.0,-656.25,-341.25,1,94.370,
01/01/2000,01:07:06.13,21.84,-57.46,-993.20,122.50,-630.0,-245.0,1,94.375,
01/01/2000,01:07:06.15,21.59,-57.58,-992.59,122.50,-595.0,-288.75,1,94.380,
01/01/2000,01:07:06.16,21.23,-57.58,-992.35,210.0,-665.0,-315.0,1,94.385,
01/01/2000,01:07:06.17,21.23,-57.71,-992.47,166.25,-726.25,-402.50,1,94.390,
01/01/2000,01:07:06.18,21.47,-57.83,-992.71,271.25,-708.75,-323.75,1,94.395,
01/01/2000,01:07:06.19,21.72,-57.58,-992.96,157.50,-638.75,-201.25,1,94.400,
01/01/2000,01:07:06.20,21.35,-57.71,-992.96,122.50,-647.50,-341.25,1,94.321,
01/01/2000,01:07:06.21,21.23,-57.83,-992.84,113.75,-743.75,-350.0,1,94.326,
01/01/2000,01:07:06.22,21.35,-57.71,-992.84,218.75,-700.0,-306.25,1,94.331,
01/01/2000,01:07:06.23,21.47,-57.58,-992.84,157.50,-665.0,-297.50,1,94.336,
01/01/2000,01:07:06.24,21.59,-57.58,-992.84,122.50,-691.25,-393.75,1,94.341,
01/01/2000,01:07:06.25,21.47,-57.71,-992.84,183.75,-743.75,-393.75,1,94.346,
01/01/2000,01:07:06.26,21.47,-57.71,-992.59,262.50,-638.75,-376.25,1,94.351,
01/01/2000,01:07:06.27,21.59,-57.46,-992.59,166.25,-691.25,-385.0,1,94.356,
01/01/2000,01:07:06.29,21.84,-57.34,-992.71,157.50,-717.50,-367.50,1,94.361,
01/01/2000,01:07:06.30,21.72,-57.46,-992.59,175.0,-752.50,-288.75,1,94.366,
01/01/2000,01:07:06.31,21.47,-57.71,-992.47,140.0,-735.0,-490.0,1,94.371,
01/01/2000,01:07:06.32,21.47,-57.71,-992.47,201.25,-848.75,-350.0,1,94.376,
01/01/2000,01:07:06.33,21.47,-57.58,-992.47,183.75,-726.25,-376.25,1,94.381,
01/01/2000,01:07:06.34,21.59,-57.58,-992.59,122.50,-735.0,-280.0,1,94.386,
01/01/2000,01:07:06.35,21.47,-57.58,-992.59,218.75,-673.75,-218.75,1,94.391,
01/01/2000,01:07:06.36,21.47,-57.46,-992.35,166.25,-700.0,-253.75,1,94.396,
01/01/2000,01:07:06.37,21.47,-57.71,-992.35,192.50,-752.50,-376.25,1,94.401,
01/01/2000,01:07:06.38,21.47,-57.58,-992.47,236.25,-673.75,-411.25,1,94.406,
01/01/2000,01:07:06.39,21.59,-57.34,-992.59,105.0,-603.75,-262.50,1,94.410,
01/01/2000,01:07:06.40,21.47,-57.34,-992.59,236.25,-700.0,-437.50,1,94.415,
01/01/2000,01:07:06.41,21.23,-57.46,-992.47,166.25,-770.0,-332.50,1,94.420,
01/01/2000,01:07:06.42,21.23,-57.46,-992.59,70.0,-673.75,-402.50,1,94.343,
01/01/2000,01:07:06.43,21.35,-57.46,-992.59,245.0,-770.0,-210.0,1,94.348,
01/01/2000,01:07:06.44,21.47,-57.46,-992.59,227.50,-840.0,-323.75,1,94.353,
01/01/2000,01:07:06.45,21.47,-57.58,-992.59,122.50,-717.50,-350.0,1,94.358,
01/01/2000,01:07:06.46,21.47,-57.46,-992.59,140.0,-700.0,-358.75,1,94.363,
01/01/2000,01:07:06.47,21.47,-57.46,-992.59,218.75,-752.50,-376.25,1,94.367,
01/01/2000,01:07:06.48,21.47,-57.34,-992.59,157.50,-673.75,-306.25,1,94.372,
01/01/2000,01:07:06.50,21.47,-57.34,-992.71,245.0,-691.25,-350.0,1,94.377,
01/01/2000,01:07:06.51,21.47,-57.58,-992.59,175.0,-717.50,-350.0,1,94.382,
01/01/2000,01:07:06.52,21.35,-57.58,-992.47,183.75,-813.75,-367.50,1,94.387,
01/01/2000,01:07:06.53,21.35,-57.58,-992.59,236.25,-796.25,-411.25,1,94.392,
01/01/2000,01:07:06.54,21.47,-57.58,-992.59,157.50,-603.75,-306.25,1,94.397,
01/01/2000,01:07:06.55,21.59,-57.46,-992.59,253.75,-560.0,-297.50,1,94.401,
01/01/2000,01:07:06.56,21.35,-57.71,-992.59,358.75,-638.75,-428.75,1,94.406,
01/01/2000,01:07:06.57,21.23,-57.71,-992.84,183.75,-656.25,-393.75,1,94.411,
01/01/2000,01:07:06.58,21.72,-57.58,-992.71,227.50,-621.25,-341.25,1,94.416,
01/01/2000,01:07:06.59,21.96,-57.46,-992.47,87.50,-805.0,-245.0,1,94.421,
01/01/2000,01:07:06.60,21.72,-57.71,-992.35,218.75,-647.50,-253.75,1,94.425,
01/01/2000,01:07:06.61,21.11,-57.95,-992.71,105.0,-612.50,-455.0,1,94.430,
01/01/2000,01:07:06.62,20.98,-57.83,-993.08,245.0,-630.0,-490.0,1,94.435,
01/01/2000,01:07:06.63,21.35,-57.10,-992.84,70.0,-682.50,-332.50,1,94.359,
01/01/2000,01:07:06.65,21.72,-57.22,-992.47,183.75,-761.25,-148.75,1,94.364,
01/01/2000,01:07:06.66,21.59,-57.58,-992.23,113.75,-691.25,-306.25,1,94.369,
01/01/2000,01:07:06.67,21.47,-58.07,-992.23,210.0,-717.50,-507.50,1,94.373,
01/01/2000,01:07:06.68,21.47,-58.07,-992.71,122.50,-630.0,-411.25,1,94.378,
01/01/2000,01:07:06.69,21.72,-57.46,-993.08,105.0,-700.0,-376.25,1,94.383,
01/01/2000,01:07:06.70,21.72,-56.97,-993.08,131.25,-770.0,-227.50,1,94.388,
01/01/2000,01:07:06.71,21.47,-57.22,-992.10,148.75,-665.0,-218.75,1,94.312,
01/01/2000,01:07:06.72,21.35,-57.71,-992.35,113.75,-612.50,-315.0,1,94.317,
01/01/2000,01:07:06.73,21.47,-57.83,-992.71,210.0,-612.50,-341.25,1,94.322,
01/01/2000,01:07:06.74,21.72,-57.71,-993.08,201.25,-770.0,-411.25,1,94.327,
01/01/2000,01:07:06.75,21.72,-57.22,-992.71,218.75,-770.0,-192.50,1,94.332,
01/01/2000,01:07:06.76,21.35,-57.10,-992.10,175.0,-603.75,-288.75,1,94.336,
01/01/2000,01:07:06.78,21.35,-57.46,-992.10,131.25,-656.25,-315.0,1,94.341,
01/01/2000,01:07:06.79,21.59,-57.83,-992.59,253.75,-743.75,-376.25,1,94.346,
01/01/2000,01:07:06.80,21.84,-57.95,-992.84,122.50,-770.0,-446.25,1,94.351,
01/01/2000,01:07:06.81,21.72,-57.83,-992.71,105.0,-700.0,-350.0,1,94.356,
01/01/2000,01:07:06.82,21.47,-57.58,-992.10,175.0,-717.50,-332.50,1,94.360,
01/01/2000,01:07:06.83,21.35,-57.34,-992.10,218.75,-691.25,-358.75,1,94.365,
01/01/2000,01:07:06.84,21.59,-57.22,-992.47,96.25,-647.50,-210.0,1,94.370,
01/01/2000,01:07:06.85,21.72,-57.46,-992.96,122.50,-665.0,-262.50,1,94.374,
01/01/2000,01:07:06.86,21.72,-57.58,-992.84,105.0,-735.0,-428.75,1,94.379,
01/01/2000,01:07:06.87,21.35,-57.58,-992.47,166.25,-665.0,-367.50,1,94.384,
01/01/2000,01:07:06.88,21.35,-57.58,-992.23,157.50,-796.25,-428.75,1,94.389,
01/01/2000,01:07:06.89,21.47,-57.22,-992.35,122.50,-682.50,-315.0,1,94.393,
01/01/2000,01:07:06.90,21.72,-57.34,-992.96,201.25,-673.75,-315.0,1,94.398,
01/01/2000,01:07:06.91,21.47,-57.58,-992.96,52.50,-682.50,-323.75,1,94.403,
01/01/2000,01:07:06.92,21.35,-57.58,-992.59,262.50,-691.25,-358.75,1,94.407,
01/01/2000,01:07:06.93,21.47,-57.46,-992.35,183.75,-638.75,-341.25,1,94.412,
01/01/2000,01:07:06.94,21.72,-57.34,-992.35,201.25,-577.50,-271.25,1,94.417,
01/01/2000,01:07:06.95,21.72,-57.46,-992.71,183.75,-638.75,-428.75,1,94.343,
01/01/2000,01:07:06.96,21.59,-57.71,-992.96,140.0,-761.25,-271.25,1,94.426,
01/01/2000,01:07:06.97,21.47,-57.83,-992.84,210.0,-665.0,-350.0,1,94.352,
01/01/2000,01:07:06.99,21.72,-57.71,-992.47,131.25,-691.25,-227.50,1,94.357,
01/01/2000,01:07:07.00,21.72,-57.58,-992.35,131.25,-761.25,-323.75,1,94.362,
01/01/2000,01:07:07.01,21.72,-57.58,-992.47,113.75,-708.75,-367.50,1,94.366,
01/01/2000,01:07:07.02,21.59,-57.71,-992.71,96.25,-665.0,-358.75,1,94.371,
01/01/2000,01:07:07.03,21.47,-57.71,-992.84,175.0,-743.75,-332.50,1,94.376,
01/01/2000,01:07:07.04,21.47,-57.46,-992.59,70.0,-638.75,-271.25,1,94.380,
01/01/2000,01:07:07.05,21.47,-57.22,-992.47,192.50,-647.50,-428.75,1,94.385,
01/01/2000,01:07:07.06,21.84,-57.22,-992.47,183.75,-673.75,-262.50,1,94.389,
01/01/2000,01:07:07.07,21.72,-57.46,-992.59,122.50,-770.0,-280.0,1,94.394,
01/01/2000,01:07:07.08,21.59,-57.83,-992.47,280.0,-691.25,-297.50,1,94.399,
01/01/2000,01:07:07.09,21.59,-57.58,-992.35,148.75,-770.0,-420.0,1,94.403,
01/01/2000,01:07:07.10,21.59,-57.58,-992.23,192.50,-805.0,-350.0,1,94.408,
01/01/2000,01:07:07.11,21.59,-57.34,-992.23,52.50,-761.25,-332.50,1,94.412,
01/01/2000,01:07:07.12,21.59,-57.46,-992.35,192.50,-700.0,-341.25,1,94.417,
01/01/2000,01:07:07.13,21.72,-57.71,-992.59,113.75,-700.0,-341.25,1,94.344,
01/01/2000,01:07:07.14,21.72,-57.83,-992.59,113.75,-595.0,-341.25,1,94.349,
01/01/2000,01:07:07.15,21.72,-57.83,-992.47,140.0,-700.0,-358.75,1,94.354,
01/01/2000,01:07:07.16,21.72,-57.58,-992.47,26.25,-726.25,-411.25,1,94.358,
01/01/2000,01:07:07.17,21.72,-57.46,-992.35,105.0,-682.50,-385.0,1,94.363,
01/01/2000,01:07:07.18,21.59,-57.46,-992.59,113.75,-665.0,-306.25,1,94.367,
01/01/2000,01:07:07.20,21.59,-57.71,-992.84,87.50,-735.0,-376.25,1,94.372,
01/01/2000,01:07:07.21,21.96,-57.71,-992.84,218.75,-708.75,-271.25,1,94.377,
01/01/2000,01:07:07.22,21.84,-57.71,-992.71,166.25,-682.50,-341.25,1,94.381,
01/01/2000,01:07:07.23,21.72,-57.83,-992.59,148.75,-822.50,-376.25,1,94.309,
01/01/2000,01:07:07.24,21.72,-57.58,-992.59,122.50,-656.25,-297.50,1,94.314,
01/01/2000,01:07:07.25,21.72,-57.58,-992.59,210.0,-717.50,-446.25,1,94.318,
01/01/2000,01:07:07.26,21.72,-57.58,-992.59,166.25,-621.25,-341.25,1,94.323,
01/01/2000,01:07:07.27,21.72,-57.83,-992.47,175.0,-708.75,-271.25,1,94.327,
01/01/2000,01:07:07.28,21.47,-57.71,-992.35,236.25,-682.50,-332.50,1,94.332,
01/01/2000,01:07:07.29,21.59,-57.71,-992.47,183.75,-682.50,-253.75,1,94.337,
01/01/2000,01:07:07.30,21.72,-57.58,-992.59,87.50,-630.0,-341.25,1,94.341,
01/01/2000,01:07:07.31,21.72,-57.58,-992.47,175.0,-603.75,-332.50,1,94.346,
01/01/2000,01:07:07.32,21.59,-57.58,-992.35,166.25,-673.75,-350.0,1,94.350,
01/01/2000,01:07:07.33,21.47,-57.46,-992.35,236.25,-630.0,-428.75,1,94.355,
01/01/2000,01:07:07.35,21.59,-57.46,-992.23,140.0,-612.50,-210.0,1,94.359,
01/01/2000,01:07:07.36,21.72,-57.58,-992.23,148.75,-735.0,-393.75,1,94.364,
01/01/2000,01:07:07.37,21.84,-57.46,-992.35,245.0,-656.25,-367.50,1,94.368,
01/01/2000,01:07:07.38,21.84,-57.46,-992.59,227.50,-700.0,-315.0,1,94.373,
01/01/2000,01:07:07.39,21.72,-57.46,-992.59,113.75,-778.75,-288.75,1,94.378,
01/01/2000,01:07:07.40,21.72,-57.46,-992.59,166.25,-647.50,-262.50,1,94.382,
01/01/2000,01:07:07.41,21.84,-57.46,-992.35,253.75,-717.50,-315.0,1,94.387,
01/01/2000,01:07:07.42,21.84,-57.58,-992.35,148.75,-726.25,-498.75,1,94.391,
01/01/2000,01:07:07.43,21.84,-57.46,-992.35,192.50,-726.25,-358.75,1,94.396,
01/01/2000,01:07:07.44,21.72,-57.34,-992.47,157.50,-796.25,-332.50,1,94.400,
01/01/2000,01:07:07.45,21.72,-57.34,-992.59,43.75,-630.0,-210.0,1,94.404,
01/01/2000,01:07:07.46,21.84,-57.34,-992.59,148.75,-726.25,-376.25,1,94.409,
01/01/2000,01:07:07.47,21.96,-57.46,-992.59,315.0,-752.50,-262.50,1,94.413,
01/01/2000,01:07:07.48,21.96,-57.58,-992.47,113.75,-603.75,-385.0,1,94.343,
01/01/2000,01:07:07.49,21.72,-57.46,-992.35,105.0,-665.0,-306.25,1,94.347,
01/01/2000,01:07:07.50,21.96,-57.46,-992.59,253.75,-700.0,-437.50,1,94.352,
01/01/2000,01:07:07.51,21.96,-57.22,-992.59,78.75,-630.0,-323.75,1,94.356,
01/01/2000,01:07:07.52,21.96,-57.46,-992.84,96.25,-752.50,-341.25,1,94.361,
01/01/2000,01:07:07.53,21.84,-57.71,-992.84,157.50,-595.0,-420.0,1,94.365,
01/01/2000,01:07:07.55,21.96,-57.58,-992.71,201.25,-665.0,-341.25,1,94.370,
01/01/2000,01:07:07.56,22.20,-57.46,-992.71,201.25,-682.50,-323.75,1,94.374,
01/01/2000,01:07:07.57,22.20,-57.34,-992.71,140.0,-717.50,-262.50,1,94.378,
01/01/2000,01:07:07.58,22.08,-57.46,-992.59,105.0,-691.25,-288.75,1,94.383,
01/01/2000,01:07:07.59,21.84,-57.71,-992.84,183.75,-682.50,-428.75,1,94.387,
01/01/2000,01:07:07.60,21.84,-57.58,-992.71,113.75,-673.75,-341.25,1,94.392,
01/01/2000,01:07:07.61,21.84,-57.46,-992.71,157.50,-682.50,-411.25,1,94.396,
01/01/2000,01:07:07.62,21.96,-57.58,-992.47,140.0,-708.75,-350.0,1,94.401,
01/01/2000,01:07:07.63,21.84,-57.83,-992.35,122.50,-560.0,-341.25,1,94.405,
01/01/2000,01:07:07.64,21.72,-57.71,-992.59,262.50,-726.25,-367.50,1,94.335,
01/01/2000,01:07:07.65,21.72,-57.71,-992.59,166.25,-665.0,-428.75,1,94.340,
01/01/2000,01:07:07.66,21.72,-57.58,-992.47,236.25,-665.0,-323.75,1,94.344,
01/01/2000,01:07:07.67,21.47,-57.58,-992.35,245.0,-848.75,-297.50,1,94.349,
01/01/2000,01:07:07.68,21.47,-57.58,-992.35,218.75,-708.75,-376.25,1,94.353,
01/01/2000,01:07:07.70,21.72,-57.71,-992.59,271.25,-735.0,-262.50,1,94.357,
01/01/2000,01:07:07.71,21.72,-57.83,-992.59,113.75,-673.75,-358.75,1,94.362,
01/01/2000,01:07:07.72,21.72,-57.71,-992.59,-35.0,-621.25,-358.75,1,94.366,
01/01/2000,01:07:07.73,21.72,-57.58,-992.35,148.75,-743.75,-271.25,1,94.371,
01/01/2000,01:07:07.74,21.72,-57.58,-992.47,148.75,-770.0,-490.0,1,94.375,
01/01/2000,01:07:07.75,21.59,-57.58,-992.47,113.75,-770.0,-271.25,1,94.379,
01/01/2000,01:07:07.76,21.59,-57.71,-992.47,61.25,-621.25,-262.50,1,94.310,
01/01/2000,01:07:07.77,21.47,-57.71,-992.59,175.0,-717.50,-341.25,1,94.315,
01/01/2000,01:07:07.78,21.47,-57.58,-992.47,87.50,-682.50,-402.50,1,94.319,
01/01/2000,01:07:07.79,21.47,-57.58,-992.47,148.75,-770.0,-358.75,1,94.323,
01/01/2000,01:07:07.80,21.72,-57.58,-992.35,122.50,-726.25,-306.25,1,94.328,
01/01/2000,01:07:07.81,21.72,-57.58,-992.47,166.25,-647.50,-367.50,1,94.332,
01/01/2000,01:07:07.82,21.72,-57.71,-992.59,87.50,-665.0,-358.75,1,94.337,
01/01/2000,01:07:07.83,21.72,-57.83,-992.84,210.0,-761.25,-411.25,1,94.341,
01/01/2000,01:07:07.84,21.59,-57.71,-992.84,113.75,-630.0,-245.0,1,94.345,
01/01/2000,01:07:07.85,21.72,-57.46,-992.84,96.25,-630.0,-210.0,1,94.350,
01/01/2000,01:07:07.86,21.59,-57.58,-992.47,166.25,-735.0,-446.25,1,94.354,
01/01/2000,01:07:07.87,21.47,-57.71,-992.59,218.75,-752.50,-323.75,1,94.359,
01/01/2000,01:07:07.88,21.47,-57.95,-992.59,131.25,-603.75,-385.0,1,94.363,
01/01/2000,01:07:07.89,21.72,-57.83,-992.84,210.0,-656.25,-253.75,1,94.367,
01/01/2000,01:07:07.91,21.59,-57.71,-992.84,210.0,-682.50,-315.0,1,94.372,
01/01/2000,01:07:07.92,21.72,-57.58,-992.84,175.0,-708.75,-367.50,1,94.376,
01/01/2000,01:07:07.93,21.47,-57.83,-992.71,297.50,-638.75,-402.50,1,94.380,
01/01/2000,01:07:07.94,21.59,-57.83,-992.59,175.0,-752.50,-236.25,1,94.385,
01/01/2000,01:07:07.95,21.59,-57.95,-992.59,183.75,-621.25,-332.50,1,94.389,
01/01/2000,01:07:07.96,21.72,-57.95,-992.71,-17.50,-796.25,-297.50,1,94.393,
01/01/2000,01:07:07.98,21.47,-57.71,-992.59,105.0,-770.0,-271.25,1,94.325,
01/01/2000,01:07:07.99,21.47,-57.71,-992.59,113.75,-700.0,-271.25,1,94.329,
01/01/2000,01:07:08.00,21.59,-57.58,-992.71,245.0,-630.0,-332.50,1,94.334,
01/01/2000,01:07:08.01,21.72,-57.46,-992.59,175.0,-735.0,-288.75,1,94.338,
01/01/2000,01:07:08.02,21.72,-57.58,-992.59,105.0,-708.75,-280.0,1,94.343,
01/01/2000,01:07:08.03,21.72,-57.58,-992.59,201.25,-708.75,-455.0,1,94.347,
01/01/2000,01:07:08.04,21.47,-57.58,-992.47,113.75,-691.25,-288.75,1,94.351,
01/01/2000,01:07:08.05,21.72,-57.34,-992.59,262.50,-673.75,-341.25,1,94.355,
01/01/2000,01:07:08.06,21.72,-57.34,-992.59,175.0,-752.50,-297.50,1,94.360,
01/01/2000,01:07:08.07,21.47,-57.58,-992.59,236.25,-586.25,-262.50,1,94.364,
01/01/2000,01:07:08.08,21.47,-57.58,-992.59,78.75,-621.25,-367.50,1,94.368,
01/01/2000,01:07:08.09,21.47,-57.58,-992.47,157.50,-743.75,-411.25,1,94.373,
01/01/2000,01:07:08.10,21.72,-57.58,-992.47,227.50,-691.25,-236.25,1,94.377,
01/01/2000,01:07:08.11,21.72,-57.58,-992.35,262.50,-770.0,-280.0,1,94.381,
01/01/2000,01:07:08.12,21.72,-57.58,-992.47,210.0,-656.25,-332.50,1,94.314,
01/01/2000,01:07:08.13,21.72,-57.83,-992.35,183.75,-700.0,-463.75,1,94.318,
01/01/2000,01:07:08.14,21.72,-57.71,-992.35,166.25,-647.50,-367.50,1,94.322,
01/01/2000,01:07:08.15,21.84,-57.58,-992.47,140.0,-665.0,-323.75,1,94.327,
01/01/2000,01:07:08.16,21.72,-57.58,-992.47,201.25,-612.50,-288.75,1,94.331,
01/01/2000,01:07:08.17,21.59,-57.71,-992.35,175.0,-708.75,-280.0,1,94.335,
01/01/2000,01:07:08.19,21.59,-57.71,-992.35,131.25,-691.25,-271.25,1,94.340,
01/01/2000,01:07:08.20,21.59,-57.83,-992.59,297.50,-735.0,-306.25,1,94.344,
01/01/2000,01:07:08.21,21.72,-57.58,-992.47,70.0,-708.75,-402.50,1,94.348,
01/01/2000,01:07:08.22,21.72,-57.58,-992.47,271.25,-717.50,-376.25,1,94.352,
01/01/2000,01:07:08.23,21.59,-57.58,-992.35,236.25,-647.50,-227.50,1,94.357,
01/01/2000,01:07:08.24,21.59,-57.83,-992.47,157.50,-778.75,-315.0,1,94.361,
01/01/2000,01:07:08.25,21.59,-57.83,-992.59,227.50,-778.75,-411.25,1,94.294,
01/01/2000,01:07:08.26,21.72,-57.71,-992.59,113.75,-700.0,-210.0,1,94.299,
01/01/2000,01:07:08.27,21.84,-57.58,-992.47,175.0,-770.0,-376.25,1,94.303,
01/01/2000,01:07:08.28,21.72,-57.58,-992.47,227.50,-656.25,-332.50,1,94.307,
01/01/2000,01:07:08.29,21.72,-57.83,-992.59,157.50,-673.75,-420.0,1,94.311,
01/01/2000,01:07:08.30,21.72,-57.71,-992.71,210.0,-700.0,-341.25,1,94.316,
01/01/2000,01:07:08.31,21.72,-57.58,-992.71,218.75,-752.50,-385.0,1,94.320,
01/01/2000,01:07:08.32,21.96,-57.58,-992.59,87.50,-630.0,-428.75,1,94.324,
01/01/2000,01:07:08.34,21.72,-57.58,-992.47,87.50,-586.25,-358.75,1,94.328,
01/01/2000,01:07:08.35,21.59,-57.83,-992.47,122.50,-665.0,-367.50,1,94.333,
01/01/2000,01:07:08.36,21.72,-57.71,-992.47,245.0,-743.75,-385.0,1,94.337,
01/01/2000,01:07:08.37,21.72,-57.83,-992.71,87.50,-717.50,-280.0,1,94.341,
01/01/2000,01:07:08.38,21.72,-57.71,-992.71,78.75,-700.0,-227.50,1,94.345,
01/01/2000,01:07:08.39,21.59,-57.71,-992.47,245.0,-708.75,-358.75,1,94.349,
01/01/2000,01:07:08.40,20.98,-57.83,-992.71,210.0,-700.0,-210.0,1,94.354,
01/01/2000,01:07:08.41,21.72,-57.58,-992.71,280.0,-665.0,-595.0,1,94.358,
01/01/2000,01:07:08.42,21.96,-57.58,-992.71,166.25,-682.50,-166.25,1,94.362,
01/01/2000,01:07:08.43,22.08,-57.46,-992.47,140.0,-752.50,-175.0,1,94.366,
01/01/2000,01:07:08.44,21.23,-57.83,-992.59,113.75,-612.50,-253.75,1,94.370,
01/01/2000,01:07:08.45,21.47,-57.58,-992.84,157.50,-525.0,-472.50,1,94.375,
01/01/2000,01:07:08.46,21.96,-57.34,-992.84,201.25,-638.75,-463.75,1,94.379,
01/01/2000,01:07:08.47,21.72,-57.58,-992.59,131.25,-700.0,-122.50,1,94.313,
01/01/2000,01:07:08.48,21.47,-57.58,-992.47,201.25,-673.75,-358.75,1,94.317,
01/01/2000,01:07:08.49,21.35,-57.95,-992.35,297.50,-796.25,-402.50,1,94.322,
01/01/2000,01:07:08.50,21.59,-57.83,-992.71,271.25,-603.75,-376.25,1,94.326,
01/01/2000,01:07:08.51,21.72,-57.58,-993.08,140.0,-700.0,-472.50,1,94.330,
01/01/2000,01:07:08.52,21.72,-57.34,-992.84,35.0,-717.50,-253.75,1,94.334,
01/01/2000,01:07:08.53,21.72,-57.46,-992.59,26.25,-787.50,-280.0,1,94.338,
01/01/2000,01:07:08.55,21.47,-57.71,-992.59,87.50,-682.50,-315.0,1,94.342,
01/01/2000,01:07:08.56,21.47,-57.83,-992.84,70.0,-691.25,-271.25,1,94.347,
01/01/2000,01:07:08.57,21.72,-57.58,-992.96,227.50,-621.25,-647.50,1,94.351,
01/01/2000,01:07:08.58,21.84,-57.34,-992.71,-17.50,-638.75,-288.75,1,94.355,
01/01/2000,01:07:08.59,21.59,-57.34,-992.35,218.75,-665.0,-96.25,1,94.359,
01/01/2000,01:07:08.60,21.11,-57.58,-992.47,288.75,-665.0,-262.50,1,94.363,
01/01/2000,01:07:08.61,21.47,-57.58,-992.84,148.75,-717.50,-455.0,1,94.367,
01/01/2000,01:07:08.62,21.84,-57.46,-992.84,166.25,-612.50,-297.50,1,94.371,
01/01/2000,01:07:08.63,21.72,-57.71,-992.47,131.25,-700.0,-227.50,1,94.375,
01/01/2000,01:07:08.64,21.59,-57.58,-992.23,201.25,-691.25,-516.25,1,94.380,
01/01/2000,01:07:08.65,21.59,-57.71,-992.10,96.25,-612.50,-411.25,1,94.384,
01/01/2000,01:07:08.66,21.84,-57.58,-992.59,218.75,-612.50,-507.50,1,94.319,
01/01/2000,01:07:08.67,21.84,-57.58,-993.08,52.50,-673.75,-201.25,1,94.392,
01/01/2000,01:07:08.69,21.72,-57.58,-992.71,183.75,-726.25,-253.75,1,94.327,
01/01/2000,01:07:08.70,21.47,-57.71,-992.35,113.75,-595.0,-393.75,1,94.331,
01/01/2000,01:07:08.71,21.47,-57.58,-992.35,70.0,-682.50,-341.25,1,94.336,
01/01/2000,01:07:08.72,21.84,-57.58,-992.59,148.75,-752.50,-315.0,1,94.340,
01/01/2000,01:07:08.73,21.96,-57.58,-993.08,113.75,-665.0,-175.0,1,94.344,
01/01/2000,01:07:08.74,21.72,-57.58,-992.84,201.25,-682.50,-315.0,1,94.348,
01/01/2000,01:07:08.76,21.35,-57.58,-992.35,218.75,-638.75,-481.25,1,94.284,
01/01/2000,01:07:08.77,21.59,-57.34,-992.47,140.0,-735.0,-280.0,1,94.288,
01/01/2000,01:07:08.78,21.84,-57.34,-992.71,262.50,-700.0,-245.0,1,94.292,
01/01/2000,01:07:08.79,21.72,-57.58,-992.71,8.75,-708.75,-385.0,1,94.296,
01/01/2000,01:07:08.80,21.23,-57.83,-992.59,175.0,-673.75,-481.25,1,94.300,
01/01/2000,01:07:08.81,21.23,-57.58,-992.47,105.0,-682.50,-428.75,1,94.304,
01/01/2000,01:07:08.82,21.47,-57.34,-992.35,96.25,-708.75,-201.25,1,94.308,
01/01/2000,01:07:08.83,21.84,-57.22,-992.47,166.25,-735.0,-358.75,1,94.312,
01/01/2000,01:07:08.84,21.59,-57.46,-992.47,253.75,-752.50,-280.0,1,94.317,
01/01/2000,01:07:08.85,21.23,-57.83,-992.59,122.50,-708.75,-481.25,1,94.321,
01/01/2000,01:07:08.86,21.47,-57.58,-992.71,192.50,-700.0,-481.25,1,94.325,
01/01/2000,01:07:08.87,21.96,-57.22,-992.71,201.25,-735.0,-315.0,1,94.329,
01/01/2000,01:07:08.88,21.96,-57.22,-992.71,210.0,-778.75,-210.0,1,94.333,
01/01/2000,01:07:08.89,21.72,-57.22,-992.59,280.0,-708.75,-245.0,1,94.337,
01/01/2000,01:07:08.90,21.47,-57.71,-992.47,131.25,-717.50,-428.75,1,94.341,
01/01/2000,01:07:08.91,21.59,-57.58,-992.59,227.50,-735.0,-420.0,1,94.345,
01/01/2000,01:07:08.92,21.84,-57.34,-992.59,140.0,-621.25,-288.75,1,94.349,
01/01/2000,01:07:08.93,21.84,-57.34,-992.35,70.0,-612.50,-332.50,1,94.353,
01/01/2000,01:07:08.94,21.72,-57.46,-992.35,140.0,-700.0,-315.0,1,94.357,
01/01/2000,01:07:08.95,21.47,-57.58,-992.35,175.0,-647.50,-420.0,1,94.361,
01/01/2000,01:07:08.96,21.47,-57.71,-992.71,227.50,-805.0,-463.75,1,94.365,
01/01/2000,01:07:08.98,21.84,-57.34,-992.84,192.50,-717.50,-297.50,1,94.302,
01/01/2000,01:07:08.98,21.72,-57.22,-992.47,210.0,-665.0,-236.25,1,94.306,
01/01/2000,01:07:09.00,21.59,-57.34,-992.35,131.25,-700.0,-227.50,1,94.310,
01/01/2000,01:07:09.01,21.59,-57.58,-992.35,131.25,-700.0,-428.75,1,94.314,
01/01/2000,01:07:09.02,21.72,-57.58,-992.71,113.75,-700.0,-306.25,1,94.318,
01/01/2000,01:07:09.03,21.96,-57.34,-992.84,105.0,-638.75,-341.25,1,94.322,
01/01/2000,01:07:09.04,21.84,-57.46,-992.47,210.0,-752.50,-227.50,1,94.326,
01/01/2000,01:07:09.05,21.72,-57.46,-992.23,306.25,-752.50,-253.75,1,94.330,
01/01/2000,01:07:09.06,21.72,-57.46,-992.35,148.75,-665.0,-367.50,1,94.334,
01/01/2000,01:07:09.07,21.84,-57.34,-992.35,35.0,-743.75,-341.25,1,94.338,
01/01/2000,01:07:09.08,21.72,-57.34,-992.59,87.50,-673.75,-262.50,1,94.342,
01/01/2000,01:07:09.09,21.72,-57.34,-992.47,78.75,-673.75,-271.25,1,94.346,
01/01/2000,01:07:09.10,21.59,-57.34,-992.35,148.75,-717.50,-350.0,1,94.350,
01/01/2000,01:07:09.11,21.72,-57.22,-992.59,96.25,-691.25,-288.75,1,94.288,
01/01/2000,01:07:09.12,21.84,-57.34,-992.59,218.75,-656.25,-280.0,1,94.292,
01/01/2000,01:07:09.13,21.72,-57.46,-992.59,140.0,-735.0,-367.50,1,94.296,
01/01/2000,01:07:09.14,21.72,-57.58,-992.35,78.75,-708.75,-455.0,1,94.300,
01/01/2000,01:07:09.15,21.59,-57.34,-992.23,218.75,-735.0,-297.50,1,94.304,
01/01/2000,01:07:09.16,21.72,-57.34,-992.23,140.0,-691.25,-306.25,1,94.308,
01/01/2000,01:07:09.17,21.72,-57.34,-992.35,148.75,-700.0,-332.50,1,94.312,
01/01/2000,01:07:09.19,21.72,-57.58,-992.47,140.0,-691.25,-262.50,1,94.316,
01/01/2000,01:07:09.20,21.72,-57.71,-992.47,113.75,-603.75,-393.75,1,94.320,
01/01/2000,01:07:09.21,21.59,-57.58,-992.47,262.50,-743.75,-367.50,1,94.324,
01/01/2000,01:07:09.22,21.72,-57.34,-992.59,105.0,-726.25,-341.25,1,94.328,
01/01/2000,01:07:09.23,21.84,-57.34,-992.71,122.50,-700.0,-341.25,1,94.332,
01/01/2000,01:07:09.24,21.59,-57.34,-992.59,183.75,-717.50,-253.75,1,94.336,
01/01/2000,01:07:09.25,21.47,-57.46,-992.59,87.50,-770.0,-332.50,1,94.340,
01/01/2000,01:07:09.26,21.59,-57.58,-992.47,175.0,-735.0,-560.0,1,94.278,
01/01/2000,01:07:09.28,21.72,-57.46,-992.47,253.75,-717.50,-157.50,1,94.282,
01/01/2000,01:07:09.29,21.72,-57.34,-992.35,-26.25,-682.50,-402.50,1,94.286,
01/01/2000,01:07:09.30,21.59,-57.58,-992.35,183.75,-761.25,-280.0,1,94.290,
01/01/2000,01:07:09.31,21.72,-57.58,-992.35,122.50,-717.50,-350.0,1,94.294,
01/01/2000,01:07:09.32,21.96,-57.58,-992.35,122.50,-577.50,-367.50,1,94.298,
01/01/2000,01:07:09.33,21.72,-57.58,-992.35,218.75,-761.25,-227.50,1,94.302,
01/01/2000,01:07:09.34,21.72,-57.71,-992.35,26.25,-691.25,-288.75,1,94.306,
01/01/2000,01:07:09.35,21.72,-57.58,-992.23,175.0,-770.0,-306.25,1,94.310,
01/01/2000,01:07:09.36,21.72,-57.71,-992.35,131.25,-831.25,-280.0,1,94.313,
01/01/2000,01:07:09.37,21.59,-57.83,-992.47,166.25,-735.0,-376.25,1,94.317,
01/01/2000,01:07:09.38,21.47,-57.83,-992.59,148.75,-708.75,-367.50,1,94.321,
01/01/2000,01:07:09.39,21.84,-57.71,-992.47,87.50,-708.75,-437.50,1,94.325,
01/01/2000,01:07:09.40,21.84,-57.83,-992.35,245.0,-691.25,-245.0,1,94.329,
01/01/2000,01:07:09.41,21.72,-57.95,-992.35,148.75,-708.75,-323.75,1,94.333,
01/01/2000,01:07:09.42,21.72,-58.07,-992.35,131.25,-735.0,-446.25,1,94.337,
01/01/2000,01:07:09.43,21.72,-57.71,-992.59,192.50,-656.25,-288.75,1,94.341,
01/01/2000,01:07:09.44,21.84,-57.58,-992.59,87.50,-630.0,-341.25,1,94.345,
01/01/2000,01:07:09.45,21.84,-57.58,-992.35,218.75,-612.50,-280.0,1,94.349,
01/01/2000,01:07:09.46,21.72,-57.83,-992.10,105.0,-691.25,-332.50,1,94.353,
01/01/2000,01:07:09.47,21.72,-57.83,-992.23,113.75,-822.50,-437.50,1,94.357,
01/01/2000,01:07:09.48,21.72,-57.83,-992.47,148.75,-752.50,-385.0,1,94.360,
01/01/2000,01:07:09.49,21.72,-57.83,-992.47,262.50,-743.75,-323.75,1,94.364,
01/01/2000,01:07:09.50,21.59,-57.58,-992.59,201.25,-708.75,-385.0,1,94.368,
01/01/2000,01:07:09.51,21.59,-57.58,-992.35,175.0,-700.0,-341.25,1,94.372,
01/01/2000,01:07:09.52,21.47,-57.46,-992.23,0.0,-778.75,-332.50,1,94.376,
01/01/2000,01:07:09.53,21.47,-57.71,-992.35,218.75,-691.25,-350.0,1,94.315,
01/01/2000,01:07:09.54,21.47,-57.71,-992.35,175.0,-726.25,-332.50,1,94.319,
01/01/2000,01:07:09.55,21.72,-57.71,-992.23,148.75,-735.0,-227.50,1,94.323,
01/01/2000,01:07:09.56,21.47,-57.58,-992.10,192.50,-752.50,-350.0,1,94.327,
01/01/2000,01:07:09.57,21.47,-57.58,-992.35,78.75,-700.0,-280.0,1,94.331,
01/01/2000,01:07:09.58,21.47,-57.58,-992.35,166.25,-638.75,-402.50,1,94.334,
01/01/2000,01:07:09.60,21.59,-57.46,-992.47,96.25,-656.25,-306.25,1,94.338,
01/01/2000,01:07:09.61,21.72,-57.58,-992.47,17.50,-700.0,-341.25,1,94.342,
01/01/2000,01:07:09.62,21.47,-57.71,-992.35,131.25,-656.25,-341.25,1,94.346,
01/01/2000,01:07:09.63,21.47,-57.58,-992.35,201.25,-595.0,-315.0,1,94.350,
01/01/2000,01:07:09.64,21.47,-57.34,-992.35,201.25,-778.75,-323.75,1,94.354,
01/01/2000,01:07:09.65,21.47,-57.34,-992.35,315.0,-647.50,-280.0,1,94.358,
01/01/2000,01:07:09.66,21.59,-57.46,-992.35,218.75,-735.0,-288.75,1,94.361,
01/01/2000,01:07:09.67,21.72,-57.58,-992.23,210.0,-770.0,-280.0,1,94.301,
01/01/2000,01:07:09.68,21.72,-57.58,-992.35,70.0,-638.75,-358.75,1,94.305,
01/01/2000,01:07:09.69,21.72,-57.58,-992.35,78.75,-673.75,-323.75,1,94.309,
01/01/2000,01:07:09.70,21.72,-57.58,-992.59,96.25,-656.25,-323.75,1,94.313,
01/01/2000,01:07:09.71,21.72,-57.71,-992.59,201.25,-700.0,-437.50,1,94.317,
01/01/2000,01:07:09.72,21.72,-57.58,-992.59,87.50,-577.50,-323.75,1,94.320,
01/01/2000,01:07:09.73,21.84,-57.71,-992.59,140.0,-717.50,-358.75,1,94.324,
01/01/2000,01:07:09.75,21.72,-57.83,-992.59,140.0,-700.0,-350.0,1,94.328,
01/01/2000,01:07:09.76,21.72,-57.83,-992.59,385.0,-743.75,-315.0,1,94.332,
01/01/2000,01:07:09.77,21.72,-57.83,-992.59,227.50,-682.50,-350.0,1,94.336,
01/01/2000,01:07:09.78,21.59,-57.71,-992.59,175.0,-700.0,-332.50,1,94.340,
01/01/2000,01:07:09.79,21.59,-57.71,-992.59,122.50,-647.50,-306.25,1,94.343,
01/01/2000,01:07:09.80,21.59,-57.58,-992.59,96.25,-665.0,-341.25,1,94.347,
01/01/2000,01:07:09.81,21.72,-57.58,-992.71,271.25,-630.0,-358.75,1,94.288,
01/01/2000,01:07:09.82,21.72,-57.58,-992.59,218.75,-638.75,-350.0,1,94.291,
01/01/2000,01:07:09.83,21.72,-57.58,-992.59,140.0,-682.50,-323.75,1,94.295,
01/01/2000,01:07:09.84,21.84,-57.46,-992.59,52.50,-735.0,-428.75,1,94.299,
01/01/2000,01:07:09.85,21.96,-57.46,-992.59,201.25,-682.50,-280.0,1,94.303,
01/01/2000,01:07:09.86,21.96,-57.46,-992.59,96.25,-726.25,-218.75,1,94.307,
01/01/2000,01:07:09.87,21.96,-57.83,-992.71,157.50,-603.75,-323.75,1,94.311,
01/01/2000,01:07:09.88,21.84,-57.83,-992.59,236.25,-656.25,-402.50,1,94.314,
01/01/2000,01:07:09.90,21.84,-57.83,-992.59,236.25,-778.75,-341.25,1,94.318,
01/01/2000,01:07:09.90,21.84,-57.83,-992.59,43.75,-656.25,-411.25,1,94.322,
01/01/2000,01:07:09.92,21.72,-57.71,-992.59,166.25,-638.75,-315.0,1,94.326,
01/01/2000,01:07:09.93,21.72,-57.71,-992.71,192.50,-743.75,-297.50,1,94.330,
01/01/2000,01:07:09.94,21.84,-57.83,-992.84,183.75,-708.75,-341.25,1,94.333,
01/01/2000,01:07:09.95,21.84,-57.71,-992.84,70.0,-761.25,-341.25,1,94.337,
01/01/2000,01:07:09.96,21.59,-57.58,-992.84,96.25,-735.0,-271.25,1,94.341,
01/01/2000,01:07:09.97,21.47,-57.58,-992.59,201.25,-647.50,-376.25,1,94.345,
01/01/2000,01:07:09.98,21.35,-57.58,-992.71,140.0,-673.75,-288.75,1,94.348,
01/01/2000,01:07:09.99,21.84,-57.34,-992.59,157.50,-630.0,-402.50,1,94.352,
01/01/2000,01:07:10.00,21.72,-57.58,-992.47,192.50,-752.50,-157.50,1,94.356,
01/01/2000,01:07:10.01,21.84,-57.58,-992.47,52.50,-761.25,-236.25,1,94.360,
01/01/2000,01:07:10.02,21.47,-57.83,-992.47,166.25,-638.75,-472.50,1,94.301,
01/01/2000,01:07:10.03,21.72,-57.46,-992.47,140.0,-682.50,-323.75,1,94.305,
01/01/2000,01:07:10.04,21.84,-57.34,-992.59,70.0,-673.75,-288.75,1,94.308,
01/01/2000,01:07:10.05,21.59,-57.58,-992.59,166.25,-778.75,-210.0,1,94.312,
01/01/2000,01:07:10.06,21.35,-57.83,-992.35,78.75,-665.0,-306.25,1,94.316,
01/01/2000,01:07:10.07,21.35,-57.95,-992.47,271.25,-656.25,-446.25,1,94.320,
01/01/2000,01:07:10.08,21.47,-57.58,-992.59,175.0,-577.50,-297.50,1,94.323,
01/01/2000,01:07:10.10,21.59,-57.58,-992.35,201.25,-586.25,-385.0,1,94.327,
01/01/2000,01:07:10.11,21.47,-57.58,-992.23,131.25,-682.50,-332.50,1,94.331,
01/01/2000,01:07:10.12,21.47,-57.83,-992.35,210.0,-717.50,-490.0,1,94.335,
01/01/2000,01:07:10.13,21.47,-57.95,-992.47,122.50,-621.25,-367.50,1,94.338,
01/01/2000,01:07:10.14,21.59,-57.83,-992.59,315.0,-630.0,-376.25,1,94.342,
01/01/2000,01:07:10.15,21.59,-57.71,-992.47,157.50,-726.25,-428.75,1,94.346,
01/01/2000,01:07:10.16,21.47,-57.71,-992.23,122.50,-770.0,-393.75,1,94.350,
01/01/2000,01:07:10.17,21.47,-57.71,-992.23,183.75,-638.75,-385.0,1,94.353,
01/01/2000,01:07:10.18,21.47,-57.95,-992.35,236.25,-708.75,-341.25,1,94.357,
01/01/2000,01:07:10.19,21.47,-57.83,-992.47,253.75,-708.75,-367.50,1,94.361,
01/01/2000,01:07:10.20,21.47,-57.95,-992.47,201.25,-647.50,-297.50,1,94.364,
01/01/2000,01:07:10.21,21.47,-57.83,-992.35,87.50,-761.25,-288.75,1,94.368,
01/01/2000,01:07:10.22,21.47,-57.71,-992.35,35.0,-647.50,-428.75,1,94.372,
01/01/2000,01:07:10.23,21.35,-57.58,-992.59,140.0,-726.25,-367.50,1,94.314,
01/01/2000,01:07:10.24,21.47,-57.71,-992.71,113.75,-665.0,-323.75,1,94.317,
01/01/2000,01:07:10.25,21.47,-57.58,-992.47,236.25,-726.25,-350.0,1,94.321,
01/01/2000,01:07:10.26,21.23,-57.71,-992.23,210.0,-603.75,-385.0,1,94.325,
01/01/2000,01:07:10.27,21.23,-57.71,-992.10,166.25,-612.50,-367.50,1,94.329,
01/01/2000,01:07:10.29,21.23,-57.71,-992.59,297.50,-586.25,-411.25,1,94.332,
01/01/2000,01:07:10.30,21.47,-57.83,-992.59,105.0,-682.50,-350.0,1,94.336,
01/01/2000,01:07:10.31,21.47,-57.58,-992.47,96.25,-665.0,-341.25,1,94.340,
01/01/2000,01:07:10.32,21.35,-57.71,-992.23,210.0,-691.25,-358.75,1,94.343,
01/01/2000,01:07:10.33,21.35,-57.83,-992.35,70.0,-708.75,-323.75,1,94.347,
01/01/2000,01:07:10.34,21.47,-57.71,-992.47,166.25,-761.25,-350.0,1,94.351,
01/01/2000,01:07:10.35,21.59,-57.71,-992.59,157.50,-708.75,-271.25,1,94.354,
01/01/2000,01:07:10.36,21.59,-57.71,-992.47,131.25,-656.25,-376.25,1,94.358,
01/01/2000,01:07:10.37,21.47,-57.58,-992.23,218.75,-630.0,-236.25,1,94.362,
01/01/2000,01:07:10.38,21.47,-57.58,-992.35,113.75,-656.25,-455.0,1,94.304,
01/01/2000,01:07:10.39,21.47,-57.58,-992.47,43.75,-647.50,-332.50,1,94.308,
01/01/2000,01:07:10.40,21.47,-57.58,-992.59,148.75,-735.0,-306.25,1,94.312,
01/01/2000,01:07:10.41,21.59,-57.58,-992.35,113.75,-682.50,-402.50,1,94.315,
01/01/2000,01:07:10.42,21.47,-57.83,-992.23,105.0,-656.25,-253.75,1,94.319,
01/01/2000,01:07:10.43,21.23,-57.83,-992.23,52.50,-735.0,-358.75,1,94.323,
01/01/2000,01:07:10.45,21.47,-57.71,-992.59,227.50,-717.50,-350.0,1,94.326,
01/01/2000,01:07:10.46,21.47,-57.58,-992.71,175.0,-726.25,-358.75,1,94.330,
01/01/2000,01:07:10.47,21.47,-57.58,-992.84,183.75,-700.0,-376.25,1,94.334,
01/01/2000,01:07:10.48,21.35,-57.58,-992.47,236.25,-717.50,-341.25,1,94.337,
01/01/2000,01:07:10.49,21.47,-57.71,-992.35,140.0,-717.50,-393.75,1,94.341,
01/01/2000,01:07:10.50,21.59,-57.71,-992.47,148.75,-726.25,-376.25,1,94.344,
01/01/2000,01:07:10.51,21.59,-57.71,-992.47,210.0,-638.75,-323.75,1,94.348,
01/01/2000,01:07:10.52,21.59,-57.58,-992.47,113.75,-673.75,-367.50,1,94.352,
01/01/2000,01:07:10.53,21.72,-57.58,-992.35,297.50,-630.0,-271.25,1,94.355,
01/01/2000,01:07:10.54,21.59,-57.58,-992.23,183.75,-700.0,-376.25,1,94.359,
01/01/2000,01:07:10.55,21.59,-57.71,-992.23,87.50,-708.75,-271.25,1,94.363,
01/01/2000,01:07:10.56,21.72,-57.83,-992.35,227.50,-630.0,-288.75,1,94.366,
01/01/2000,01:07:10.57,21.72,-57.58,-992.59,192.50,-682.50,-376.25,1,94.370,
01/01/2000,01:07:10.58,21.59,-57.58,-992.47,201.25,-656.25,-332.50,1,94.313,
01/01/2000,01:07:10.59,21.47,-57.58,-992.35,218.75,-761.25,-288.75,1,94.317,
01/01/2000,01:07:10.60,21.47,-57.58,-992.35,122.50,-700.0,-262.50,1,94.320,
01/01/2000,01:07:10.61,21.47,-57.71,-992.47,175.0,-700.0,-297.50,1,94.324,
01/01/2000,01:07:10.62,21.47,-57.71,-992.59,131.25,-726.25,-236.25,1,94.328,
01/01/2000,01:07:10.63,21.47,-57.71,-992.35,35.0,-761.25,-341.25,1,94.331,
01/01/2000,01:07:10.65,21.47,-57.58,-992.35,78.75,-752.50,-306.25,1,94.335,
01/01/2000,01:07:10.66,21.47,-57.58,-992.35,113.75,-813.75,-280.0,1,94.338,
01/01/2000,01:07:10.67,21.47,-57.83,-992.59,87.50,-673.75,-367.50,1,94.342,
01/01/2000,01:07:10.68,21.47,-57.83,-992.59,70.0,-621.25,-271.25,1,94.346,
01/01/2000,01:07:10.69,21.47,-57.95,-992.59,201.25,-708.75,-341.25,1,94.349,
01/01/2000,01:07:10.70,21.47,-57.83,-992.23,175.0,-691.25,-315.0,1,94.353,
01/01/2000,01:07:10.71,20.74,-57.95,-992.35,17.50,-560.0,-192.50,1,94.356,
01/01/2000,01:07:10.72,21.72,-57.83,-992.35,568.75,-770.0,-691.25,1,94.360,
01/01/2000,01:07:10.73,21.84,-58.19,-992.23,516.25,-708.75,35.0,1,94.304,
01/01/2000,01:07:10.74,21.72,-57.58,-992.23,-218.75,-796.25,-17.50,1,94.307,
01/01/2000,01:07:10.75,20.62,-58.56,-992.47,218.75,-805.0,-568.75,1,94.311,
01/01/2000,01:07:10.76,21.59,-57.58,-992.59,157.50,-717.50,-1181.25,1,94.315,
01/01/2000,01:07:10.77,21.72,-57.34,-992.59,175.0,-577.50,-183.75,1,94.318,
01/01/2000,01:07:10.78,21.35,-57.46,-992.35,-70.0,-612.50,428.75,1,94.322,
01/01/2000,01:07:10.80,21.23,-57.83,-992.10,17.50,-647.50,-988.75,1,94.325,
01/01/2000,01:07:10.81,21.23,-57.95,-992.47,236.25,-568.75,-472.50,1,94.329,
01/01/2000,01:07:10.82,21.35,-57.71,-992.71,113.75,-568.75,-8.75,1,94.332,
01/01/2000,01:07:10.83,21.47,-57.58,-992.47,166.25,-621.25,-367.50,1,94.336,
01/01/2000,01:07:10.84,21.23,-57.71,-992.23,87.50,-752.50,-227.50,1,94.280,
01/01/2000,01:07:10.85,21.23,-57.83,-992.10,131.25,-735.0,-315.0,1,94.343,
01/01/2000,01:07:10.86,21.35,-58.07,-992.47,218.75,-665.0,-472.50,1,94.288,
01/01/2000,01:07:10.87,21.47,-57.95,-992.71,166.25,-717.50,-323.75,1,94.291,
01/01/2000,01:07:10.88,21.72,-57.58,-992.59,131.25,-892.50,-236.25,1,94.295,
01/01/2000,01:07:10.89,21.47,-57.71,-992.35,280.0,-770.0,-262.50,1,94.298,
01/01/2000,01:07:10.90,21.35,-57.46,-992.23,70.0,-770.0,-472.50,1,94.302,
01/01/2000,01:07:10.91,21.47,-57.71,-992.35,166.25,-691.25,-262.50,1,94.305,
01/01/2000,01:07:10.92,21.59,-57.71,-992.59,157.50,-673.75,-446.25,1,94.309,
01/01/2000,01:07:10.93,21.59,-57.83,-992.71,113.75,-656.25,-516.25,1,94.313,
01/01/2000,01:07:10.95,21.47,-57.83,-992.35,262.50,-708.75,-280.0,1,94.316,
01/01/2000,01:07:10.96,21.47,-57.71,-991.98,192.50,-682.50,-428.75,1,94.320,
01/01/2000,01:07:10.97,21.47,-57.71,-991.98,271.25,-603.75,-271.25,1,94.323,
01/01/2000,01:07:10.98,21.59,-57.71,-992.35,253.75,-735.0,-420.0,1,94.327,
01/01/2000,01:07:10.99,21.59,-57.58,-992.35,210.0,-656.25,-315.0,1,94.330,
01/01/2000,01:07:11.00,21.47,-57.71,-992.10,166.25,-586.25,-297.50,1,94.334,
01/01/2000,01:07:11.01,21.23,-57.58,-991.98,245.0,-796.25,-428.75,1,94.337,
01/01/2000,01:07:11.02,21.47,-57.46,-991.98,87.50,-708.75,-271.25,1,94.341,
01/01/2000,01:07:11.03,21.47,-57.34,-992.23,131.25,-647.50,-323.75,1,94.344,
01/01/2000,01:07:11.04,21.47,-57.71,-992.59,183.75,-761.25,-245.0,1,94.348,
01/01/2000,01:07:11.05,21.35,-57.71,-992.47,210.0,-673.75,-358.75,1,94.351,
01/01/2000,01:07:11.06,21.47,-57.71,-992.10,157.50,-630.0,-393.75,1,94.355,
01/01/2000,01:07:11.07,21.72,-57.58,-992.23,175.0,-831.25,-218.75,1,94.358,
01/01/2000,01:07:11.08,21.72,-57.71,-992.47,105.0,-647.50,-271.25,1,94.303,
01/01/2000,01:07:11.09,21.72,-57.71,-992.59,35.0,-682.50,-262.50,1,94.307,
01/01/2000,01:07:11.10,21.59,-57.95,-992.59,105.0,-682.50,-315.0,1,94.310,
01/01/2000,01:07:11.11,21.59,-57.95,-992.59,262.50,-656.25,-393.75,1,94.314,
01/01/2000,01:07:11.12,21.72,-57.83,-992.59,96.25,-673.75,-437.50,1,94.317,
01/01/2000,01:07:11.13,21.84,-57.83,-992.47,78.75,-735.0,-367.50,1,94.321,
01/01/2000,01:07:11.14,21.59,-57.95,-992.59,70.0,-673.75,-315.0,1,94.324,
01/01/2000,01:07:11.16,21.47,-58.07,-992.71,236.25,-647.50,-498.75,1,94.328,
01/01/2000,01:07:11.17,21.59,-58.07,-992.47,183.75,-630.0,-315.0,1,94.331,
01/01/2000,01:07:11.18,21.72,-57.83,-992.35,236.25,-743.75,-358.75,1,94.335,
01/01/2000,01:07:11.19,21.59,-57.83,-992.35,61.25,-682.50,-341.25,1,94.338,
01/01/2000,01:07:11.20,21.35,-57.83,-992.35,227.50,-770.0,-341.25,1,94.342,
01/01/2000,01:07:11.21,21.35,-57.95,-992.47,227.50,-726.25,-446.25,1,94.345,
01/01/2000,01:07:11.22,21.47,-57.83,-992.47,183.75,-647.50,-297.50,1,94.349,
01/01/2000,01:07:11.23,21.72,-57.58,-992.47,201.25,-691.25,-341.25,1,94.352,
01/01/2000,01:07:11.24,21.72,-57.58,-992.47,148.75,-665.0,-315.0,1,94.356,
01/01/2000,01:07:11.25,21.72,-57.71,-992.35,192.50,-682.50,-385.0,1,94.359,
01/01/2000,01:07:11.26,21.47,-57.83,-992.59,227.50,-630.0,-411.25,1,94.363,
01/01/2000,01:07:11.27,21.47,-57.83,-992.71,288.75,-743.75,-297.50,1,94.366,
01/01/2000,01:07:11.28,21.47,-57.71,-992.84,280.0,-630.0,-245.0,1,94.370,
01/01/2000,01:07:11.29,21.72,-57.58,-992.59,157.50,-700.0,-210.0,1,94.315,
01/01/2000,01:07:11.30,21.96,-57.58,-992.47,87.50,-647.50,-420.0,1,94.319,
01/01/2000,01:07:11.32,21.72,-58.07,-992.59,218.75,-630.0,-385.0,1,94.322,
01/01/2000,01:07:11.33,21.72,-58.07,-992.71,175.0,-647.50,-332.50,1,94.326,
01/01/2000,01:07:11.34,21.84,-57.71,-992.71,113.75,-700.0,-393.75,1,94.329,
01/01/2000,01:07:11.35,21.96,-57.58,-992.59,306.25,-717.50,-262.50,1,94.333,
01/01/2000,01:07:11.36,21.96,-57.46,-992.35,113.75,-726.25,-315.0,1,94.336,
01/01/2000,01:07:11.37,21.72,-57.83,-992.35,148.75,-726.25,-411.25,1,94.340,
01/01/2000,01:07:11.38,21.96,-57.83,-992.47,148.75,-630.0,-463.75,1,94.343,
01/01/2000,01:07:11.39,21.96,-57.58,-992.59,70.0,-726.25,-315.0,1,94.347,
01/01/2000,01:07:11.40,21.96,-57.58,-992.35,166.25,-673.75,-306.25,1,94.350,
01/01/2000,01:07:11.41,21.72,-57.34,-992.23,245.0,-752.50,-358.75,1,94.353,
01/01/2000,01:07:11.42,21.84,-57.34,-992.23,236.25,-796.25,-245.0,1,94.357,
01/01/2000,01:07:11.43,21.96,-57.46,-992.47,157.50,-638.75,-297.50,1,94.303,
01/01/2000,01:07:11.44,21.84,-57.83,-992.71,113.75,-735.0,-507.50,1,94.306,
01/01/2000,01:07:11.45,21.84,-57.71,-992.47,17.50,-603.75,-297.50,1,94.310,
01/01/2000,01:07:11.46,21.72,-57.71,-992.23,350.0,-682.50,-411.25,1,94.313,
01/01/2000,01:07:11.47,21.72,-57.58,-992.10,210.0,-647.50,-253.75,1,94.317,
01/01/2000,01:07:11.48,21.84,-57.46,-992.35,227.50,-787.50,-288.75,1,94.320,
01/01/2000,01:07:11.49,21.84,-57.58,-992.47,210.0,-761.25,-332.50,1,94.324,
01/01/2000,01:07:11.50,21.84,-57.58,-992.35,78.75,-630.0,-262.50,1,94.327,
01/01/2000,01:07:11.51,21.72,-57.58,-992.23,70.0,-665.0,-306.25,1,94.331,
01/01/2000,01:07:11.52,21.96,-57.58,-991.98,280.0,-630.0,-402.50,1,94.334,
01/01/2000,01:07:11.53,21.96,-57.46,-992.10,166.25,-726.25,-280.0,1,94.337,
01/01/2000,01:07:11.54,21.96,-57.46,-992.23,201.25,-656.25,-262.50,1,94.341,
01/01/2000,01:07:11.56,21.84,-57.46,-992.35,157.50,-612.50,-210.0,1,94.344,
01/01/2000,01:07:11.56,21.72,-57.58,-992.10,245.0,-656.25,-341.25,1,94.348,
01/01/2000,01:07:11.58,21.84,-57.58,-992.10,113.75,-595.0,-315.0,1,94.351,
01/01/2000,01:07:11.59,21.84,-57.58,-991.98,148.75,-761.25,-393.75,1,94.354,
01/01/2000,01:07:11.60,21.72,-57.58,-992.23,122.50,-656.25,-148.75,1,94.358,
01/01/2000,01:07:11.61,21.72,-57.58,-992.35,236.25,-691.25,-227.50,1,94.361,
01/01/2000,01:07:11.62,21.72,-57.58,-992.35,70.0,-787.50,-341.25,1,94.365,
01/01/2000,01:07:11.63,21.72,-57.46,-992.10,201.25,-700.0,-297.50,1,94.368,
01/01/2000,01:07:11.64,21.59,-57.58,-992.10,96.25,-630.0,-420.0,1,94.315,
01/01/2000,01:07:11.65,21.72,-57.58,-992.23,148.75,-752.50,-236.25,1,94.318,
