rtcDate,rtcTime,aX,aY,aZ,gX,gY,gZ,dataRdy,output_Hz,
01/01/2000,01:40:46.12,11.96,-63.93,-862.78,210.0,-612.50,-393.75,1,100.0,
01/01/2000,01:40:46.14,12.69,-66.12,-892.43,148.75,-638.75,-358.75,1,100.0,
01/01/2000,01:40:46.15,12.93,-66.86,-904.51,140.0,-586.25,-262.50,1,75.0,
01/01/2000,01:40:46.16,12.93,-67.59,-920.12,166.25,-778.75,-393.75,1,80.0,
01/01/2000,01:40:46.17,12.93,-68.81,-929.03,297.50,-560.0,-218.75,1,83.333,
01/01/2000,01:40:46.18,13.18,-69.30,-936.96,192.50,-726.25,-358.75,1,85.714,
01/01/2000,01:40:46.19,13.42,-69.91,-943.79,192.50,-665.0,-262.50,1,87.500,
01/01/2000,01:40:46.20,13.42,-70.76,-952.21,96.25,-673.75,-341.25,1,88.889,
01/01/2000,01:40:46.21,13.42,-71.25,-956.97,175.0,-673.75,-341.25,1,90.0,
01/01/2000,01:40:46.22,13.66,-71.49,-961.36,157.50,-778.75,-332.50,1,90.909,
01/01/2000,01:40:46.23,13.66,-71.74,-965.26,61.25,-577.50,-306.25,1,91.667,
01/01/2000,01:40:46.24,13.66,-71.86,-970.02,227.50,-743.75,-306.25,1,92.308,
01/01/2000,01:40:46.25,13.54,-72.10,-972.71,96.25,-673.75,-385.0,1,92.857,
01/01/2000,01:40:46.27,13.79,-72.22,-974.90,175.0,-778.75,-358.75,1,93.333,
01/01/2000,01:40:46.28,13.91,-72.47,-977.22,192.50,-726.25,-323.75,1,93.750,
01/01/2000,01:40:46.29,13.91,-72.96,-979.90,148.75,-673.75,-341.25,1,94.118,
01/01/2000,01:40:46.30,13.91,-72.96,-981.49,175.0,-778.75,-341.25,1,94.444,
01/01/2000,01:40:46.31,13.91,-72.83,-982.83,175.0,-577.50,-306.25,1,94.737,
01/01/2000,01:40:46.32,13.79,-72.71,-984.05,105.0,-761.25,-315.0,1,95.0,
01/01/2000,01:40:46.33,13.79,-72.96,-985.64,201.25,-603.75,-332.50,1,95.238,
01/01/2000,01:40:46.34,13.91,-73.20,-986.74,78.75,-665.0,-245.0,1,95.455,
01/01/2000,01:40:46.35,13.91,-73.32,-987.47,166.25,-726.25,-490.0,1,95.652,
01/01/2000,01:40:46.36,14.03,-73.44,-987.96,210.0,-813.75,-306.25,1,95.833,
01/01/2000,01:40:46.37,14.15,-73.32,-988.57,192.50,-656.25,-350.0,1,96.0,
01/01/2000,01:40:46.38,14.15,-73.44,-989.18,210.0,-673.75,-306.25,1,96.154,
01/01/2000,01:40:46.39,14.03,-73.44,-989.54,227.50,-752.50,-376.25,1,96.296,
01/01/2000,01:40:46.40,13.91,-73.69,-990.15,131.25,-665.0,-411.25,1,93.103,
01/01/2000,01:40:46.41,13.91,-73.69,-990.52,148.75,-708.75,-332.50,1,93.333,
01/01/2000,01:40:46.42,13.91,-73.57,-990.76,166.25,-752.50,-332.50,1,93.548,
01/01/2000,01:40:46.43,13.91,-73.81,-990.88,140.0,-796.25,-323.75,1,93.750,
01/01/2000,01:40:46.44,13.91,-73.81,-991.01,131.25,-586.25,-420.0,1,93.939,
01/01/2000,01:40:46.45,13.91,-73.69,-991.13,157.50,-691.25,-341.25,1,94.118,
01/01/2000,01:40:46.46,13.91,-73.93,-991.25,166.25,-752.50,-402.50,1,94.286,
01/01/2000,01:40:46.48,13.91,-73.93,-991.62,140.0,-787.50,-271.25,1,94.444,
01/01/2000,01:40:46.49,13.91,-73.93,-991.74,-35.0,-761.25,-472.50,1,94.595,
01/01/2000,01:40:46.50,13.91,-73.93,-991.86,157.50,-700.0,-271.25,1,94.737,
01/01/2000,01:40:46.51,13.91,-74.05,-992.10,148.75,-787.50,-323.75,1,94.872,
01/01/2000,01:40:46.52,13.66,-74.18,-991.98,411.25,-682.50,-358.75,1,95.0,
01/01/2000,01:40:46.53,13.66,-73.81,-991.98,0.0,-630.0,-402.50,1,95.122,
01/01/2000,01:40:46.54,13.79,-73.81,-991.98,105.0,-691.25,-463.75,1,95.238,
01/01/2000,01:40:46.55,13.66,-73.69,-992.10,262.50,-682.50,-175.0,1,93.182,
01/01/2000,01:40:46.56,13.66,-73.69,-992.10,175.0,-761.25,-376.25,1,93.333,
01/01/2000,01:40:46.57,13.79,-73.93,-992.23,280.0,-717.50,-376.25,1,93.478,
01/01/2000,01:40:46.58,13.79,-73.81,-992.23,297.50,-533.75,-420.0,1,93.617,
01/01/2000,01:40:46.59,13.91,-73.69,-992.23,227.50,-735.0,-350.0,1,93.750,
01/01/2000,01:40:46.60,13.79,-73.69,-991.98,131.25,-717.50,-183.75,1,93.878,
01/01/2000,01:40:46.62,14.03,-73.57,-991.74,-17.50,-743.75,-463.75,1,94.0,
01/01/2000,01:40:46.63,14.03,-73.81,-991.74,288.75,-708.75,-411.25,1,94.118,
01/01/2000,01:40:46.64,13.79,-73.93,-991.86,148.75,-743.75,-306.25,1,94.231,
01/01/2000,01:40:46.65,13.66,-73.69,-991.86,-35.0,-691.25,-288.75,1,92.593,
01/01/2000,01:40:46.66,13.66,-73.57,-991.86,201.25,-708.75,-446.25,1,92.727,
01/01/2000,01:40:46.67,13.79,-73.57,-991.98,122.50,-717.50,-175.0,1,92.857,
01/01/2000,01:40:46.68,13.79,-73.69,-991.98,227.50,-665.0,-350.0,1,92.982,
01/01/2000,01:40:46.69,13.79,-73.93,-991.86,192.50,-691.25,-227.50,1,93.103,
01/01/2000,01:40:46.70,13.91,-73.93,-991.86,157.50,-595.0,-463.75,1,93.220,
01/01/2000,01:40:46.71,13.91,-73.69,-991.86,87.50,-726.25,-358.75,1,93.333,
01/01/2000,01:40:46.72,13.91,-73.57,-991.86,262.50,-586.25,-367.50,1,93.443,
01/01/2000,01:40:46.73,13.91,-73.44,-991.98,148.75,-647.50,-437.50,1,93.548,
01/01/2000,01:40:46.74,13.91,-73.57,-991.98,183.75,-682.50,-358.75,1,93.651,
01/01/2000,01:40:46.75,13.91,-73.69,-992.10,192.50,-691.25,-280.0,1,93.750,
01/01/2000,01:40:46.77,14.03,-73.57,-991.98,96.25,-682.50,-227.50,1,93.846,
01/01/2000,01:40:46.78,14.03,-73.69,-991.86,87.50,-595.0,-358.75,1,93.939,
01/01/2000,01:40:46.79,13.91,-73.44,-991.86,87.50,-735.0,-183.75,1,94.030,
01/01/2000,01:40:46.80,13.79,-73.44,-991.98,166.25,-638.75,-341.25,1,94.118,
01/01/2000,01:40:46.81,13.91,-73.44,-992.10,227.50,-761.25,-297.50,1,94.203,
01/01/2000,01:40:46.82,13.91,-73.32,-991.86,148.75,-656.25,-367.50,1,94.286,
01/01/2000,01:40:46.83,14.03,-73.32,-991.74,271.25,-691.25,-341.25,1,94.366,
01/01/2000,01:40:46.84,13.91,-73.32,-991.74,70.0,-682.50,-350.0,1,94.444,
01/01/2000,01:40:46.85,13.91,-73.32,-991.98,210.0,-726.25,-376.25,1,94.521,
01/01/2000,01:40:46.86,13.91,-73.20,-992.10,148.75,-752.50,-341.25,1,94.595,
01/01/2000,01:40:46.87,13.91,-73.44,-992.10,201.25,-612.50,-411.25,1,94.667,
01/01/2000,01:40:46.88,13.91,-73.32,-991.86,175.0,-700.0,-341.25,1,94.737,
01/01/2000,01:40:46.89,13.91,-73.57,-991.74,157.50,-752.50,-315.0,1,94.805,
01/01/2000,01:40:46.90,13.91,-73.44,-991.86,70.0,-577.50,-306.25,1,93.671,
01/01/2000,01:40:46.91,13.91,-73.44,-991.74,87.50,-726.25,-341.25,1,93.750,
01/01/2000,01:40:46.92,13.79,-73.57,-991.86,192.50,-656.25,-437.50,1,93.827,
01/01/2000,01:40:46.93,13.91,-73.44,-991.86,96.25,-621.25,-262.50,1,93.902,
01/01/2000,01:40:46.94,13.91,-73.69,-991.86,61.25,-665.0,-306.25,1,93.976,
01/01/2000,01:40:46.95,14.15,-73.69,-991.62,52.50,-778.75,-446.25,1,94.048,
01/01/2000,01:40:46.96,13.91,-73.93,-991.49,122.50,-743.75,-428.75,1,94.118,
01/01/2000,01:40:46.98,13.91,-73.81,-991.37,96.25,-630.0,-393.75,1,94.186,
01/01/2000,01:40:46.99,13.91,-73.44,-991.62,70.0,-726.25,-376.25,1,94.253,
01/01/2000,01:40:47.00,14.03,-73.44,-991.62,-8.75,-770.0,-227.50,1,94.318,
01/01/2000,01:40:47.01,14.03,-73.57,-991.62,61.25,-708.75,-341.25,1,94.382,
01/01/2000,01:40:47.02,13.91,-73.69,-991.49,201.25,-708.75,-481.25,1,94.444,
01/01/2000,01:40:47.03,13.91,-73.69,-991.62,113.75,-603.75,-253.75,1,94.505,
01/01/2000,01:40:47.04,14.03,-73.69,-991.86,262.50,-673.75,-341.25,1,93.548,
01/01/2000,01:40:47.05,14.03,-73.32,-991.98,78.75,-743.75,-218.75,1,93.617,
01/01/2000,01:40:47.06,13.91,-73.44,-991.98,201.25,-630.0,-341.25,1,93.684,
01/01/2000,01:40:47.07,13.91,-73.44,-991.98,113.75,-603.75,-358.75,1,93.750,
01/01/2000,01:40:47.08,14.03,-73.32,-991.86,262.50,-673.75,-358.75,1,93.814,
01/01/2000,01:40:47.09,14.27,-73.44,-991.62,70.0,-743.75,-385.0,1,93.878,
01/01/2000,01:40:47.10,14.15,-73.57,-991.62,280.0,-717.50,-385.0,1,93.939,
01/01/2000,01:40:47.12,13.91,-73.44,-991.86,201.25,-717.50,-315.0,1,94.0,
01/01/2000,01:40:47.13,14.03,-73.32,-992.10,157.50,-717.50,-315.0,1,94.059,
01/01/2000,01:40:47.14,14.03,-73.32,-992.10,105.0,-700.0,-262.50,1,94.118,
01/01/2000,01:40:47.15,14.15,-73.57,-991.74,87.50,-638.75,-323.75,1,94.175,
01/01/2000,01:40:47.16,14.15,-73.81,-991.62,175.0,-761.25,-332.50,1,93.333,
01/01/2000,01:40:47.17,14.27,-73.93,-991.62,210.0,-665.0,-393.75,1,93.396,
01/01/2000,01:40:47.18,14.03,-73.69,-991.86,253.75,-796.25,-358.75,1,93.458,
01/01/2000,01:40:47.19,14.03,-73.69,-991.98,280.0,-770.0,-376.25,1,93.519,
01/01/2000,01:40:47.20,14.03,-73.57,-991.86,122.50,-665.0,-306.25,1,93.578,
01/01/2000,01:40:47.21,14.15,-73.69,-991.74,175.0,-638.75,-175.0,1,93.636,
01/01/2000,01:40:47.22,14.27,-73.81,-991.49,192.50,-708.75,-437.50,1,93.694,
01/01/2000,01:40:47.23,14.27,-73.93,-991.49,148.75,-682.50,-393.75,1,93.750,
01/01/2000,01:40:47.24,14.27,-73.81,-991.62,148.75,-665.0,-297.50,1,93.805,
01/01/2000,01:40:47.26,14.15,-73.69,-991.74,271.25,-630.0,-341.25,1,93.860,
01/01/2000,01:40:47.27,14.15,-73.32,-991.74,61.25,-638.75,-341.25,1,93.913,
01/01/2000,01:40:47.28,14.27,-73.44,-991.74,183.75,-595.0,-306.25,1,93.966,
01/01/2000,01:40:47.29,14.27,-73.69,-991.74,227.50,-726.25,-306.25,1,94.017,
01/01/2000,01:40:47.30,14.27,-73.81,-991.74,0.0,-708.75,-376.25,1,94.068,
01/01/2000,01:40:47.31,14.15,-73.69,-991.86,26.25,-743.75,-350.0,1,94.118,
01/01/2000,01:40:47.32,14.27,-73.69,-991.86,218.75,-647.50,-350.0,1,94.167,
01/01/2000,01:40:47.33,14.15,-73.57,-991.86,140.0,-638.75,-271.25,1,94.215,
01/01/2000,01:40:47.34,14.15,-73.44,-991.62,288.75,-761.25,-253.75,1,94.262,
01/01/2000,01:40:47.35,14.15,-73.57,-991.49,280.0,-656.25,-323.75,1,94.309,
01/01/2000,01:40:47.36,14.15,-73.69,-991.49,122.50,-656.25,-350.0,1,94.355,
01/01/2000,01:40:47.37,14.27,-73.69,-991.62,157.50,-691.25,-367.50,1,94.400,
01/01/2000,01:40:47.38,14.27,-73.69,-991.62,210.0,-560.0,-332.50,1,94.444,
01/01/2000,01:40:47.39,14.03,-73.44,-991.49,26.25,-822.50,-280.0,1,94.488,
01/01/2000,01:40:47.40,14.03,-73.32,-991.62,105.0,-708.75,-428.75,1,94.531,
01/01/2000,01:40:47.41,14.15,-73.32,-991.74,157.50,-700.0,-236.25,1,94.574,
01/01/2000,01:40:47.42,14.40,-73.44,-991.74,201.25,-726.25,-271.25,1,94.615,
01/01/2000,01:40:47.43,14.40,-73.57,-991.74,148.75,-673.75,-358.75,1,93.939,
01/01/2000,01:40:47.44,14.27,-73.69,-991.62,157.50,-717.50,-332.50,1,94.697,
01/01/2000,01:40:47.45,14.15,-73.69,-991.62,183.75,-621.25,-350.0,1,94.030,
01/01/2000,01:40:47.47,14.15,-73.44,-991.62,113.75,-630.0,-332.50,1,94.074,
01/01/2000,01:40:47.48,14.15,-73.57,-991.49,218.75,-770.0,-297.50,1,94.118,
01/01/2000,01:40:47.49,14.27,-73.69,-991.49,183.75,-682.50,-367.50,1,94.161,
01/01/2000,01:40:47.50,14.15,-73.93,-991.37,227.50,-708.75,-350.0,1,94.203,
01/01/2000,01:40:47.51,14.15,-73.93,-991.25,262.50,-700.0,-402.50,1,94.245,
01/01/2000,01:40:47.52,14.15,-73.69,-991.25,113.75,-682.50,-227.50,1,94.286,
01/01/2000,01:40:47.53,14.15,-73.44,-991.37,148.75,-665.0,-262.50,1,94.326,
01/01/2000,01:40:47.54,14.15,-73.44,-991.37,131.25,-700.0,-262.50,1,94.366,
01/01/2000,01:40:47.55,14.27,-73.44,-991.37,140.0,-621.25,-288.75,1,94.406,
01/01/2000,01:40:47.56,14.15,-73.69,-991.13,140.0,-577.50,-288.75,1,94.444,
01/01/2000,01:40:47.57,14.15,-73.69,-991.01,183.75,-682.50,-428.75,1,94.483,
01/01/2000,01:40:47.58,14.15,-73.44,-991.13,131.25,-752.50,-350.0,1,94.521,
01/01/2000,01:40:47.59,14.15,-73.20,-991.13,131.25,-708.75,-385.0,1,94.558,
01/01/2000,01:40:47.60,14.03,-73.08,-991.13,122.50,-743.75,-236.25,1,93.960,
01/01/2000,01:40:47.61,14.03,-73.20,-991.37,166.25,-665.0,-446.25,1,94.0,
01/01/2000,01:40:47.62,14.40,-73.32,-991.37,166.25,-673.75,-297.50,1,94.040,
01/01/2000,01:40:47.63,14.52,-73.32,-991.37,96.25,-717.50,-446.25,1,94.079,
01/01/2000,01:40:47.64,14.52,-73.20,-991.13,140.0,-787.50,-341.25,1,94.118,
01/01/2000,01:40:47.65,14.27,-73.20,-991.37,262.50,-743.75,-420.0,1,94.156,
01/01/2000,01:40:47.67,14.15,-73.08,-991.74,236.25,-612.50,-236.25,1,94.194,
01/01/2000,01:40:47.68,14.40,-73.08,-991.74,140.0,-603.75,-271.25,1,93.631,
01/01/2000,01:40:47.69,14.40,-73.20,-991.49,122.50,-743.75,-350.0,1,93.671,
01/01/2000,01:40:47.70,14.40,-73.32,-991.37,367.50,-673.75,-446.25,1,93.711,
01/01/2000,01:40:47.71,14.27,-73.20,-991.25,122.50,-656.25,-385.0,1,93.750,
01/01/2000,01:40:47.72,14.40,-73.32,-991.49,61.25,-673.75,-358.75,1,93.789,
01/01/2000,01:40:47.73,14.40,-73.08,-991.49,113.75,-778.75,-271.25,1,93.827,
01/01/2000,01:40:47.74,14.40,-72.96,-991.62,236.25,-691.25,-341.25,1,93.865,
01/01/2000,01:40:47.76,14.15,-73.08,-991.37,288.75,-778.75,-245.0,1,93.902,
01/01/2000,01:40:47.77,14.15,-73.20,-991.13,61.25,-805.0,-245.0,1,93.939,
01/01/2000,01:40:47.78,14.15,-73.32,-991.13,210.0,-656.25,-315.0,1,93.976,
01/01/2000,01:40:47.79,14.27,-73.20,-991.25,227.50,-691.25,-358.75,1,94.012,
01/01/2000,01:40:47.80,14.40,-73.08,-991.37,210.0,-673.75,-271.25,1,94.048,
01/01/2000,01:40:47.81,14.52,-72.96,-991.25,140.0,-665.0,-393.75,1,94.083,
01/01/2000,01:40:47.82,14.03,-73.20,-991.25,297.50,-656.25,-341.25,1,94.118,
01/01/2000,01:40:47.83,14.27,-73.20,-991.37,43.75,-595.0,-455.0,1,94.152,
01/01/2000,01:40:47.84,14.64,-73.08,-991.49,131.25,-735.0,-323.75,1,94.186,
01/01/2000,01:40:47.85,14.76,-73.20,-991.13,210.0,-700.0,-245.0,1,94.220,
01/01/2000,01:40:47.86,14.40,-73.20,-990.88,113.75,-673.75,-455.0,1,94.253,
01/01/2000,01:40:47.87,14.27,-73.44,-991.01,175.0,-638.75,-341.25,1,94.286,
01/01/2000,01:40:47.88,14.27,-73.20,-991.25,96.25,-638.75,-481.25,1,94.318,
01/01/2000,01:40:47.89,14.64,-73.08,-991.37,78.75,-691.25,-227.50,1,93.820,
01/01/2000,01:40:47.90,14.52,-73.32,-990.88,175.0,-726.25,-271.25,1,93.855,
01/01/2000,01:40:47.91,14.15,-73.69,-990.64,183.75,-743.75,-323.75,1,93.889,
01/01/2000,01:40:47.92,14.03,-73.81,-990.64,271.25,-665.0,-463.75,1,93.923,
01/01/2000,01:40:47.93,14.27,-73.44,-991.13,8.75,-647.50,-393.75,1,93.956,
01/01/2000,01:40:47.94,14.27,-73.32,-991.37,87.50,-656.25,-323.75,1,93.989,
01/01/2000,01:40:47.95,14.15,-73.20,-991.13,131.25,-647.50,-245.0,1,94.022,
01/01/2000,01:40:47.97,14.15,-73.32,-990.64,183.75,-735.0,-227.50,1,94.054,
01/01/2000,01:40:47.98,14.52,-73.57,-990.64,245.0,-796.25,-315.0,1,94.086,
01/01/2000,01:40:47.99,14.52,-73.93,-991.13,105.0,-665.0,-376.25,1,94.118,
01/01/2000,01:40:48.00,14.40,-73.93,-991.37,166.25,-603.75,-341.25,1,94.149,
01/01/2000,01:40:48.01,14.15,-73.69,-991.25,262.50,-638.75,-385.0,1,94.180,
01/01/2000,01:40:48.02,14.15,-73.44,-991.13,192.50,-700.0,-393.75,1,94.211,
01/01/2000,01:40:48.03,14.15,-73.44,-991.01,131.25,-630.0,-280.0,1,93.750,
01/01/2000,01:40:48.04,14.27,-73.69,-991.13,61.25,-717.50,-280.0,1,93.782,
01/01/2000,01:40:48.05,14.40,-73.81,-991.13,166.25,-735.0,-376.25,1,93.814,
01/01/2000,01:40:48.06,14.27,-73.81,-991.13,148.75,-778.75,-332.50,1,93.846,
01/01/2000,01:40:48.07,14.15,-73.69,-991.13,183.75,-682.50,-411.25,1,93.878,
01/01/2000,01:40:48.08,14.15,-73.44,-991.13,166.25,-700.0,-288.75,1,93.909,
01/01/2000,01:40:48.09,14.40,-73.32,-991.13,87.50,-787.50,-297.50,1,93.939,
01/01/2000,01:40:48.11,14.40,-73.57,-991.37,175.0,-761.25,-332.50,1,93.970,
01/01/2000,01:40:48.12,14.40,-73.69,-991.37,157.50,-691.25,-367.50,1,94.0,
01/01/2000,01:40:48.13,14.40,-73.81,-991.13,140.0,-708.75,-455.0,1,94.030,
01/01/2000,01:40:48.14,14.27,-73.57,-991.13,280.0,-787.50,-367.50,1,94.059,
01/01/2000,01:40:48.15,14.40,-73.44,-991.13,122.50,-708.75,-306.25,1,94.089,
01/01/2000,01:40:48.16,14.40,-73.44,-991.25,227.50,-752.50,-315.0,1,94.118,
01/01/2000,01:40:48.17,14.15,-73.69,-991.13,113.75,-726.25,-367.50,1,93.689,
01/01/2000,01:40:48.19,14.15,-73.44,-991.01,131.25,-586.25,-297.50,1,93.720,
01/01/2000,01:40:48.20,14.40,-73.44,-991.13,315.0,-752.50,-323.75,1,93.750,
01/01/2000,01:40:48.21,14.40,-73.44,-991.25,236.25,-813.75,-350.0,1,93.780,
01/01/2000,01:40:48.22,14.15,-73.44,-991.37,166.25,-568.75,-367.50,1,93.810,
01/01/2000,01:40:48.23,14.15,-73.69,-991.25,157.50,-743.75,-350.0,1,93.839,
01/01/2000,01:40:48.24,14.40,-73.57,-991.37,315.0,-743.75,-358.75,1,93.868,
01/01/2000,01:40:48.25,14.40,-73.44,-991.25,192.50,-612.50,-323.75,1,93.897,
01/01/2000,01:40:48.26,14.40,-73.44,-991.13,131.25,-735.0,-280.0,1,93.925,
01/01/2000,01:40:48.27,14.27,-73.57,-991.13,210.0,-735.0,-341.25,1,93.953,
01/01/2000,01:40:48.28,14.27,-73.69,-991.25,140.0,-595.0,-376.25,1,93.981,
01/01/2000,01:40:48.29,14.52,-73.44,-991.37,70.0,-682.50,-332.50,1,94.009,
01/01/2000,01:40:48.30,14.40,-73.44,-991.13,140.0,-682.50,-262.50,1,94.037,
01/01/2000,01:40:48.31,14.15,-73.57,-991.01,262.50,-735.0,-323.75,1,94.064,
01/01/2000,01:40:48.32,14.03,-73.69,-991.01,236.25,-638.75,-280.0,1,94.091,
01/01/2000,01:40:48.33,14.15,-73.69,-991.13,105.0,-638.75,-315.0,1,94.118,
01/01/2000,01:40:48.34,14.27,-73.69,-991.13,218.75,-647.50,-306.25,1,94.144,
01/01/2000,01:40:48.35,14.40,-73.69,-991.01,61.25,-673.75,-288.75,1,94.170,
01/01/2000,01:40:48.36,14.15,-73.69,-990.88,140.0,-673.75,-332.50,1,94.196,
01/01/2000,01:40:48.37,14.15,-73.69,-990.88,175.0,-778.75,-437.50,1,94.222,
01/01/2000,01:40:48.38,14.27,-73.44,-991.13,113.75,-726.25,-315.0,1,94.248,
01/01/2000,01:40:48.39,14.40,-73.20,-991.37,157.50,-638.75,-288.75,1,93.860,
01/01/2000,01:40:48.40,14.27,-73.32,-991.37,105.0,-691.25,-315.0,1,93.886,
01/01/2000,01:40:48.41,14.27,-73.32,-991.13,122.50,-691.25,-437.50,1,93.913,
01/01/2000,01:40:48.42,14.27,-73.32,-991.13,175.0,-743.75,-262.50,1,93.939,
01/01/2000,01:40:48.43,14.40,-73.32,-991.25,183.75,-787.50,-315.0,1,93.966,
01/01/2000,01:40:48.44,14.52,-73.32,-991.25,157.50,-752.50,-262.50,1,93.991,
01/01/2000,01:40:48.46,14.27,-73.44,-990.88,78.75,-743.75,-323.75,1,94.017,
01/01/2000,01:40:48.47,14.15,-73.32,-990.76,175.0,-595.0,-341.25,1,94.043,
01/01/2000,01:40:48.48,14.27,-73.20,-990.88,122.50,-673.75,-358.75,1,94.068,
01/01/2000,01:40:48.49,14.27,-73.20,-991.13,341.25,-752.50,-376.25,1,94.093,
01/01/2000,01:40:48.50,14.40,-73.20,-991.01,122.50,-682.50,-332.50,1,94.118,
01/01/2000,01:40:48.51,14.27,-73.20,-991.01,113.75,-726.25,-367.50,1,94.142,
01/01/2000,01:40:48.52,14.27,-73.20,-991.13,70.0,-770.0,-236.25,1,94.167,
01/01/2000,01:40:48.53,14.27,-73.20,-991.13,140.0,-691.25,-498.75,1,93.802,
01/01/2000,01:40:48.54,14.40,-73.20,-991.13,105.0,-708.75,-253.75,1,93.827,
01/01/2000,01:40:48.55,14.40,-73.32,-991.13,122.50,-726.25,-323.75,1,93.852,
01/01/2000,01:40:48.56,14.27,-73.57,-990.88,192.50,-647.50,-402.50,1,93.878,
01/01/2000,01:40:48.57,14.27,-73.69,-990.76,166.25,-595.0,-376.25,1,93.902,
01/01/2000,01:40:48.58,14.40,-73.57,-990.88,105.0,-682.50,-350.0,1,93.927,
01/01/2000,01:40:48.59,14.52,-73.44,-990.88,131.25,-682.50,-271.25,1,93.952,
01/01/2000,01:40:48.61,14.52,-73.44,-991.13,140.0,-595.0,-306.25,1,93.976,
01/01/2000,01:40:48.62,14.40,-73.57,-990.88,96.25,-673.75,-306.25,1,94.0,
01/01/2000,01:40:48.63,14.40,-73.57,-990.76,148.75,-752.50,-288.75,1,94.024,
01/01/2000,01:40:48.64,14.52,-73.69,-990.76,87.50,-603.75,-306.25,1,94.048,
01/01/2000,01:40:48.65,14.40,-73.57,-991.01,192.50,-700.0,-218.75,1,94.071,
01/01/2000,01:40:48.66,14.15,-73.69,-991.25,481.25,-647.50,-595.0,1,94.094,
01/01/2000,01:40:48.67,15.01,-72.96,-990.64,227.50,-813.75,-420.0,1,94.118,
01/01/2000,01:40:48.69,13.91,-74.18,-991.01,131.25,-656.25,-437.50,1,93.411,
01/01/2000,01:40:48.70,13.91,-73.81,-991.62,218.75,-778.75,-945.0,1,93.436,
01/01/2000,01:40:48.71,14.64,-73.20,-991.62,183.75,-665.0,-883.75,1,93.462,
01/01/2000,01:40:48.72,14.52,-72.83,-991.13,26.25,-691.25,131.25,1,93.487,
01/01/2000,01:40:48.73,14.40,-73.20,-990.64,192.50,-752.50,-113.75,1,93.511,
01/01/2000,01:40:48.74,14.15,-73.93,-990.52,245.0,-743.75,-603.75,1,93.536,
01/01/2000,01:40:48.75,14.03,-74.18,-991.37,192.50,-682.50,-647.50,1,93.561,
01/01/2000,01:40:48.77,14.15,-73.93,-991.98,201.25,-630.0,-402.50,1,93.585,
01/01/2000,01:40:48.77,14.15,-73.20,-991.62,175.0,-673.75,-280.0,1,93.609,
01/01/2000,01:40:48.79,14.27,-72.83,-990.64,201.25,-726.25,-131.25,1,93.633,
01/01/2000,01:40:48.80,13.91,-73.32,-990.27,385.0,-752.50,-183.75,1,93.657,
01/01/2000,01:40:48.81,13.79,-73.44,-990.64,157.50,-787.50,-481.25,1,93.680,
01/01/2000,01:40:48.82,14.15,-73.93,-991.62,288.75,-708.75,-402.50,1,93.704,
01/01/2000,01:40:48.83,14.15,-73.81,-991.74,70.0,-700.0,-402.50,1,93.727,
01/01/2000,01:40:48.84,14.15,-73.44,-991.13,122.50,-743.75,-332.50,1,93.750,
01/01/2000,01:40:48.85,13.91,-73.32,-990.64,148.75,-665.0,-245.0,1,93.773,
01/01/2000,01:40:48.86,13.91,-73.44,-990.76,227.50,-831.25,-306.25,1,93.796,
01/01/2000,01:40:48.87,13.91,-73.81,-991.49,210.0,-735.0,-253.75,1,93.818,
01/01/2000,01:40:48.88,14.15,-73.93,-991.86,8.75,-560.0,-446.25,1,93.841,
01/01/2000,01:40:48.89,14.03,-73.69,-991.62,210.0,-735.0,-490.0,1,93.863,
01/01/2000,01:40:48.90,13.66,-73.44,-990.76,183.75,-621.25,-341.25,1,93.885,
01/01/2000,01:40:48.91,13.66,-73.20,-990.76,113.75,-700.0,-420.0,1,93.907,
01/01/2000,01:40:48.92,14.15,-73.44,-991.13,288.75,-691.25,-358.75,1,93.929,
01/01/2000,01:40:48.93,14.27,-73.44,-991.62,131.25,-638.75,-350.0,1,93.950,
01/01/2000,01:40:48.94,14.15,-73.81,-991.49,61.25,-831.25,-358.75,1,93.972,
01/01/2000,01:40:48.95,13.91,-73.69,-991.01,218.75,-647.50,-560.0,1,93.993,
01/01/2000,01:40:48.96,14.15,-73.20,-990.64,122.50,-717.50,-358.75,1,93.684,
01/01/2000,01:40:48.97,14.15,-73.32,-991.01,227.50,-735.0,-175.0,1,93.706,
01/01/2000,01:40:48.98,14.03,-73.44,-991.37,183.75,-656.25,-280.0,1,93.728,
01/01/2000,01:40:48.99,13.91,-73.69,-991.37,192.50,-551.25,-402.50,1,93.750,
01/01/2000,01:40:49.00,13.91,-73.57,-991.13,210.0,-735.0,-542.50,1,93.772,
01/01/2000,01:40:49.01,13.91,-73.44,-991.01,113.75,-647.50,-183.75,1,93.793,
01/01/2000,01:40:49.03,14.27,-73.20,-991.25,236.25,-708.75,-437.50,1,93.814,
01/01/2000,01:40:49.04,14.27,-73.32,-991.49,175.0,-805.0,-192.50,1,93.836,
01/01/2000,01:40:49.05,14.15,-73.44,-991.49,140.0,-717.50,-376.25,1,93.857,
01/01/2000,01:40:49.06,14.03,-73.69,-991.49,218.75,-612.50,-446.25,1,93.878,
01/01/2000,01:40:49.07,14.15,-73.44,-991.49,-8.75,-595.0,-376.25,1,93.898,
01/01/2000,01:40:49.08,14.40,-73.32,-991.25,43.75,-638.75,-262.50,1,93.919,
01/01/2000,01:40:49.09,14.27,-73.32,-991.25,262.50,-682.50,-245.0,1,93.939,
01/01/2000,01:40:49.10,14.03,-73.69,-991.37,288.75,-778.75,-385.0,1,93.960,
01/01/2000,01:40:49.11,13.91,-73.69,-991.37,113.75,-700.0,-367.50,1,93.980,
01/01/2000,01:40:49.12,14.15,-73.44,-991.25,306.25,-726.25,-341.25,1,94.0,
01/01/2000,01:40:49.13,14.15,-73.32,-991.13,183.75,-743.75,-323.75,1,94.020,
01/01/2000,01:40:49.14,14.03,-73.44,-991.01,210.0,-691.25,-315.0,1,94.040,
01/01/2000,01:40:49.15,14.03,-73.44,-991.13,87.50,-647.50,-262.50,1,94.059,
01/01/2000,01:40:49.16,14.03,-73.81,-991.13,218.75,-805.0,-341.25,1,94.079,
01/01/2000,01:40:49.17,14.15,-73.69,-991.13,78.75,-630.0,-350.0,1,93.791,
01/01/2000,01:40:49.18,14.27,-73.69,-991.13,245.0,-691.25,-332.50,1,93.811,
01/01/2000,01:40:49.20,14.15,-73.69,-991.25,140.0,-796.25,-227.50,1,93.831,
01/01/2000,01:40:49.21,14.15,-73.69,-991.13,131.25,-691.25,-385.0,1,93.851,
01/01/2000,01:40:49.22,14.15,-73.69,-991.13,175.0,-822.50,-280.0,1,93.871,
01/01/2000,01:40:49.23,14.15,-73.57,-991.25,175.0,-787.50,-393.75,1,93.891,
01/01/2000,01:40:49.24,14.15,-73.57,-991.13,96.25,-691.25,-367.50,1,93.910,
01/01/2000,01:40:49.25,14.15,-73.57,-991.01,61.25,-778.75,-306.25,1,93.930,
01/01/2000,01:40:49.26,14.15,-73.57,-991.01,245.0,-743.75,-201.25,1,93.949,
01/01/2000,01:40:49.27,14.03,-73.57,-991.13,105.0,-638.75,-192.50,1,93.968,
01/01/2000,01:40:49.28,13.91,-73.69,-991.37,236.25,-796.25,-428.75,1,93.987,
01/01/2000,01:40:49.29,14.03,-73.57,-991.37,113.75,-717.50,-341.25,1,94.006,
01/01/2000,01:40:49.30,14.15,-73.44,-991.13,122.50,-630.0,-350.0,1,94.025,
01/01/2000,01:40:49.31,14.03,-73.32,-991.13,227.50,-761.25,-262.50,1,94.044,
01/01/2000,01:40:49.32,13.91,-73.44,-991.25,113.75,-743.75,-350.0,1,93.769,
01/01/2000,01:40:49.33,14.03,-73.44,-991.49,122.50,-673.75,-341.25,1,93.789,
01/01/2000,01:40:49.34,14.03,-73.44,-991.62,78.75,-735.0,-358.75,1,93.808,
01/01/2000,01:40:49.35,14.03,-73.20,-991.49,122.50,-551.25,-306.25,1,93.827,
01/01/2000,01:40:49.36,14.15,-73.08,-991.37,140.0,-682.50,-332.50,1,93.846,
01/01/2000,01:40:49.37,14.15,-73.20,-991.25,78.75,-761.25,-175.0,1,93.865,
01/01/2000,01:40:49.39,14.27,-73.57,-991.49,113.75,-691.25,-323.75,1,93.884,
01/01/2000,01:40:49.40,14.03,-73.69,-991.62,166.25,-805.0,-463.75,1,93.902,
01/01/2000,01:40:49.41,13.91,-73.57,-991.25,148.75,-752.50,-341.25,1,93.921,
01/01/2000,01:40:49.42,13.91,-73.44,-991.13,166.25,-638.75,-236.25,1,93.939,
01/01/2000,01:40:49.43,13.91,-73.44,-991.01,175.0,-673.75,-341.25,1,93.958,
01/01/2000,01:40:49.44,13.91,-73.44,-991.25,105.0,-656.25,-253.75,1,93.976,
01/01/2000,01:40:49.45,13.91,-73.69,-991.37,157.50,-612.50,-376.25,1,93.994,
01/01/2000,01:40:49.46,13.79,-73.57,-991.13,166.25,-595.0,-393.75,1,94.012,
01/01/2000,01:40:49.47,13.91,-73.44,-991.01,157.50,-691.25,-297.50,1,94.030,
01/01/2000,01:40:49.48,13.91,-73.32,-991.01,35.0,-656.25,-393.75,1,94.048,
01/01/2000,01:40:49.49,13.79,-73.32,-991.01,210.0,-673.75,-288.75,1,94.065,
01/01/2000,01:40:49.50,13.79,-73.57,-991.13,227.50,-691.25,-271.25,1,94.083,
01/01/2000,01:40:49.51,13.79,-73.69,-991.37,113.75,-656.25,-402.50,1,94.100,
01/01/2000,01:40:49.52,13.91,-73.57,-991.37,218.75,-805.0,-315.0,1,93.842,
01/01/2000,01:40:49.53,13.91,-73.44,-991.13,210.0,-621.25,-323.75,1,93.860,
01/01/2000,01:40:49.54,13.91,-73.44,-990.88,52.50,-708.75,-262.50,1,93.878,
01/01/2000,01:40:49.55,13.91,-73.57,-990.88,105.0,-665.0,-350.0,1,93.895,
01/01/2000,01:40:49.56,13.91,-73.69,-991.13,227.50,-726.25,-385.0,1,93.913,
01/01/2000,01:40:49.57,14.15,-73.69,-991.13,175.0,-708.75,-315.0,1,93.931,
01/01/2000,01:40:49.58,13.91,-73.69,-990.88,253.75,-726.25,-315.0,1,93.948,
01/01/2000,01:40:49.60,14.03,-73.57,-991.01,131.25,-708.75,-315.0,1,93.966,
01/01/2000,01:40:49.61,14.03,-73.69,-991.13,157.50,-735.0,-420.0,1,93.983,
01/01/2000,01:40:49.62,14.15,-73.57,-991.25,35.0,-682.50,-385.0,1,94.0,
01/01/2000,01:40:49.63,14.03,-73.69,-991.37,131.25,-621.25,-411.25,1,94.017,
01/01/2000,01:40:49.64,14.03,-73.57,-991.13,157.50,-682.50,-323.75,1,94.034,
01/01/2000,01:40:49.65,14.15,-73.44,-991.13,175.0,-883.75,-332.50,1,94.051,
01/01/2000,01:40:49.66,14.15,-73.57,-991.13,227.50,-542.50,-358.75,1,94.068,
01/01/2000,01:40:49.67,14.15,-73.57,-991.13,140.0,-700.0,-262.50,1,94.085,
01/01/2000,01:40:49.68,14.27,-73.69,-991.25,297.50,-656.25,-402.50,1,93.838,
01/01/2000,01:40:49.69,14.15,-73.57,-991.37,166.25,-691.25,-376.25,1,94.118,
01/01/2000,01:40:49.71,14.15,-73.44,-991.37,105.0,-647.50,-306.25,1,93.872,
01/01/2000,01:40:49.72,14.15,-73.44,-991.25,227.50,-577.50,-332.50,1,93.889,
01/01/2000,01:40:49.73,14.15,-73.57,-991.37,227.50,-691.25,-358.75,1,93.906,
01/01/2000,01:40:49.74,14.27,-73.81,-991.37,323.75,-656.25,-367.50,1,93.923,
01/01/2000,01:40:49.75,14.15,-73.81,-991.37,26.25,-621.25,-341.25,1,93.939,
01/01/2000,01:40:49.76,14.15,-73.69,-991.37,227.50,-735.0,-367.50,1,93.956,
01/01/2000,01:40:49.77,14.15,-73.57,-991.37,306.25,-805.0,-332.50,1,93.973,
01/01/2000,01:40:49.78,14.03,-73.69,-991.37,148.75,-726.25,-262.50,1,93.989,
01/01/2000,01:40:49.79,14.15,-73.81,-991.25,148.75,-726.25,-297.50,1,94.005,
01/01/2000,01:40:49.80,14.15,-73.81,-991.13,61.25,-691.25,-411.25,1,94.022,
01/01/2000,01:40:49.81,14.27,-73.93,-991.01,201.25,-665.0,-472.50,1,94.038,
01/01/2000,01:40:49.82,14.15,-73.69,-991.13,210.0,-735.0,-367.50,1,94.054,
01/01/2000,01:40:49.83,14.15,-73.69,-991.25,148.75,-761.25,-297.50,1,94.070,
01/01/2000,01:40:49.84,14.15,-73.57,-991.13,227.50,-682.50,-358.75,1,94.086,
01/01/2000,01:40:49.85,14.15,-73.69,-991.13,236.25,-621.25,-288.75,1,94.102,
01/01/2000,01:40:49.86,14.27,-73.81,-991.01,131.25,-717.50,-262.50,1,94.118,
01/01/2000,01:40:49.87,14.40,-73.93,-991.01,183.75,-735.0,-402.50,1,93.883,
01/01/2000,01:40:49.88,14.27,-73.69,-991.13,-78.75,-761.25,-402.50,1,93.899,
01/01/2000,01:40:49.89,14.27,-73.81,-991.13,245.0,-682.50,-332.50,1,93.915,
01/01/2000,01:40:49.90,14.27,-73.44,-991.13,166.25,-805.0,-271.25,1,93.931,
01/01/2000,01:40:49.91,14.15,-73.44,-991.13,411.25,-735.0,-210.0,1,93.947,
01/01/2000,01:40:49.92,14.15,-73.57,-991.13,8.75,-743.75,-236.25,1,93.963,
01/01/2000,01:40:49.93,14.15,-73.81,-991.13,271.25,-752.50,-350.0,1,93.979,
01/01/2000,01:40:49.95,14.15,-73.93,-991.13,131.25,-630.0,-402.50,1,93.995,
01/01/2000,01:40:49.96,14.15,-73.69,-991.25,236.25,-752.50,-341.25,1,94.010,
01/01/2000,01:40:49.97,14.15,-73.57,-991.37,236.25,-673.75,-280.0,1,94.026,
01/01/2000,01:40:49.98,14.03,-73.44,-991.37,0.0,-586.25,-297.50,1,94.041,
01/01/2000,01:40:49.99,14.03,-73.57,-991.37,148.75,-752.50,-280.0,1,94.057,
01/01/2000,01:40:50.00,14.03,-73.69,-991.37,113.75,-621.25,-323.75,1,94.072,
01/01/2000,01:40:50.01,14.27,-73.57,-991.37,131.25,-691.25,-323.75,1,93.846,
01/01/2000,01:40:50.02,14.15,-73.57,-991.13,218.75,-691.25,-306.25,1,93.862,
01/01/2000,01:40:50.03,13.91,-73.57,-991.13,210.0,-682.50,-315.0,1,93.878,
01/01/2000,01:40:50.04,13.91,-73.44,-991.25,183.75,-700.0,-393.75,1,93.893,
01/01/2000,01:40:50.05,13.91,-73.57,-991.37,113.75,-603.75,-323.75,1,93.909,
01/01/2000,01:40:50.06,14.15,-73.44,-991.62,253.75,-682.50,-288.75,1,93.924,
01/01/2000,01:40:50.07,14.03,-73.32,-991.62,140.0,-656.25,-376.25,1,93.939,
01/01/2000,01:40:50.09,14.03,-73.69,-991.13,288.75,-691.25,-288.75,1,93.955,
01/01/2000,01:40:50.10,14.03,-73.20,-991.37,87.50,-621.25,-411.25,1,93.970,
01/01/2000,01:40:50.11,14.15,-73.44,-991.49,43.75,-708.75,-175.0,1,93.985,
01/01/2000,01:40:50.12,14.15,-73.69,-991.62,201.25,-647.50,-280.0,1,94.0,
01/01/2000,01:40:50.13,14.15,-73.44,-991.62,87.50,-647.50,-455.0,1,94.015,
01/01/2000,01:40:50.14,14.27,-73.57,-991.49,288.75,-700.0,-315.0,1,94.030,
01/01/2000,01:40:50.15,14.15,-73.44,-991.37,227.50,-743.75,-420.0,1,94.045,
01/01/2000,01:40:50.16,14.15,-73.44,-991.37,157.50,-638.75,-245.0,1,94.059,
01/01/2000,01:40:50.17,14.40,-73.57,-991.37,306.25,-621.25,-481.25,1,94.074,
01/01/2000,01:40:50.18,14.27,-73.44,-991.49,183.75,-621.25,-297.50,1,94.089,
01/01/2000,01:40:50.19,14.40,-73.69,-991.25,175.0,-673.75,-323.75,1,94.103,
01/01/2000,01:40:50.20,14.27,-73.69,-991.13,227.50,-665.0,-393.75,1,94.118,
01/01/2000,01:40:50.21,14.27,-73.69,-991.13,122.50,-551.25,-341.25,1,93.902,
01/01/2000,01:40:50.23,14.27,-73.44,-991.13,52.50,-761.25,-315.0,1,93.917,
01/01/2000,01:40:50.24,14.27,-73.32,-991.01,87.50,-630.0,-227.50,1,93.932,
01/01/2000,01:40:50.25,14.27,-73.44,-991.01,157.50,-638.75,-297.50,1,93.947,
01/01/2000,01:40:50.26,14.27,-73.44,-991.13,175.0,-647.50,-358.75,1,93.961,
01/01/2000,01:40:50.27,14.27,-73.57,-991.37,70.0,-770.0,-376.25,1,93.976,
01/01/2000,01:40:50.28,14.40,-73.69,-991.37,122.50,-630.0,-437.50,1,93.990,
01/01/2000,01:40:50.29,14.15,-73.44,-991.37,105.0,-726.25,-411.25,1,94.005,
01/01/2000,01:40:50.30,14.15,-73.44,-991.13,271.25,-743.75,-288.75,1,94.019,
01/01/2000,01:40:50.31,14.03,-73.32,-991.25,218.75,-691.25,-376.25,1,94.033,
01/01/2000,01:40:50.32,13.91,-73.44,-991.37,105.0,-805.0,-262.50,1,94.048,
01/01/2000,01:40:50.33,14.03,-73.69,-991.49,96.25,-691.25,-437.50,1,94.062,
01/01/2000,01:40:50.34,14.15,-73.69,-991.62,78.75,-743.75,-350.0,1,94.076,
01/01/2000,01:40:50.35,14.40,-73.69,-991.37,192.50,-656.25,-288.75,1,94.090,
01/01/2000,01:40:50.36,14.15,-73.69,-991.37,350.0,-656.25,-385.0,1,94.104,
01/01/2000,01:40:50.37,14.15,-73.69,-991.13,218.75,-735.0,-358.75,1,93.897,
01/01/2000,01:40:50.38,14.15,-73.69,-991.13,157.50,-647.50,-332.50,1,93.911,
01/01/2000,01:40:50.39,14.15,-73.69,-991.13,148.75,-603.75,-306.25,1,93.925,
01/01/2000,01:40:50.40,14.15,-73.69,-991.13,105.0,-691.25,-245.0,1,93.939,
01/01/2000,01:40:50.41,14.15,-73.81,-991.13,201.25,-761.25,-323.75,1,93.953,
01/01/2000,01:40:50.42,14.15,-73.93,-991.25,61.25,-752.50,-393.75,1,93.968,
01/01/2000,01:40:50.44,14.15,-73.69,-991.49,166.25,-577.50,-446.25,1,93.981,
01/01/2000,01:40:50.45,14.15,-73.57,-991.49,192.50,-743.75,-358.75,1,93.995,
01/01/2000,01:40:50.46,14.15,-73.44,-991.62,157.50,-735.0,-350.0,1,94.009,
01/01/2000,01:40:50.47,14.15,-73.44,-991.49,245.0,-603.75,-323.75,1,94.023,
01/01/2000,01:40:50.48,14.15,-73.57,-991.25,157.50,-717.50,-306.25,1,94.037,
01/01/2000,01:40:50.49,14.15,-73.93,-991.13,122.50,-656.25,-297.50,1,94.050,
01/01/2000,01:40:50.50,14.15,-73.81,-991.13,245.0,-577.50,-350.0,1,94.064,
01/01/2000,01:40:50.51,14.15,-73.69,-991.37,87.50,-717.50,-402.50,1,94.077,
01/01/2000,01:40:50.52,14.15,-73.57,-991.62,175.0,-735.0,-306.25,1,94.091,
01/01/2000,01:40:50.53,14.27,-73.20,-991.49,43.75,-691.25,-245.0,1,94.104,
01/01/2000,01:40:50.54,14.52,-73.32,-991.49,262.50,-647.50,-350.0,1,94.118,
01/01/2000,01:40:50.55,14.64,-73.44,-991.49,122.50,-735.0,-245.0,1,94.131,
01/01/2000,01:40:50.56,14.52,-73.44,-991.62,52.50,-796.25,-253.75,1,94.144,
01/01/2000,01:40:50.57,14.64,-73.57,-991.62,166.25,-778.75,-341.25,1,94.157,
01/01/2000,01:40:50.58,14.40,-73.32,-991.37,70.0,-586.25,-306.25,1,93.960,
01/01/2000,01:40:50.59,14.40,-73.44,-991.37,157.50,-647.50,-306.25,1,93.973,
01/01/2000,01:40:50.60,14.40,-73.32,-991.25,140.0,-822.50,-437.50,1,93.987,
01/01/2000,01:40:50.61,14.40,-73.44,-991.13,96.25,-778.75,-236.25,1,94.0,
01/01/2000,01:40:50.62,14.64,-73.69,-991.13,105.0,-647.50,-323.75,1,94.013,
01/01/2000,01:40:50.63,14.27,-73.69,-991.25,227.50,-752.50,-323.75,1,94.027,
01/01/2000,01:40:50.65,14.40,-73.69,-991.25,183.75,-691.25,-218.75,1,94.040,
01/01/2000,01:40:50.66,14.27,-73.44,-991.25,0.0,-743.75,-402.50,1,94.053,
01/01/2000,01:40:50.67,14.27,-73.44,-991.25,236.25,-770.0,-315.0,1,94.066,
01/01/2000,01:40:50.68,14.15,-73.44,-991.37,227.50,-647.50,-306.25,1,94.079,
01/01/2000,01:40:50.69,14.15,-73.44,-991.37,157.50,-787.50,-420.0,1,94.092,
01/01/2000,01:40:50.70,14.03,-73.44,-991.01,175.0,-682.50,-341.25,1,94.105,
01/01/2000,01:40:50.71,13.91,-73.44,-990.88,122.50,-735.0,-358.75,1,94.118,
01/01/2000,01:40:50.73,13.91,-73.44,-991.37,227.50,-770.0,-402.50,1,93.926,
01/01/2000,01:40:50.74,14.03,-73.57,-991.49,227.50,-647.50,-341.25,1,93.939,
01/01/2000,01:40:50.75,14.03,-73.44,-991.49,140.0,-752.50,-350.0,1,93.952,
01/01/2000,01:40:50.76,14.03,-73.69,-991.49,96.25,-673.75,-358.75,1,93.966,
01/01/2000,01:40:50.77,14.03,-73.57,-991.37,52.50,-673.75,-323.75,1,93.978,
01/01/2000,01:40:50.78,14.15,-73.44,-991.37,140.0,-752.50,-297.50,1,93.991,
01/01/2000,01:40:50.79,14.15,-73.57,-991.25,201.25,-761.25,-288.75,1,94.004,
01/01/2000,01:40:50.80,14.15,-73.69,-991.01,210.0,-621.25,-315.0,1,93.817,
01/01/2000,01:40:50.81,14.03,-73.69,-991.01,113.75,-717.50,-315.0,1,93.830,
01/01/2000,01:40:50.82,14.15,-73.57,-991.13,78.75,-568.75,-420.0,1,93.843,
01/01/2000,01:40:50.83,14.03,-73.44,-991.13,140.0,-735.0,-253.75,1,93.856,
01/01/2000,01:40:50.84,14.03,-73.44,-991.25,70.0,-638.75,-315.0,1,93.869,
01/01/2000,01:40:50.85,14.03,-73.32,-991.25,280.0,-735.0,-297.50,1,93.882,
01/01/2000,01:40:50.86,14.03,-73.44,-991.37,78.75,-752.50,-350.0,1,93.895,
01/01/2000,01:40:50.87,14.03,-73.57,-991.25,201.25,-647.50,-350.0,1,93.908,
01/01/2000,01:40:50.88,14.03,-73.69,-991.13,148.75,-831.25,-332.50,1,93.920,
01/01/2000,01:40:50.89,14.03,-73.69,-991.13,131.25,-673.75,-402.50,1,93.933,
01/01/2000,01:40:50.90,13.91,-73.57,-991.13,140.0,-700.0,-315.0,1,93.946,
01/01/2000,01:40:50.91,13.79,-73.69,-991.01,96.25,-726.25,-341.25,1,93.958,
01/01/2000,01:40:50.92,13.91,-73.44,-991.01,183.75,-770.0,-332.50,1,93.971,
01/01/2000,01:40:50.94,13.91,-73.44,-991.13,315.0,-595.0,-245.0,1,93.983,
01/01/2000,01:40:50.95,14.15,-73.57,-991.13,70.0,-595.0,-236.25,1,93.996,
01/01/2000,01:40:50.96,14.03,-73.69,-991.25,201.25,-630.0,-428.75,1,94.008,
01/01/2000,01:40:50.97,14.03,-73.57,-991.25,148.75,-595.0,-306.25,1,94.021,
01/01/2000,01:40:50.98,14.15,-73.57,-991.37,183.75,-752.50,-376.25,1,94.033,
01/01/2000,01:40:50.99,14.40,-73.44,-991.25,113.75,-700.0,-341.25,1,94.045,
01/01/2000,01:40:51.00,14.40,-73.57,-991.25,166.25,-700.0,-437.50,1,94.057,
01/01/2000,01:40:51.01,14.27,-73.57,-991.13,140.0,-682.50,-323.75,1,94.070,
01/01/2000,01:40:51.02,14.15,-73.69,-991.13,262.50,-735.0,-411.25,1,94.082,
01/01/2000,01:40:51.03,14.15,-73.44,-991.13,183.75,-682.50,-428.75,1,94.094,
01/01/2000,01:40:51.04,14.15,-73.44,-991.37,245.0,-656.25,-140.0,1,94.106,
01/01/2000,01:40:51.05,14.40,-73.32,-991.37,61.25,-682.50,-297.50,1,94.118,
01/01/2000,01:40:51.06,14.27,-73.44,-991.37,70.0,-647.50,-437.50,1,94.130,
01/01/2000,01:40:51.07,14.27,-73.57,-991.37,157.50,-568.75,-315.0,1,93.952,
01/01/2000,01:40:51.08,14.40,-73.44,-991.49,306.25,-577.50,-463.75,1,93.964,
01/01/2000,01:40:51.09,14.27,-73.20,-991.49,26.25,-647.50,-245.0,1,93.976,
01/01/2000,01:40:51.10,14.15,-73.20,-991.37,192.50,-743.75,-358.75,1,93.988,
01/01/2000,01:40:51.11,14.03,-73.32,-991.25,192.50,-682.50,-201.25,1,94.0,
01/01/2000,01:40:51.12,13.91,-73.44,-991.37,183.75,-656.25,-315.0,1,94.012,
01/01/2000,01:40:51.13,14.15,-73.69,-991.49,192.50,-726.25,-315.0,1,94.024,
01/01/2000,01:40:51.15,14.15,-73.69,-991.62,113.75,-656.25,-393.75,1,94.036,
01/01/2000,01:40:51.16,14.03,-73.57,-991.62,96.25,-691.25,-385.0,1,94.048,
01/01/2000,01:40:51.17,14.03,-73.69,-991.37,140.0,-673.75,-245.0,1,94.059,
01/01/2000,01:40:51.18,14.03,-73.57,-991.25,122.50,-796.25,-367.50,1,94.071,
01/01/2000,01:40:51.19,14.15,-73.69,-991.37,166.25,-691.25,-280.0,1,94.083,
01/01/2000,01:40:51.20,14.27,-73.69,-991.13,105.0,-595.0,-306.25,1,94.094,
01/01/2000,01:40:51.21,14.15,-73.93,-991.13,78.75,-787.50,-253.75,1,94.106,
01/01/2000,01:40:51.22,14.15,-73.93,-990.88,148.75,-726.25,-393.75,1,94.118,
01/01/2000,01:40:51.24,14.15,-73.69,-991.13,131.25,-638.75,-411.25,1,93.945,
01/01/2000,01:40:51.25,14.15,-73.69,-991.13,192.50,-787.50,-402.50,1,93.957,
01/01/2000,01:40:51.26,14.03,-73.44,-990.88,157.50,-787.50,-262.50,1,93.969,
01/01/2000,01:40:51.27,13.91,-73.57,-990.64,61.25,-656.25,-262.50,1,93.981,
01/01/2000,01:40:51.28,14.15,-73.69,-990.64,183.75,-708.75,-420.0,1,93.992,
01/01/2000,01:40:51.29,14.15,-73.69,-991.01,96.25,-673.75,-297.50,1,94.004,
01/01/2000,01:40:51.30,14.40,-73.57,-991.13,245.0,-778.75,-420.0,1,94.015,
01/01/2000,01:40:51.31,14.15,-73.57,-991.01,201.25,-743.75,-315.0,1,94.027,
01/01/2000,01:40:51.32,14.03,-73.44,-990.88,78.75,-612.50,-341.25,1,94.038,
01/01/2000,01:40:51.33,14.15,-73.93,-990.64,253.75,-516.25,-315.0,1,94.050,
01/01/2000,01:40:51.34,14.15,-73.69,-990.64,210.0,-700.0,-367.50,1,94.061,
01/01/2000,01:40:51.35,14.27,-73.93,-990.76,131.25,-726.25,-315.0,1,94.073,
01/01/2000,01:40:51.36,14.15,-73.81,-990.88,61.25,-691.25,-385.0,1,94.084,
01/01/2000,01:40:51.37,14.03,-73.81,-991.37,52.50,-691.25,-332.50,1,94.095,
01/01/2000,01:40:51.38,14.15,-73.81,-991.37,192.50,-840.0,-341.25,1,94.106,
01/01/2000,01:40:51.39,14.15,-73.57,-991.49,131.25,-743.75,-341.25,1,94.118,
01/01/2000,01:40:51.40,14.27,-73.69,-991.37,105.0,-743.75,-437.50,1,94.129,
01/01/2000,01:40:51.41,14.40,-73.93,-991.13,218.75,-770.0,-306.25,1,94.140,
01/01/2000,01:40:51.42,14.15,-73.81,-991.13,122.50,-708.75,-332.50,1,94.151,
01/01/2000,01:40:51.43,14.03,-73.93,-991.13,201.25,-708.75,-385.0,1,93.985,
01/01/2000,01:40:51.44,14.03,-73.69,-991.37,148.75,-630.0,-376.25,1,93.996,
01/01/2000,01:40:51.45,14.03,-73.69,-991.49,105.0,-735.0,-271.25,1,94.007,
01/01/2000,01:40:51.46,14.15,-73.81,-991.49,175.0,-717.50,-262.50,1,94.019,
01/01/2000,01:40:51.47,14.15,-73.93,-991.37,148.75,-682.50,-358.75,1,94.030,
01/01/2000,01:40:51.48,14.40,-74.30,-991.37,315.0,-708.75,-323.75,1,94.041,
01/01/2000,01:40:51.50,14.40,-73.81,-991.49,61.25,-787.50,-411.25,1,94.052,
01/01/2000,01:40:51.51,14.52,-73.81,-991.37,78.75,-700.0,-367.50,1,94.063,
01/01/2000,01:40:51.52,14.27,-73.69,-991.13,271.25,-700.0,-218.75,1,94.074,
01/01/2000,01:40:51.53,14.15,-73.44,-990.88,-61.25,-638.75,-297.50,1,94.085,
01/01/2000,01:40:51.54,14.40,-73.81,-991.13,245.0,-700.0,-323.75,1,94.096,
01/01/2000,01:40:51.55,14.40,-73.69,-991.37,192.50,-805.0,-297.50,1,94.107,
01/01/2000,01:40:51.56,14.40,-73.81,-991.37,148.75,-700.0,-341.25,1,94.118,
01/01/2000,01:40:51.57,14.40,-73.81,-991.37,262.50,-691.25,-288.75,1,94.128,
01/01/2000,01:40:51.58,14.03,-73.44,-991.25,-8.75,-691.25,-315.0,1,94.139,
01/01/2000,01:40:51.59,14.15,-73.57,-991.25,227.50,-700.0,-315.0,1,94.150,
01/01/2000,01:40:51.60,13.91,-73.69,-991.37,175.0,-647.50,-288.75,1,94.161,
01/01/2000,01:40:51.61,14.03,-73.69,-991.37,157.50,-673.75,-350.0,1,94.171,
01/01/2000,01:40:51.62,14.15,-73.93,-991.13,271.25,-770.0,-472.50,1,94.182,
01/01/2000,01:40:51.63,14.15,-73.69,-991.13,70.0,-673.75,-306.25,1,94.022,
01/01/2000,01:40:51.65,14.27,-73.81,-991.01,253.75,-691.25,-481.25,1,94.033,
01/01/2000,01:40:51.66,14.15,-73.44,-991.37,131.25,-656.25,-323.75,1,94.043,
01/01/2000,01:40:51.67,14.15,-73.69,-991.49,253.75,-647.50,-280.0,1,94.054,
01/01/2000,01:40:51.68,14.03,-73.93,-991.37,306.25,-621.25,-253.75,1,94.065,
01/01/2000,01:40:51.69,14.03,-73.69,-991.37,17.50,-612.50,-315.0,1,94.075,
01/01/2000,01:40:51.70,14.15,-73.81,-991.13,175.0,-743.75,-358.75,1,94.086,
01/01/2000,01:40:51.71,14.03,-73.57,-991.37,271.25,-665.0,-332.50,1,94.097,
01/01/2000,01:40:51.72,13.91,-73.57,-991.37,113.75,-647.50,-428.75,1,94.107,
01/01/2000,01:40:51.73,14.03,-73.57,-991.37,350.0,-761.25,-323.75,1,94.118,
01/01/2000,01:40:51.74,14.15,-73.69,-991.13,175.0,-673.75,-411.25,1,93.961,
01/01/2000,01:40:51.75,14.15,-73.81,-991.37,210.0,-691.25,-323.75,1,93.972,
01/01/2000,01:40:51.76,14.15,-73.93,-991.49,148.75,-673.75,-341.25,1,93.982,
01/01/2000,01:40:51.77,14.15,-74.05,-991.62,131.25,-743.75,-463.75,1,93.993,
01/01/2000,01:40:51.79,14.03,-73.93,-991.62,131.25,-647.50,-262.50,1,94.004,
01/01/2000,01:40:51.80,14.03,-73.69,-991.37,157.50,-656.25,-323.75,1,94.014,
01/01/2000,01:40:51.81,14.15,-73.69,-991.13,35.0,-647.50,-376.25,1,94.025,
01/01/2000,01:40:51.82,14.27,-73.69,-991.13,210.0,-735.0,-341.25,1,94.035,
01/01/2000,01:40:51.83,14.27,-73.93,-991.13,341.25,-638.75,-385.0,1,94.046,
01/01/2000,01:40:51.84,14.27,-74.05,-991.25,131.25,-656.25,-297.50,1,94.056,
01/01/2000,01:40:51.85,14.15,-73.93,-991.37,140.0,-700.0,-420.0,1,94.066,
01/01/2000,01:40:51.86,14.15,-73.81,-991.37,52.50,-673.75,-271.25,1,94.077,
01/01/2000,01:40:51.87,14.15,-73.69,-991.37,236.25,-778.75,-253.75,1,94.087,
01/01/2000,01:40:51.88,14.03,-73.81,-991.37,271.25,-630.0,-350.0,1,94.097,
01/01/2000,01:40:51.89,14.15,-73.81,-991.25,87.50,-717.50,-332.50,1,94.107,
01/01/2000,01:40:51.90,14.15,-73.93,-991.13,70.0,-665.0,-350.0,1,94.118,
01/01/2000,01:40:51.91,14.15,-73.69,-991.25,201.25,-656.25,-323.75,1,94.128,
01/01/2000,01:40:51.92,14.15,-73.57,-991.25,210.0,-577.50,-341.25,1,94.138,
01/01/2000,01:40:51.93,13.91,-73.44,-991.37,245.0,-603.75,-315.0,1,94.148,
01/01/2000,01:40:51.94,13.91,-73.69,-991.37,227.50,-761.25,-411.25,1,94.158,
01/01/2000,01:40:51.95,14.15,-73.81,-991.37,87.50,-621.25,-420.0,1,94.168,
01/01/2000,01:40:51.96,14.03,-73.81,-991.49,192.50,-717.50,-332.50,1,94.178,
01/01/2000,01:40:51.97,14.15,-73.69,-991.37,-43.75,-726.25,-402.50,1,94.188,
01/01/2000,01:40:51.98,14.15,-73.69,-991.25,105.0,-638.75,-288.75,1,94.198,
01/01/2000,01:40:51.99,14.15,-73.57,-991.25,70.0,-682.50,-350.0,1,94.208,
01/01/2000,01:40:52.00,14.15,-73.69,-991.13,113.75,-542.50,-358.75,1,94.218,
01/01/2000,01:40:52.01,14.15,-73.93,-991.25,218.75,-647.50,-367.50,1,94.228,
01/01/2000,01:40:52.02,14.03,-73.93,-991.37,122.50,-700.0,-428.75,1,94.237,
01/01/2000,01:40:52.03,14.15,-73.57,-991.25,-26.25,-708.75,-271.25,1,94.247,
01/01/2000,01:40:52.04,14.03,-73.57,-991.13,175.0,-682.50,-411.25,1,94.257,
01/01/2000,01:40:52.06,14.15,-73.57,-991.13,70.0,-603.75,-376.25,1,94.108,
01/01/2000,01:40:52.07,14.03,-73.69,-991.13,271.25,-603.75,-393.75,1,94.118,
01/01/2000,01:40:52.08,14.15,-73.57,-991.01,35.0,-673.75,-315.0,1,94.128,
01/01/2000,01:40:52.09,14.15,-73.81,-990.88,297.50,-796.25,-481.25,1,94.137,
01/01/2000,01:40:52.10,14.03,-73.32,-990.76,131.25,-595.0,-183.75,1,94.147,
01/01/2000,01:40:52.11,13.91,-73.69,-990.88,210.0,-568.75,-385.0,1,94.157,
01/01/2000,01:40:52.12,13.91,-73.57,-991.01,166.25,-673.75,-437.50,1,94.167,
01/01/2000,01:40:52.13,14.15,-73.44,-991.37,227.50,-752.50,-323.75,1,94.176,
01/01/2000,01:40:52.14,14.27,-73.69,-991.25,210.0,-735.0,-332.50,1,94.186,
01/01/2000,01:40:52.15,14.15,-73.69,-991.01,35.0,-866.25,-271.25,1,94.196,
01/01/2000,01:40:52.16,14.15,-73.81,-990.88,192.50,-743.75,-323.75,1,94.205,
01/01/2000,01:40:52.17,14.15,-73.57,-990.88,210.0,-682.50,-411.25,1,94.215,
01/01/2000,01:40:52.18,14.15,-73.44,-991.01,8.75,-691.25,-253.75,1,94.224,
01/01/2000,01:40:52.19,14.15,-73.57,-991.13,166.25,-717.50,-280.0,1,94.234,
01/01/2000,01:40:52.20,13.91,-73.20,-990.88,78.75,-612.50,-315.0,1,94.089,
01/01/2000,01:40:52.21,14.15,-73.44,-990.88,367.50,-612.50,-428.75,1,94.098,
01/01/2000,01:40:52.22,14.15,-73.44,-991.01,96.25,-656.25,-385.0,1,94.108,
01/01/2000,01:40:52.23,14.27,-73.57,-991.13,157.50,-682.50,-446.25,1,94.118,
01/01/2000,01:40:52.24,14.40,-73.69,-991.13,8.75,-656.25,-367.50,1,94.127,
01/01/2000,01:40:52.26,14.27,-73.32,-991.25,-122.50,-638.75,-323.75,1,94.137,
01/01/2000,01:40:52.27,14.40,-73.69,-991.13,245.0,-665.0,-341.25,1,94.146,
01/01/2000,01:40:52.28,14.27,-73.44,-991.13,87.50,-708.75,-315.0,1,94.156,
01/01/2000,01:40:52.29,14.40,-73.93,-991.13,157.50,-787.50,-358.75,1,94.165,
01/01/2000,01:40:52.30,14.27,-73.81,-991.01,218.75,-595.0,-376.25,1,94.175,
01/01/2000,01:40:52.31,14.03,-73.57,-990.88,70.0,-673.75,-367.50,1,94.184,
01/01/2000,01:40:52.32,14.15,-73.69,-991.01,131.25,-673.75,-481.25,1,94.194,
01/01/2000,01:40:52.33,14.15,-73.32,-991.13,113.75,-700.0,-280.0,1,94.203,
01/01/2000,01:40:52.34,14.27,-73.20,-991.13,87.50,-796.25,-323.75,1,94.212,
01/01/2000,01:40:52.35,14.27,-73.57,-991.13,113.75,-770.0,-341.25,1,94.222,
01/01/2000,01:40:52.36,13.91,-73.57,-991.25,157.50,-682.50,-341.25,1,94.231,
01/01/2000,01:40:52.37,14.15,-73.69,-991.37,157.50,-673.75,-367.50,1,94.240,
01/01/2000,01:40:52.38,14.03,-73.44,-991.37,78.75,-700.0,-271.25,1,94.099,
01/01/2000,01:40:52.39,14.15,-73.20,-991.37,87.50,-770.0,-332.50,1,94.108,
01/01/2000,01:40:52.40,14.15,-73.44,-991.37,113.75,-770.0,-297.50,1,94.118,
01/01/2000,01:40:52.42,13.91,-73.44,-991.49,52.50,-630.0,-323.75,1,94.127,
01/01/2000,01:40:52.43,14.15,-73.69,-991.37,227.50,-647.50,-385.0,1,94.136,
01/01/2000,01:40:52.44,14.27,-73.44,-991.25,148.75,-603.75,-341.25,1,94.146,
01/01/2000,01:40:52.45,14.15,-73.69,-991.13,157.50,-560.0,-411.25,1,94.155,
01/01/2000,01:40:52.46,14.03,-73.57,-991.13,131.25,-735.0,-315.0,1,94.164,
01/01/2000,01:40:52.47,13.79,-73.81,-991.01,218.75,-770.0,-516.25,1,94.173,
01/01/2000,01:40:52.48,13.79,-73.69,-991.25,201.25,-717.50,-341.25,1,94.182,
01/01/2000,01:40:52.49,13.91,-73.57,-991.37,8.75,-743.75,-402.50,1,94.192,
01/01/2000,01:40:52.50,14.03,-73.69,-991.13,297.50,-682.50,-437.50,1,94.201,
01/01/2000,01:40:52.51,13.91,-73.44,-990.88,52.50,-743.75,-210.0,1,94.210,
01/01/2000,01:40:52.52,14.03,-73.44,-990.88,280.0,-700.0,-446.25,1,94.219,
01/01/2000,01:40:52.53,14.03,-73.69,-991.37,332.50,-682.50,-288.75,1,94.228,
01/01/2000,01:40:52.54,14.15,-73.57,-991.74,70.0,-656.25,-402.50,1,94.237,
01/01/2000,01:40:52.55,13.79,-73.57,-991.37,332.50,-595.0,-411.25,1,94.099,
01/01/2000,01:40:52.56,13.66,-73.57,-991.13,140.0,-595.0,-315.0,1,94.109,
01/01/2000,01:40:52.57,13.91,-73.44,-990.88,245.0,-735.0,-402.50,1,94.118,
01/01/2000,01:40:52.58,14.15,-73.44,-991.01,157.50,-542.50,-367.50,1,94.127,
01/01/2000,01:40:52.59,14.15,-73.57,-991.37,-87.50,-673.75,-315.0,1,94.136,
01/01/2000,01:40:52.60,14.15,-73.81,-991.37,315.0,-638.75,-367.50,1,94.145,
01/01/2000,01:40:52.61,14.03,-73.57,-991.37,105.0,-656.25,-350.0,1,94.154,
01/01/2000,01:40:52.63,14.15,-73.44,-991.37,131.25,-831.25,-490.0,1,94.163,
01/01/2000,01:40:52.64,14.15,-73.69,-991.37,280.0,-708.75,-236.25,1,94.172,
01/01/2000,01:40:52.65,13.91,-73.44,-991.74,140.0,-551.25,-341.25,1,94.181,
01/01/2000,01:40:52.66,14.40,-73.69,-991.49,140.0,-586.25,-280.0,1,94.190,
01/01/2000,01:40:52.67,14.15,-73.93,-991.25,175.0,-673.75,-315.0,1,94.198,
01/01/2000,01:40:52.68,14.15,-73.57,-991.13,87.50,-761.25,-385.0,1,94.207,
01/01/2000,01:40:52.69,14.15,-73.93,-991.37,472.50,-700.0,-385.0,1,94.216,
01/01/2000,01:40:52.70,14.03,-73.32,-991.74,70.0,-647.50,-288.75,1,94.225,
01/01/2000,01:40:52.71,14.15,-73.57,-991.62,236.25,-665.0,-306.25,1,94.234,
01/01/2000,01:40:52.72,13.79,-73.69,-991.37,157.50,-708.75,-271.25,1,94.242,
01/01/2000,01:40:52.73,13.91,-73.93,-991.13,61.25,-717.50,-463.75,1,94.251,
01/01/2000,01:40:52.74,14.27,-73.93,-991.13,262.50,-735.0,-332.50,1,94.260,
01/01/2000,01:40:52.75,14.27,-73.69,-991.13,175.0,-717.50,-236.25,1,94.268,
01/01/2000,01:40:52.77,14.03,-73.81,-991.49,288.75,-796.25,-411.25,1,94.135,
01/01/2000,01:40:52.78,13.91,-73.57,-991.62,78.75,-726.25,-402.50,1,94.144,
01/01/2000,01:40:52.79,14.15,-73.57,-991.37,113.75,-621.25,-253.75,1,94.153,
01/01/2000,01:40:52.80,14.15,-73.57,-991.37,140.0,-743.75,-376.25,1,94.162,
01/01/2000,01:40:52.81,14.03,-73.57,-991.49,166.25,-726.25,-271.25,1,94.170,
01/01/2000,01:40:52.82,14.15,-73.81,-991.13,315.0,-700.0,-498.75,1,94.179,
01/01/2000,01:40:52.83,13.91,-73.69,-991.25,105.0,-638.75,-271.25,1,94.188,
01/01/2000,01:40:52.84,14.03,-73.69,-991.37,131.25,-778.75,-350.0,1,94.056,
01/01/2000,01:40:52.85,14.15,-73.69,-991.62,315.0,-682.50,-332.50,1,94.205,
01/01/2000,01:40:52.86,14.27,-73.44,-991.37,0.0,-673.75,-315.0,1,94.074,
01/01/2000,01:40:52.87,14.15,-73.69,-991.25,218.75,-708.75,-323.75,1,94.083,
01/01/2000,01:40:52.88,14.27,-73.81,-991.37,140.0,-708.75,-402.50,1,94.092,
01/01/2000,01:40:52.89,14.15,-73.93,-991.37,192.50,-647.50,-481.25,1,94.100,
01/01/2000,01:40:52.90,14.27,-73.57,-991.37,148.75,-708.75,-498.75,1,94.109,
01/01/2000,01:40:52.91,14.03,-73.44,-991.37,227.50,-708.75,-280.0,1,94.118,
01/01/2000,01:40:52.92,13.91,-73.57,-991.49,105.0,-673.75,-376.25,1,94.126,
01/01/2000,01:40:52.93,13.79,-73.69,-991.49,113.75,-778.75,-350.0,1,94.135,
01/01/2000,01:40:52.94,14.03,-73.81,-991.62,183.75,-717.50,-332.50,1,94.143,
01/01/2000,01:40:52.95,14.15,-73.93,-991.62,253.75,-708.75,-332.50,1,94.152,
01/01/2000,01:40:52.96,13.91,-73.93,-991.62,61.25,-638.75,-210.0,1,94.161,
01/01/2000,01:40:52.98,13.91,-74.18,-991.62,341.25,-630.0,-446.25,1,94.169,
01/01/2000,01:40:52.99,13.91,-73.69,-991.74,148.75,-726.25,-350.0,1,94.178,
01/01/2000,01:40:53.00,14.15,-73.69,-991.74,131.25,-665.0,-271.25,1,94.186,
01/01/2000,01:40:53.01,14.27,-73.69,-991.62,175.0,-717.50,-288.75,1,94.194,
01/01/2000,01:40:53.02,14.15,-73.81,-991.37,253.75,-700.0,-385.0,1,94.203,
01/01/2000,01:40:53.03,14.27,-73.93,-991.37,166.25,-770.0,-341.25,1,94.211,
01/01/2000,01:40:53.04,14.15,-73.93,-991.37,96.25,-612.50,-385.0,1,94.220,
01/01/2000,01:40:53.05,14.03,-73.69,-991.62,-8.75,-638.75,-227.50,1,94.228,
01/01/2000,01:40:53.06,14.03,-73.57,-991.62,201.25,-682.50,-385.0,1,94.236,
01/01/2000,01:40:53.07,13.91,-73.44,-991.49,61.25,-691.25,-306.25,1,94.245,
01/01/2000,01:40:53.08,14.03,-73.69,-991.25,288.75,-743.75,-358.75,1,94.253,
01/01/2000,01:40:53.09,14.03,-73.81,-991.25,96.25,-726.25,-402.50,1,94.261,
01/01/2000,01:40:53.10,13.91,-73.81,-991.37,87.50,-708.75,-385.0,1,94.269,
01/01/2000,01:40:53.11,13.91,-73.57,-991.37,166.25,-743.75,-271.25,1,94.143,
01/01/2000,01:40:53.12,13.91,-73.44,-991.37,43.75,-708.75,-236.25,1,94.151,
01/01/2000,01:40:53.13,13.79,-73.44,-991.37,140.0,-708.75,-306.25,1,94.160,
01/01/2000,01:40:53.14,13.79,-73.69,-991.37,87.50,-638.75,-358.75,1,94.168,
01/01/2000,01:40:53.15,13.91,-73.69,-991.37,192.50,-630.0,-393.75,1,94.176,
01/01/2000,01:40:53.16,14.15,-73.93,-991.49,61.25,-761.25,-332.50,1,94.184,
01/01/2000,01:40:53.17,14.03,-73.93,-991.37,166.25,-638.75,-402.50,1,94.193,
01/01/2000,01:40:53.19,14.03,-73.93,-991.13,183.75,-577.50,-297.50,1,94.201,
01/01/2000,01:40:53.20,14.15,-73.81,-991.25,140.0,-673.75,-236.25,1,94.209,
01/01/2000,01:40:53.21,14.15,-73.69,-991.49,288.75,-656.25,-367.50,1,94.217,
01/01/2000,01:40:53.22,14.15,-73.69,-991.62,201.25,-665.0,-358.75,1,94.225,
01/01/2000,01:40:53.23,14.15,-73.57,-991.62,-17.50,-603.75,-280.0,1,94.233,
01/01/2000,01:40:53.24,14.27,-73.69,-991.62,131.25,-805.0,-315.0,1,94.242,
01/01/2000,01:40:53.25,14.40,-73.81,-991.62,183.75,-743.75,-332.50,1,94.250,
01/01/2000,01:40:53.26,14.40,-73.81,-991.74,236.25,-682.50,-271.25,1,94.258,
01/01/2000,01:40:53.27,14.27,-73.69,-991.62,43.75,-621.25,-288.75,1,94.266,
01/01/2000,01:40:53.29,14.15,-73.69,-991.49,175.0,-656.25,-350.0,1,94.142,
01/01/2000,01:40:53.30,14.40,-73.57,-991.37,157.50,-568.75,-280.0,1,94.150,
01/01/2000,01:40:53.31,14.40,-73.69,-991.49,96.25,-717.50,-367.50,1,94.159,
01/01/2000,01:40:53.32,14.27,-73.81,-991.49,140.0,-612.50,-253.75,1,94.167,
01/01/2000,01:40:53.33,14.15,-73.93,-991.74,131.25,-656.25,-315.0,1,94.175,
01/01/2000,01:40:53.34,14.27,-73.81,-991.86,61.25,-743.75,-463.75,1,94.183,
01/01/2000,01:40:53.35,14.40,-73.69,-991.86,140.0,-691.25,-280.0,1,94.191,
01/01/2000,01:40:53.36,14.40,-73.69,-991.62,140.0,-673.75,-280.0,1,94.199,
01/01/2000,01:40:53.37,14.15,-73.81,-991.74,315.0,-778.75,-210.0,1,94.207,
01/01/2000,01:40:53.38,14.15,-73.93,-991.62,78.75,-805.0,-385.0,1,94.215,
01/01/2000,01:40:53.39,14.15,-73.93,-991.74,358.75,-726.25,-367.50,1,94.223,
01/01/2000,01:40:53.40,14.15,-73.69,-991.74,183.75,-603.75,-306.25,1,94.231,
01/01/2000,01:40:53.41,14.15,-73.69,-991.62,218.75,-665.0,-446.25,1,94.239,
01/01/2000,01:40:53.42,13.91,-73.57,-991.62,210.0,-717.50,-341.25,1,94.247,
01/01/2000,01:40:53.43,14.15,-73.69,-991.62,210.0,-638.75,-420.0,1,94.254,
01/01/2000,01:40:53.44,14.27,-73.69,-991.74,148.75,-630.0,-271.25,1,94.262,
01/01/2000,01:40:53.45,14.15,-73.69,-991.74,140.0,-726.25,-411.25,1,94.270,
01/01/2000,01:40:53.46,14.15,-73.69,-991.62,166.25,-577.50,-455.0,1,94.278,
01/01/2000,01:40:53.47,13.91,-73.44,-991.74,96.25,-577.50,-350.0,1,94.158,
01/01/2000,01:40:53.48,14.15,-73.44,-991.74,175.0,-682.50,-350.0,1,94.166,
01/01/2000,01:40:53.49,14.15,-73.69,-991.86,157.50,-717.50,-271.25,1,94.173,
01/01/2000,01:40:53.50,14.15,-73.93,-991.86,192.50,-813.75,-507.50,1,94.181,
01/01/2000,01:40:53.51,14.03,-74.05,-991.74,210.0,-621.25,-420.0,1,94.189,
01/01/2000,01:40:53.52,14.15,-73.93,-991.49,26.25,-752.50,-332.50,1,94.197,
01/01/2000,01:40:53.54,14.15,-73.93,-991.62,210.0,-665.0,-385.0,1,94.205,
01/01/2000,01:40:53.55,14.03,-73.81,-991.62,-17.50,-778.75,-280.0,1,94.213,
01/01/2000,01:40:53.56,14.15,-73.93,-991.62,201.25,-708.75,-350.0,1,94.220,
01/01/2000,01:40:53.57,14.15,-73.93,-991.49,157.50,-752.50,-332.50,1,94.228,
01/01/2000,01:40:53.58,14.15,-74.18,-991.37,166.25,-621.25,-411.25,1,94.236,
01/01/2000,01:40:53.59,14.15,-74.18,-991.37,323.75,-717.50,-402.50,1,94.244,
01/01/2000,01:40:53.60,14.15,-73.93,-991.37,105.0,-770.0,-323.75,1,94.251,
01/01/2000,01:40:53.61,14.27,-73.93,-991.37,192.50,-647.50,-306.25,1,94.259,
01/01/2000,01:40:53.62,14.03,-73.93,-991.37,192.50,-647.50,-306.25,1,94.267,
01/01/2000,01:40:53.63,14.15,-74.18,-991.49,113.75,-708.75,-350.0,1,94.274,
01/01/2000,01:40:53.64,14.40,-73.93,-991.62,-17.50,-700.0,-393.75,1,94.282,
01/01/2000,01:40:53.65,14.40,-73.93,-991.49,87.50,-691.25,-201.25,1,94.290,
01/01/2000,01:40:53.66,14.40,-74.05,-991.49,280.0,-647.50,-402.50,1,94.297,
01/01/2000,01:40:53.68,13.91,-73.69,-991.37,52.50,-813.75,-376.25,1,94.180,
01/01/2000,01:40:53.69,14.15,-73.93,-991.37,157.50,-743.75,-350.0,1,94.188,
01/01/2000,01:40:53.70,14.15,-73.69,-991.62,148.75,-621.25,-332.50,1,94.195,
01/01/2000,01:40:53.71,14.15,-73.93,-991.86,175.0,-717.50,-280.0,1,94.203,
01/01/2000,01:40:53.72,14.03,-73.81,-991.62,218.75,-778.75,-428.75,1,94.211,
01/01/2000,01:40:53.73,14.03,-73.81,-991.37,96.25,-621.25,-253.75,1,94.218,
01/01/2000,01:40:53.74,14.15,-73.93,-991.37,175.0,-577.50,-332.50,1,94.226,
01/01/2000,01:40:53.75,14.03,-73.81,-991.62,166.25,-577.50,-385.0,1,94.233,
01/01/2000,01:40:53.76,14.03,-73.69,-991.86,183.75,-665.0,-315.0,1,94.241,
01/01/2000,01:40:53.77,14.03,-73.69,-991.86,122.50,-708.75,-280.0,1,94.248,
01/01/2000,01:40:53.78,13.91,-73.81,-991.62,61.25,-612.50,-218.75,1,94.256,
01/01/2000,01:40:53.79,13.91,-74.18,-991.62,148.75,-735.0,-367.50,1,94.141,
01/01/2000,01:40:53.80,14.03,-73.93,-991.49,131.25,-656.25,-402.50,1,94.148,
01/01/2000,01:40:53.81,14.15,-73.93,-991.62,157.50,-595.0,-192.50,1,94.156,
01/01/2000,01:40:53.83,14.03,-73.81,-991.62,131.25,-770.0,-332.50,1,94.163,
01/01/2000,01:40:53.84,13.79,-73.93,-991.49,157.50,-735.0,-393.75,1,94.171,
01/01/2000,01:40:53.85,13.66,-74.05,-991.49,166.25,-778.75,-367.50,1,94.179,
01/01/2000,01:40:53.86,13.91,-73.93,-991.86,113.75,-778.75,-358.75,1,94.186,
01/01/2000,01:40:53.87,14.15,-73.93,-991.86,192.50,-638.75,-315.0,1,94.194,
01/01/2000,01:40:53.88,14.27,-73.93,-991.86,166.25,-612.50,-402.50,1,94.201,
01/01/2000,01:40:53.89,14.03,-73.69,-991.49,192.50,-542.50,-271.25,1,94.208,
01/01/2000,01:40:53.90,13.91,-73.69,-991.49,218.75,-708.75,-446.25,1,94.216,
01/01/2000,01:40:53.91,14.03,-73.69,-991.74,140.0,-743.75,-253.75,1,94.223,
01/01/2000,01:40:53.92,14.15,-73.57,-991.98,183.75,-612.50,-245.0,1,94.231,
01/01/2000,01:40:53.93,14.15,-73.57,-991.86,210.0,-813.75,-376.25,1,94.238,
01/01/2000,01:40:53.94,13.91,-73.81,-991.62,78.75,-717.50,-297.50,1,94.246,
01/01/2000,01:40:53.95,13.79,-73.69,-991.49,157.50,-682.50,-358.75,1,94.253,
01/01/2000,01:40:53.96,13.91,-73.44,-991.74,306.25,-603.75,-306.25,1,94.260,
01/01/2000,01:40:53.97,13.91,-73.44,-991.74,61.25,-857.50,-288.75,1,94.268,
01/01/2000,01:40:53.98,13.91,-73.44,-991.62,297.50,-778.75,-192.50,1,94.275,
01/01/2000,01:40:53.99,13.66,-73.57,-991.49,262.50,-586.25,-350.0,1,94.282,
01/01/2000,01:40:54.00,13.79,-73.81,-991.49,192.50,-665.0,-385.0,1,94.289,
01/01/2000,01:40:54.01,14.03,-73.44,-991.62,140.0,-595.0,-376.25,1,94.297,
01/01/2000,01:40:54.02,14.15,-73.44,-991.62,157.50,-630.0,-376.25,1,94.304,
01/01/2000,01:40:54.03,14.15,-73.44,-991.49,201.25,-682.50,-280.0,1,94.192,
01/01/2000,01:40:54.04,14.03,-73.57,-991.25,227.50,-735.0,-341.25,1,94.199,
01/01/2000,01:40:54.05,14.03,-73.81,-991.49,367.50,-726.25,-481.25,1,94.207,
01/01/2000,01:40:54.06,14.15,-73.69,-991.74,183.75,-805.0,-236.25,1,94.214,
01/01/2000,01:40:54.07,14.40,-73.57,-991.74,52.50,-761.25,-350.0,1,94.221,
01/01/2000,01:40:54.08,14.40,-73.44,-991.37,157.50,-752.50,-210.0,1,94.228,
01/01/2000,01:40:54.10,14.15,-73.44,-991.13,87.50,-743.75,-341.25,1,94.236,
01/01/2000,01:40:54.11,14.15,-73.69,-991.25,288.75,-665.0,-315.0,1,94.243,
01/01/2000,01:40:54.12,14.15,-73.57,-991.37,148.75,-656.25,-350.0,1,94.250,
01/01/2000,01:40:54.13,14.15,-73.69,-991.37,122.50,-700.0,-236.25,1,94.257,
01/01/2000,01:40:54.14,14.03,-73.69,-991.37,218.75,-700.0,-297.50,1,94.264,
01/01/2000,01:40:54.15,13.91,-73.69,-991.25,183.75,-717.50,-350.0,1,94.271,
01/01/2000,01:40:54.16,13.79,-73.81,-991.25,148.75,-752.50,-350.0,1,94.279,
01/01/2000,01:40:54.17,14.03,-73.57,-991.74,17.50,-577.50,-341.25,1,94.286,
01/01/2000,01:40:54.18,13.91,-73.69,-991.86,253.75,-682.50,-367.50,1,94.293,
01/01/2000,01:40:54.19,13.54,-73.81,-991.62,148.75,-612.50,-385.0,1,94.300,
01/01/2000,01:40:54.20,13.66,-73.69,-991.37,271.25,-796.25,-367.50,1,94.307,
01/01/2000,01:40:54.21,13.79,-73.69,-991.37,166.25,-726.25,-393.75,1,94.314,
01/01/2000,01:40:54.22,13.79,-73.69,-991.62,87.50,-708.75,-271.25,1,94.321,
01/01/2000,01:40:54.23,13.66,-73.81,-991.86,122.50,-770.0,-341.25,1,94.328,
01/01/2000,01:40:54.25,13.66,-73.69,-991.62,113.75,-717.50,-358.75,1,94.219,
01/01/2000,01:40:54.25,13.79,-73.69,-991.49,183.75,-761.25,-323.75,1,94.226,
01/01/2000,01:40:54.27,14.03,-73.69,-991.62,122.50,-638.75,-376.25,1,94.233,
01/01/2000,01:40:54.28,14.15,-73.69,-991.74,218.75,-612.50,-341.25,1,94.240,
01/01/2000,01:40:54.29,14.27,-73.57,-991.37,148.75,-717.50,-315.0,1,94.247,
01/01/2000,01:40:54.30,14.15,-73.69,-991.37,157.50,-708.75,-420.0,1,94.254,
01/01/2000,01:40:54.31,14.40,-73.69,-991.62,253.75,-682.50,-341.25,1,94.146,
01/01/2000,01:40:54.32,14.64,-73.69,-991.49,78.75,-743.75,-341.25,1,94.153,
01/01/2000,01:40:54.33,14.64,-73.57,-991.25,166.25,-743.75,-280.0,1,94.161,
01/01/2000,01:40:54.34,14.27,-73.93,-991.13,96.25,-691.25,-481.25,1,94.168,
01/01/2000,01:40:54.35,14.15,-74.05,-991.01,43.75,-752.50,-411.25,1,94.175,
01/01/2000,01:40:54.36,14.40,-73.93,-991.01,183.75,-735.0,-437.50,1,94.182,
01/01/2000,01:40:54.37,14.52,-73.69,-991.13,52.50,-700.0,-315.0,1,94.189,
01/01/2000,01:40:54.39,14.15,-73.69,-991.13,105.0,-630.0,-315.0,1,94.196,
01/01/2000,01:40:54.40,14.03,-73.93,-991.01,201.25,-735.0,-437.50,1,94.203,
01/01/2000,01:40:54.41,13.91,-73.69,-991.13,236.25,-586.25,-376.25,1,94.210,
01/01/2000,01:40:54.42,14.27,-73.81,-991.13,61.25,-691.25,-376.25,1,94.217,
01/01/2000,01:40:54.43,14.40,-73.81,-991.25,227.50,-647.50,-245.0,1,94.224,
01/01/2000,01:40:54.44,14.15,-73.69,-991.25,183.75,-612.50,-358.75,1,94.231,
01/01/2000,01:40:54.45,14.15,-73.81,-991.25,350.0,-638.75,-323.75,1,94.238,
01/01/2000,01:40:54.46,14.27,-73.69,-991.25,113.75,-813.75,-271.25,1,94.245,
01/01/2000,01:40:54.47,14.40,-73.93,-991.49,253.75,-665.0,-332.50,1,94.251,
01/01/2000,01:40:54.48,14.40,-73.81,-991.62,105.0,-770.0,-271.25,1,94.258,
01/01/2000,01:40:54.49,14.40,-73.69,-991.37,192.50,-700.0,-358.75,1,94.265,
01/01/2000,01:40:54.50,14.40,-73.69,-991.25,157.50,-717.50,-376.25,1,94.272,
01/01/2000,01:40:54.51,14.27,-73.57,-991.25,113.75,-665.0,-358.75,1,94.279,
01/01/2000,01:40:54.52,14.52,-73.69,-991.37,227.50,-682.50,-332.50,1,94.286,
01/01/2000,01:40:54.53,14.52,-73.57,-991.49,192.50,-735.0,-376.25,1,94.293,
01/01/2000,01:40:54.54,14.52,-73.44,-991.62,157.50,-673.75,-306.25,1,94.299,
01/01/2000,01:40:54.55,14.40,-73.57,-991.37,236.25,-726.25,-280.0,1,94.306,
01/01/2000,01:40:54.56,14.15,-73.57,-991.37,157.50,-647.50,-437.50,1,94.313,
01/01/2000,01:40:54.57,14.27,-73.69,-991.25,210.0,-621.25,-332.50,1,94.320,
01/01/2000,01:40:54.58,14.40,-73.44,-991.37,140.0,-778.75,-262.50,1,94.326,
01/01/2000,01:40:54.59,14.40,-73.32,-991.37,218.75,-796.25,-297.50,1,94.222,
01/01/2000,01:40:54.60,14.40,-73.57,-991.13,122.50,-752.50,-341.25,1,94.229,
01/01/2000,01:40:54.61,14.40,-73.44,-991.25,227.50,-700.0,-350.0,1,94.235,
01/01/2000,01:40:54.62,14.64,-73.57,-991.37,122.50,-665.0,-288.75,1,94.242,
01/01/2000,01:40:54.63,14.52,-73.57,-991.49,183.75,-752.50,-262.50,1,94.249,
01/01/2000,01:40:54.64,14.52,-73.44,-991.49,218.75,-682.50,-262.50,1,94.256,
01/01/2000,01:40:54.66,14.27,-73.57,-991.13,245.0,-612.50,-411.25,1,94.262,
01/01/2000,01:40:54.67,14.15,-73.57,-991.13,201.25,-761.25,-393.75,1,94.269,
01/01/2000,01:40:54.68,14.15,-73.69,-991.25,192.50,-691.25,-341.25,1,94.276,
01/01/2000,01:40:54.69,14.15,-73.69,-991.37,157.50,-630.0,-367.50,1,94.282,
01/01/2000,01:40:54.70,14.15,-73.57,-991.37,210.0,-682.50,-376.25,1,94.289,
01/01/2000,01:40:54.71,14.03,-73.69,-991.13,315.0,-700.0,-367.50,1,94.296,
01/01/2000,01:40:54.72,13.91,-73.69,-991.13,245.0,-673.75,-288.75,1,94.302,
01/01/2000,01:40:54.73,14.40,-73.69,-991.13,271.25,-770.0,-446.25,1,94.309,
01/01/2000,01:40:54.74,14.27,-73.69,-991.37,236.25,-708.75,-376.25,1,94.316,
01/01/2000,01:40:54.75,14.15,-73.81,-991.25,113.75,-682.50,-393.75,1,94.322,
01/01/2000,01:40:54.76,14.03,-73.93,-991.13,288.75,-682.50,-341.25,1,94.329,
01/01/2000,01:40:54.77,13.91,-73.57,-991.13,122.50,-743.75,-315.0,1,94.335,
01/01/2000,01:40:54.78,14.03,-73.69,-991.13,297.50,-647.50,-315.0,1,94.342,
01/01/2000,01:40:54.79,14.15,-73.57,-991.37,148.75,-813.75,-280.0,1,94.348,
01/01/2000,01:40:54.81,14.03,-73.69,-991.25,26.25,-603.75,-411.25,1,94.246,
01/01/2000,01:40:54.81,14.15,-73.69,-991.13,253.75,-647.50,-341.25,1,94.253,
01/01/2000,01:40:54.83,14.15,-73.69,-991.37,87.50,-647.50,-350.0,1,94.259,
01/01/2000,01:40:54.84,14.15,-73.69,-991.37,227.50,-726.25,-297.50,1,94.266,
01/01/2000,01:40:54.85,14.15,-73.57,-991.37,175.0,-647.50,-315.0,1,94.273,
01/01/2000,01:40:54.86,14.03,-73.69,-991.37,192.50,-612.50,-341.25,1,94.279,
01/01/2000,01:40:54.87,14.03,-73.69,-991.37,166.25,-647.50,-393.75,1,94.286,
01/01/2000,01:40:54.88,14.15,-73.69,-991.37,131.25,-691.25,-315.0,1,94.292,
01/01/2000,01:40:54.89,14.15,-73.69,-991.37,192.50,-735.0,-253.75,1,94.191,
01/01/2000,01:40:54.90,14.03,-73.81,-991.37,236.25,-682.50,-367.50,1,94.198,
01/01/2000,01:40:54.91,14.03,-73.81,-991.37,192.50,-805.0,-323.75,1,94.205,
01/01/2000,01:40:54.92,14.15,-73.69,-991.37,201.25,-673.75,-271.25,1,94.211,
01/01/2000,01:40:54.93,14.15,-73.69,-991.37,0.0,-568.75,-350.0,1,94.218,
01/01/2000,01:40:54.94,14.15,-73.69,-991.49,157.50,-796.25,-402.50,1,94.224,
01/01/2000,01:40:54.95,14.15,-73.69,-991.49,78.75,-656.25,-437.50,1,94.231,
01/01/2000,01:40:54.96,14.15,-73.69,-991.37,131.25,-752.50,-332.50,1,94.237,
01/01/2000,01:40:54.97,14.27,-73.69,-991.13,280.0,-717.50,-315.0,1,94.244,
01/01/2000,01:40:54.98,14.27,-73.57,-991.13,148.75,-673.75,-315.0,1,94.250,
01/01/2000,01:40:54.99,14.27,-73.69,-991.25,148.75,-673.75,-411.25,1,94.257,
01/01/2000,01:40:55.01,14.40,-73.69,-991.25,96.25,-603.75,-271.25,1,94.263,
01/01/2000,01:40:55.02,14.15,-73.69,-991.37,245.0,-708.75,-306.25,1,94.270,
01/01/2000,01:40:55.03,14.15,-73.93,-991.37,148.75,-673.75,-323.75,1,94.276,
01/01/2000,01:40:55.04,14.15,-73.69,-991.49,140.0,-752.50,-315.0,1,94.283,
01/01/2000,01:40:55.05,14.27,-73.69,-991.49,210.0,-743.75,-411.25,1,94.289,
01/01/2000,01:40:55.06,14.15,-73.57,-991.49,131.25,-752.50,-323.75,1,94.295,
01/01/2000,01:40:55.07,14.03,-73.57,-991.49,8.75,-708.75,-332.50,1,94.302,
01/01/2000,01:40:55.08,13.91,-73.81,-991.37,210.0,-665.0,-402.50,1,94.308,
01/01/2000,01:40:55.09,13.91,-73.69,-991.37,96.25,-787.50,-341.25,1,94.314,
01/01/2000,01:40:55.10,14.15,-73.44,-991.37,87.50,-700.0,-402.50,1,94.321,
01/01/2000,01:40:55.11,14.15,-73.57,-991.01,350.0,-647.50,-306.25,1,94.327,
01/01/2000,01:40:55.12,14.15,-73.44,-990.88,140.0,-673.75,-393.75,1,94.333,
01/01/2000,01:40:55.13,14.15,-73.69,-990.88,140.0,-638.75,-376.25,1,94.340,
01/01/2000,01:40:55.14,14.15,-73.81,-991.13,140.0,-656.25,-358.75,1,94.346,
01/01/2000,01:40:55.16,14.15,-73.69,-991.13,175.0,-630.0,-393.75,1,94.248,
01/01/2000,01:40:55.17,14.03,-73.81,-991.01,78.75,-638.75,-245.0,1,94.254,
01/01/2000,01:40:55.18,13.91,-73.69,-991.01,218.75,-682.50,-306.25,1,94.260,
01/01/2000,01:40:55.19,14.03,-73.69,-991.13,105.0,-638.75,-358.75,1,94.267,
01/01/2000,01:40:55.20,14.03,-73.69,-991.37,323.75,-796.25,-393.75,1,94.273,
01/01/2000,01:40:55.21,14.03,-73.69,-991.25,253.75,-700.0,-271.25,1,94.279,
01/01/2000,01:40:55.22,13.91,-73.69,-991.01,87.50,-726.25,-446.25,1,94.286,
01/01/2000,01:40:55.23,13.91,-73.57,-991.01,-35.0,-743.75,-315.0,1,94.292,
01/01/2000,01:40:55.24,14.15,-73.69,-991.13,183.75,-691.25,-446.25,1,94.298,
01/01/2000,01:40:55.25,14.03,-73.57,-991.37,218.75,-761.25,-288.75,1,94.304,
01/01/2000,01:40:55.26,14.03,-73.44,-991.37,96.25,-761.25,-323.75,1,94.311,
01/01/2000,01:40:55.27,14.03,-73.57,-991.13,280.0,-691.25,-280.0,1,94.317,
01/01/2000,01:40:55.28,14.15,-73.44,-990.88,192.50,-770.0,-236.25,1,94.323,
01/01/2000,01:40:55.29,14.15,-73.69,-991.01,227.50,-665.0,-498.75,1,94.227,
01/01/2000,01:40:55.30,14.15,-73.69,-991.13,148.75,-717.50,-367.50,1,94.233,
01/01/2000,01:40:55.31,14.15,-73.57,-991.37,17.50,-752.50,-455.0,1,94.239,
01/01/2000,01:40:55.32,14.27,-73.69,-991.25,201.25,-656.25,-376.25,1,94.245,
01/01/2000,01:40:55.33,14.15,-73.44,-991.13,183.75,-595.0,-288.75,1,94.252,
01/01/2000,01:40:55.35,14.27,-73.81,-991.13,253.75,-647.50,-315.0,1,94.258,
01/01/2000,01:40:55.36,14.40,-73.69,-991.25,183.75,-735.0,-358.75,1,94.264,
01/01/2000,01:40:55.37,14.40,-73.81,-991.25,87.50,-568.75,-280.0,1,94.168,
01/01/2000,01:40:55.38,14.15,-73.81,-991.25,166.25,-717.50,-437.50,1,94.175,
01/01/2000,01:40:55.39,14.03,-73.69,-991.37,96.25,-673.75,-262.50,1,94.181,
01/01/2000,01:40:55.40,14.27,-73.57,-991.49,140.0,-700.0,-288.75,1,94.187,
01/01/2000,01:40:55.41,14.15,-73.57,-991.62,105.0,-647.50,-332.50,1,94.194,
01/01/2000,01:40:55.42,14.03,-73.57,-991.62,140.0,-673.75,-315.0,1,94.200,
01/01/2000,01:40:55.43,14.15,-73.69,-991.37,183.75,-717.50,-280.0,1,94.206,
01/01/2000,01:40:55.44,14.15,-73.57,-991.37,61.25,-665.0,-271.25,1,94.212,
01/01/2000,01:40:55.45,14.15,-73.44,-991.37,201.25,-630.0,-367.50,1,94.218,
01/01/2000,01:40:55.46,13.91,-73.69,-991.25,227.50,-682.50,-288.75,1,94.225,
01/01/2000,01:40:55.47,13.66,-73.69,-991.25,131.25,-656.25,-350.0,1,94.231,
01/01/2000,01:40:55.48,13.79,-73.69,-991.25,245.0,-708.75,-428.75,1,94.237,
01/01/2000,01:40:55.49,13.91,-73.69,-991.37,140.0,-708.75,-297.50,1,94.243,
01/01/2000,01:40:55.51,14.03,-73.93,-991.37,166.25,-761.25,-297.50,1,94.249,
01/01/2000,01:40:55.52,14.15,-73.93,-991.37,183.75,-603.75,-411.25,1,94.255,
01/01/2000,01:40:55.53,14.03,-73.93,-991.49,210.0,-673.75,-210.0,1,94.261,
01/01/2000,01:40:55.54,14.03,-73.93,-991.37,157.50,-647.50,-367.50,1,94.268,
01/01/2000,01:40:55.55,14.03,-73.81,-991.37,157.50,-708.75,-262.50,1,94.274,
01/01/2000,01:40:55.56,14.15,-73.69,-991.37,140.0,-796.25,-358.75,1,94.280,
01/01/2000,01:40:55.57,14.27,-73.93,-991.13,218.75,-691.25,-271.25,1,94.286,
01/01/2000,01:40:55.58,14.15,-73.93,-991.13,105.0,-621.25,-367.50,1,94.292,
01/01/2000,01:40:55.59,14.27,-73.93,-991.25,157.50,-682.50,-306.25,1,94.298,
01/01/2000,01:40:55.60,14.15,-73.93,-991.37,8.75,-761.25,-428.75,1,94.304,
01/01/2000,01:40:55.61,14.15,-73.57,-991.37,35.0,-577.50,-385.0,1,94.310,
01/01/2000,01:40:55.62,14.15,-73.69,-991.13,61.25,-647.50,-288.75,1,94.316,
01/01/2000,01:40:55.63,14.15,-73.81,-990.88,140.0,-603.75,-236.25,1,94.322,
01/01/2000,01:40:55.64,13.91,-74.18,-991.13,288.75,-735.0,-507.50,1,94.229,
01/01/2000,01:40:55.65,13.91,-73.93,-991.25,148.75,-673.75,-385.0,1,94.235,
01/01/2000,01:40:55.66,14.15,-73.81,-991.37,105.0,-647.50,-358.75,1,94.241,
01/01/2000,01:40:55.67,14.15,-73.44,-991.25,96.25,-735.0,-148.75,1,94.247,
01/01/2000,01:40:55.68,14.03,-73.81,-991.13,122.50,-682.50,-288.75,1,94.253,
01/01/2000,01:40:55.69,14.03,-74.05,-991.13,105.0,-787.50,-358.75,1,94.259,
01/01/2000,01:40:55.70,14.15,-74.18,-991.37,262.50,-673.75,-385.0,1,94.265,
01/01/2000,01:40:55.72,14.15,-73.93,-991.49,192.50,-621.25,-420.0,1,94.271,
01/01/2000,01:40:55.73,14.27,-73.69,-991.13,105.0,-647.50,-166.25,1,94.277,
01/01/2000,01:40:55.74,14.03,-73.69,-991.13,236.25,-752.50,-315.0,1,94.283,
01/01/2000,01:40:55.75,13.91,-73.69,-991.13,87.50,-691.25,-341.25,1,94.289,
01/01/2000,01:40:55.76,14.15,-73.93,-991.37,148.75,-630.0,-358.75,1,94.295,
01/01/2000,01:40:55.77,14.03,-73.81,-991.62,148.75,-691.25,-271.25,1,94.301,
01/01/2000,01:40:55.78,14.15,-73.81,-991.25,70.0,-726.25,-358.75,1,94.306,
01/01/2000,01:40:55.79,14.03,-73.69,-991.01,87.50,-595.0,-411.25,1,94.312,
01/01/2000,01:40:55.80,13.91,-73.93,-991.01,131.25,-726.25,-411.25,1,94.318,
01/01/2000,01:40:55.81,13.91,-73.81,-991.25,323.75,-647.50,-463.75,1,94.324,
01/01/2000,01:40:55.82,14.15,-73.57,-991.49,192.50,-700.0,-210.0,1,94.330,
01/01/2000,01:40:55.83,14.27,-73.69,-991.25,245.0,-708.75,-411.25,1,94.336,
01/01/2000,01:40:55.84,13.91,-73.57,-991.01,192.50,-665.0,-323.75,1,94.245,
01/01/2000,01:40:55.86,14.27,-73.81,-991.37,175.0,-630.0,-437.50,1,94.251,
01/01/2000,01:40:55.87,14.15,-73.69,-991.62,131.25,-647.50,-201.25,1,94.256,
01/01/2000,01:40:55.88,14.15,-73.57,-991.62,52.50,-717.50,-262.50,1,94.262,
01/01/2000,01:40:55.89,13.91,-73.69,-991.25,271.25,-708.75,-455.0,1,94.268,
01/01/2000,01:40:55.90,13.91,-73.69,-991.13,52.50,-638.75,-297.50,1,94.274,
01/01/2000,01:40:55.91,14.27,-73.81,-991.25,192.50,-691.25,-323.75,1,94.280,
01/01/2000,01:40:55.92,14.03,-73.93,-991.37,201.25,-726.25,-236.25,1,94.286,
01/01/2000,01:40:55.93,14.03,-73.93,-991.37,61.25,-595.0,-332.50,1,94.196,
01/01/2000,01:40:55.94,14.03,-73.93,-991.37,245.0,-656.25,-490.0,1,94.201,
01/01/2000,01:40:55.95,13.91,-73.44,-991.37,105.0,-708.75,-315.0,1,94.207,
01/01/2000,01:40:55.96,14.15,-73.44,-991.13,96.25,-647.50,-411.25,1,94.213,
01/01/2000,01:40:55.97,14.15,-73.69,-991.25,192.50,-761.25,-332.50,1,94.219,
01/01/2000,01:40:55.98,14.15,-73.81,-991.37,105.0,-673.75,-350.0,1,94.225,
01/01/2000,01:40:55.99,14.15,-73.93,-991.13,166.25,-673.75,-420.0,1,94.231,
01/01/2000,01:40:56.00,14.15,-73.93,-991.13,113.75,-638.75,-350.0,1,94.237,
01/01/2000,01:40:56.01,14.03,-73.69,-991.13,140.0,-603.75,-393.75,1,94.242,
01/01/2000,01:40:56.02,14.15,-73.57,-991.25,157.50,-700.0,-367.50,1,94.248,
01/01/2000,01:40:56.03,14.03,-73.57,-991.37,113.75,-691.25,-315.0,1,94.254,
01/01/2000,01:40:56.04,14.15,-73.69,-991.37,17.50,-743.75,-323.75,1,94.260,
01/01/2000,01:40:56.05,14.03,-73.93,-991.25,227.50,-787.50,-367.50,1,94.266,
01/01/2000,01:40:56.07,13.91,-73.69,-991.25,131.25,-700.0,-323.75,1,94.271,
01/01/2000,01:40:56.08,14.15,-73.69,-991.25,218.75,-743.75,-306.25,1,94.277,
01/01/2000,01:40:56.09,13.91,-73.57,-991.37,315.0,-770.0,-385.0,1,94.283,
01/01/2000,01:40:56.10,13.91,-73.57,-991.13,175.0,-612.50,-271.25,1,94.289,
01/01/2000,01:40:56.11,13.91,-73.81,-991.13,166.25,-612.50,-437.50,1,94.294,
01/01/2000,01:40:56.12,13.91,-73.69,-991.01,245.0,-787.50,-332.50,1,94.300,
01/01/2000,01:40:56.13,13.91,-73.69,-991.13,227.50,-586.25,-350.0,1,94.306,
01/01/2000,01:40:56.14,13.91,-73.44,-991.13,131.25,-743.75,-420.0,1,94.217,
01/01/2000,01:40:56.15,13.91,-73.57,-991.13,166.25,-656.25,-288.75,1,94.223,
01/01/2000,01:40:56.16,13.91,-73.69,-991.13,105.0,-682.50,-262.50,1,94.229,
01/01/2000,01:40:56.17,13.91,-73.69,-991.13,105.0,-647.50,-367.50,1,94.235,
01/01/2000,01:40:56.18,13.91,-73.81,-991.01,17.50,-673.75,-323.75,1,94.240,
01/01/2000,01:40:56.19,13.91,-73.69,-991.01,210.0,-708.75,-455.0,1,94.246,
01/01/2000,01:40:56.21,13.91,-73.69,-991.13,201.25,-665.0,-376.25,1,94.252,
01/01/2000,01:40:56.22,13.91,-73.57,-991.13,157.50,-682.50,-358.75,1,94.257,
01/01/2000,01:40:56.23,14.03,-73.69,-991.37,96.25,-743.75,-428.75,1,94.263,
01/01/2000,01:40:56.24,13.91,-73.69,-991.37,131.25,-647.50,-358.75,1,94.269,
01/01/2000,01:40:56.25,13.91,-73.81,-991.25,122.50,-647.50,-271.25,1,94.274,
01/01/2000,01:40:56.26,13.91,-73.81,-991.13,227.50,-682.50,-385.0,1,94.280,
01/01/2000,01:40:56.27,13.91,-73.81,-991.13,87.50,-682.50,-402.50,1,94.286,
01/01/2000,01:40:56.28,13.91,-73.69,-991.13,210.0,-752.50,-315.0,1,94.291,
01/01/2000,01:40:56.29,13.91,-73.69,-991.37,183.75,-717.50,-350.0,1,94.297,
01/01/2000,01:40:56.30,14.03,-73.69,-991.37,140.0,-717.50,-280.0,1,94.303,
01/01/2000,01:40:56.31,14.03,-73.69,-991.13,78.75,-708.75,-280.0,1,94.308,
01/01/2000,01:40:56.32,14.03,-73.81,-991.01,43.75,-682.50,-288.75,1,94.314,
01/01/2000,01:40:56.33,14.15,-73.93,-991.13,192.50,-647.50,-455.0,1,94.319,
01/01/2000,01:40:56.34,13.91,-73.57,-991.25,61.25,-691.25,-402.50,1,94.325,
01/01/2000,01:40:56.35,14.15,-73.57,-991.13,140.0,-735.0,-420.0,1,94.238,
01/01/2000,01:40:56.36,13.91,-73.57,-991.13,26.25,-761.25,-245.0,1,94.244,
01/01/2000,01:40:56.38,14.03,-73.93,-991.13,87.50,-638.75,-393.75,1,94.250,
01/01/2000,01:40:56.39,14.15,-74.05,-991.25,166.25,-787.50,-428.75,1,94.255,
01/01/2000,01:40:56.40,14.15,-73.93,-991.01,78.75,-770.0,-253.75,1,94.261,
01/01/2000,01:40:56.41,14.03,-73.69,-990.88,131.25,-796.25,-446.25,1,94.266,
01/01/2000,01:40:56.42,13.91,-73.69,-990.88,148.75,-656.25,-358.75,1,94.272,
01/01/2000,01:40:56.43,14.03,-73.81,-990.88,96.25,-630.0,-350.0,1,94.277,
01/01/2000,01:40:56.44,14.15,-73.81,-991.13,131.25,-726.25,-315.0,1,94.283,
01/01/2000,01:40:56.45,14.27,-73.93,-991.01,87.50,-656.25,-297.50,1,94.288,
01/01/2000,01:40:56.46,13.91,-73.81,-990.88,131.25,-638.75,-385.0,1,94.294,
01/01/2000,01:40:56.47,13.66,-73.93,-991.01,262.50,-595.0,-498.75,1,94.300,
01/01/2000,01:40:56.48,14.03,-73.44,-991.13,131.25,-665.0,-245.0,1,94.305,
01/01/2000,01:40:56.49,14.40,-73.44,-991.13,166.25,-665.0,-358.75,1,94.220,
01/01/2000,01:40:56.50,14.27,-73.69,-991.01,87.50,-726.25,-227.50,1,94.225,
01/01/2000,01:40:56.51,14.15,-73.93,-991.01,17.50,-700.0,-411.25,1,94.231,
01/01/2000,01:40:56.52,14.15,-74.18,-990.88,262.50,-735.0,-533.75,1,94.236,
01/01/2000,01:40:56.53,14.15,-73.69,-991.13,61.25,-743.75,-376.25,1,94.242,
01/01/2000,01:40:56.54,14.27,-73.57,-991.25,280.0,-761.25,-306.25,1,94.247,
01/01/2000,01:40:56.55,14.40,-73.44,-991.13,341.25,-612.50,-105.0,1,94.253,
01/01/2000,01:40:56.57,14.03,-73.69,-991.01,105.0,-708.75,-367.50,1,94.258,
01/01/2000,01:40:56.58,14.03,-74.05,-991.01,113.75,-717.50,-481.25,1,94.264,
01/01/2000,01:40:56.59,14.15,-74.18,-991.13,192.50,-700.0,-262.50,1,94.269,
01/01/2000,01:40:56.60,14.40,-73.69,-991.13,183.75,-761.25,-385.0,1,94.275,
01/01/2000,01:40:56.61,14.15,-73.57,-991.25,253.75,-700.0,-192.50,1,94.280,
01/01/2000,01:40:56.62,14.15,-73.57,-991.13,96.25,-726.25,-332.50,1,94.286,
01/01/2000,01:40:56.63,14.15,-73.81,-991.37,43.75,-533.75,-350.0,1,94.291,
01/01/2000,01:40:56.64,14.15,-73.93,-991.37,131.25,-665.0,-358.75,1,94.297,
01/01/2000,01:40:56.65,14.15,-73.81,-991.37,131.25,-743.75,-315.0,1,94.302,
01/01/2000,01:40:56.66,14.15,-73.69,-991.13,201.25,-743.75,-402.50,1,94.307,
01/01/2000,01:40:56.67,14.03,-73.57,-990.88,175.0,-770.0,-350.0,1,94.313,
01/01/2000,01:40:56.68,13.91,-73.57,-991.01,210.0,-665.0,-297.50,1,94.318,
01/01/2000,01:40:56.69,14.15,-73.69,-991.13,122.50,-595.0,-315.0,1,94.324,
01/01/2000,01:40:56.70,14.15,-73.44,-991.13,122.50,-560.0,-358.75,1,94.240,
01/01/2000,01:40:56.71,14.15,-73.57,-990.88,131.25,-691.25,-358.75,1,94.245,
01/01/2000,01:40:56.72,14.15,-73.44,-990.76,183.75,-752.50,-315.0,1,94.251,
01/01/2000,01:40:56.73,14.15,-73.44,-990.88,280.0,-691.25,-446.25,1,94.256,
01/01/2000,01:40:56.74,14.03,-73.69,-991.01,218.75,-577.50,-481.25,1,94.262,
01/01/2000,01:40:56.75,14.15,-73.81,-991.13,105.0,-682.50,-437.50,1,94.267,
01/01/2000,01:40:56.76,14.15,-73.69,-991.13,227.50,-612.50,-323.75,1,94.272,
01/01/2000,01:40:56.78,14.03,-73.69,-990.88,175.0,-673.75,-341.25,1,94.278,
01/01/2000,01:40:56.79,14.15,-73.81,-990.88,113.75,-682.50,-428.75,1,94.283,
01/01/2000,01:40:56.80,14.15,-73.93,-991.13,87.50,-866.25,-288.75,1,94.288,
01/01/2000,01:40:56.81,14.15,-73.81,-991.25,78.75,-673.75,-350.0,1,94.294,
01/01/2000,01:40:56.82,13.91,-73.81,-991.25,210.0,-761.25,-350.0,1,94.299,
01/01/2000,01:40:56.83,13.91,-73.69,-991.01,87.50,-586.25,-332.50,1,94.304,
01/01/2000,01:40:56.84,14.03,-73.69,-991.01,350.0,-682.50,-288.75,1,94.310,
01/01/2000,01:40:56.85,14.15,-73.69,-991.13,192.50,-787.50,-253.75,1,94.315,
01/01/2000,01:40:56.86,14.15,-73.81,-991.37,166.25,-743.75,-315.0,1,94.233,
01/01/2000,01:40:56.87,13.91,-73.69,-991.25,166.25,-595.0,-288.75,1,94.326,
01/01/2000,01:40:56.89,13.91,-73.44,-991.13,122.50,-708.75,-376.25,1,94.243,
01/01/2000,01:40:56.90,13.91,-73.44,-991.13,70.0,-735.0,-350.0,1,94.249,
01/01/2000,01:40:56.91,13.91,-73.32,-991.13,140.0,-691.25,-271.25,1,94.254,
01/01/2000,01:40:56.92,13.91,-73.57,-991.13,131.25,-560.0,-332.50,1,94.259,
01/01/2000,01:40:56.93,13.91,-73.57,-991.13,122.50,-621.25,-315.0,1,94.265,
01/01/2000,01:40:56.94,13.91,-73.44,-991.37,183.75,-603.75,-332.50,1,94.270,
01/01/2000,01:40:56.95,14.03,-73.32,-991.49,0.0,-621.25,-280.0,1,94.275,
01/01/2000,01:40:56.96,13.91,-73.44,-991.37,166.25,-542.50,-306.25,1,94.280,
01/01/2000,01:40:56.97,13.91,-73.44,-991.37,148.75,-770.0,-306.25,1,94.286,
01/01/2000,01:40:56.98,14.15,-73.57,-991.37,227.50,-691.25,-332.50,1,94.291,
01/01/2000,01:40:56.99,14.27,-73.69,-991.25,148.75,-752.50,-297.50,1,94.296,
01/01/2000,01:40:57.00,14.15,-73.69,-991.01,35.0,-875.0,-402.50,1,94.301,
01/01/2000,01:40:57.01,14.15,-73.69,-990.88,210.0,-796.25,-358.75,1,94.307,
01/01/2000,01:40:57.02,13.91,-73.44,-991.01,201.25,-691.25,-437.50,1,94.312,
01/01/2000,01:40:57.03,14.03,-73.44,-991.01,122.50,-700.0,-288.75,1,94.317,
01/01/2000,01:40:57.04,14.03,-73.44,-991.13,288.75,-682.50,-385.0,1,94.322,
01/01/2000,01:40:57.05,13.91,-73.44,-991.01,192.50,-770.0,-393.75,1,94.241,
01/01/2000,01:40:57.06,13.91,-73.57,-990.88,210.0,-647.50,-350.0,1,94.247,
01/01/2000,01:40:57.07,13.79,-73.44,-991.01,183.75,-630.0,-420.0,1,94.252,
01/01/2000,01:40:57.08,14.03,-73.32,-991.01,35.0,-708.75,-323.75,1,94.257,
01/01/2000,01:40:57.09,14.03,-73.20,-991.01,227.50,-673.75,-236.25,1,94.262,
01/01/2000,01:40:57.10,13.91,-73.44,-991.13,183.75,-717.50,-411.25,1,94.268,
01/01/2000,01:40:57.11,14.03,-73.32,-990.88,96.25,-691.25,-245.0,1,94.273,
01/01/2000,01:40:57.13,14.03,-73.93,-990.88,210.0,-761.25,-472.50,1,94.278,
01/01/2000,01:40:57.14,14.03,-73.81,-991.13,192.50,-717.50,-271.25,1,94.283,
01/01/2000,01:40:57.15,14.03,-73.57,-991.13,70.0,-638.75,-428.75,1,94.288,
01/01/2000,01:40:57.16,13.91,-73.69,-991.13,192.50,-691.25,-315.0,1,94.293,
01/01/2000,01:40:57.17,13.66,-73.44,-991.25,0.0,-673.75,-341.25,1,94.299,
01/01/2000,01:40:57.18,13.79,-73.81,-991.25,245.0,-735.0,-568.75,1,94.304,
01/01/2000,01:40:57.19,14.03,-73.81,-991.25,113.75,-665.0,-166.25,1,94.309,
01/01/2000,01:40:57.20,14.03,-73.93,-991.01,87.50,-752.50,-428.75,1,94.229,
01/01/2000,01:40:57.21,14.03,-73.69,-990.88,253.75,-630.0,-280.0,1,94.234,
01/01/2000,01:40:57.22,13.91,-73.69,-990.88,201.25,-796.25,-367.50,1,94.239,
01/01/2000,01:40:57.23,13.91,-73.57,-991.13,122.50,-743.75,-341.25,1,94.245,
01/01/2000,01:40:57.24,13.91,-73.69,-991.37,131.25,-665.0,-332.50,1,94.250,
01/01/2000,01:40:57.25,14.27,-73.69,-991.13,70.0,-700.0,-306.25,1,94.255,
01/01/2000,01:40:57.27,14.03,-73.93,-990.88,280.0,-743.75,-402.50,1,94.260,
01/01/2000,01:40:57.28,14.03,-73.93,-990.88,157.50,-682.50,-332.50,1,94.265,
01/01/2000,01:40:57.29,14.15,-73.69,-991.01,140.0,-770.0,-446.25,1,94.270,
01/01/2000,01:40:57.30,14.40,-73.69,-991.13,157.50,-708.75,-350.0,1,94.275,
01/01/2000,01:40:57.31,14.27,-73.69,-991.13,175.0,-630.0,-236.25,1,94.281,
01/01/2000,01:40:57.32,14.15,-73.69,-991.13,96.25,-647.50,-455.0,1,94.286,
01/01/2000,01:40:57.33,14.27,-73.69,-991.01,253.75,-752.50,-332.50,1,94.291,
01/01/2000,01:40:57.34,14.52,-73.57,-991.01,35.0,-717.50,-420.0,1,94.296,
01/01/2000,01:40:57.35,14.40,-73.57,-991.13,288.75,-638.75,-315.0,1,94.301,
01/01/2000,01:40:57.36,14.40,-73.69,-991.13,315.0,-673.75,-297.50,1,94.306,
01/01/2000,01:40:57.37,14.27,-73.69,-991.13,122.50,-726.25,-498.75,1,94.311,
01/01/2000,01:40:57.38,14.27,-73.57,-991.13,166.25,-691.25,-253.75,1,94.316,
01/01/2000,01:40:57.39,14.40,-73.57,-991.13,166.25,-708.75,-245.0,1,94.238,
01/01/2000,01:40:57.41,14.27,-73.69,-990.76,218.75,-630.0,-315.0,1,94.243,
01/01/2000,01:40:57.42,13.91,-73.81,-990.88,166.25,-586.25,-323.75,1,94.248,
01/01/2000,01:40:57.43,13.66,-74.05,-991.25,131.25,-743.75,-306.25,1,94.253,
01/01/2000,01:40:57.44,14.27,-73.44,-991.37,-87.50,-638.75,-481.25,1,94.258,
01/01/2000,01:40:57.45,14.88,-73.57,-990.88,218.75,-726.25,-87.50,1,94.263,
01/01/2000,01:40:57.46,14.40,-74.05,-990.64,-35.0,-647.50,-166.25,1,94.268,
01/01/2000,01:40:57.47,13.91,-74.30,-990.76,183.75,-682.50,-411.25,1,94.273,
01/01/2000,01:40:57.48,14.15,-74.18,-991.37,210.0,-691.25,-577.50,1,94.278,
01/01/2000,01:40:57.49,14.40,-73.32,-991.62,70.0,-630.0,-218.75,1,94.283,
01/01/2000,01:40:57.50,14.15,-73.69,-991.25,140.0,-700.0,-192.50,1,94.288,
01/01/2000,01:40:57.51,14.15,-73.81,-990.76,87.50,-621.25,-350.0,1,94.293,
01/01/2000,01:40:57.52,14.27,-74.05,-990.76,122.50,-761.25,-376.25,1,94.298,
01/01/2000,01:40:57.53,14.40,-74.30,-991.01,166.25,-700.0,-367.50,1,94.221,
01/01/2000,01:40:57.54,14.15,-74.18,-991.49,122.50,-638.75,-350.0,1,94.308,
01/01/2000,01:40:57.55,14.15,-73.93,-991.37,210.0,-638.75,-315.0,1,94.231,
01/01/2000,01:40:57.56,13.91,-73.69,-991.01,61.25,-665.0,-157.50,1,94.236,
01/01/2000,01:40:57.57,13.79,-73.69,-991.01,157.50,-735.0,-490.0,1,94.241,
01/01/2000,01:40:57.58,14.03,-74.05,-991.37,175.0,-761.25,-236.25,1,94.246,
01/01/2000,01:40:57.59,14.27,-73.93,-991.62,-26.25,-770.0,-393.75,1,94.251,
01/01/2000,01:40:57.60,14.27,-74.18,-991.62,157.50,-673.75,-385.0,1,94.256,
01/01/2000,01:40:57.61,13.91,-74.05,-991.37,113.75,-708.75,-376.25,1,94.261,
01/01/2000,01:40:57.63,13.91,-73.81,-991.13,280.0,-682.50,-393.75,1,94.266,
01/01/2000,01:40:57.64,13.79,-73.81,-991.62,43.75,-595.0,-393.75,1,94.271,
01/01/2000,01:40:57.65,13.91,-73.93,-991.74,140.0,-691.25,-306.25,1,94.276,
01/01/2000,01:40:57.66,14.03,-74.05,-991.62,43.75,-717.50,-297.50,1,94.281,
01/01/2000,01:40:57.67,13.91,-74.18,-991.25,306.25,-691.25,-463.75,1,94.286,
01/01/2000,01:40:57.68,13.91,-74.05,-991.13,131.25,-673.75,-358.75,1,94.291,
01/01/2000,01:40:57.69,14.03,-73.93,-991.25,262.50,-638.75,-332.50,1,94.296,
01/01/2000,01:40:57.70,13.91,-73.81,-991.37,131.25,-726.25,-148.75,1,94.301,
01/01/2000,01:40:57.71,13.79,-74.05,-991.37,210.0,-726.25,-376.25,1,94.305,
01/01/2000,01:40:57.72,13.79,-74.05,-991.25,96.25,-726.25,-455.0,1,94.310,
01/01/2000,01:40:57.73,13.91,-74.05,-991.13,157.50,-665.0,-376.25,1,94.315,
01/01/2000,01:40:57.74,14.15,-74.05,-991.25,280.0,-805.0,-323.75,1,94.320,
01/01/2000,01:40:57.75,13.91,-73.93,-991.49,183.75,-595.0,-376.25,1,94.325,
01/01/2000,01:40:57.77,13.79,-73.93,-991.49,245.0,-673.75,-402.50,1,94.249,
01/01/2000,01:40:57.78,13.66,-73.81,-991.37,192.50,-743.75,-341.25,1,94.254,
01/01/2000,01:40:57.79,13.79,-73.81,-991.37,26.25,-726.25,-288.75,1,94.259,
01/01/2000,01:40:57.80,13.91,-74.05,-991.49,157.50,-717.50,-315.0,1,94.264,
01/01/2000,01:40:57.81,13.79,-74.18,-991.62,227.50,-761.25,-271.25,1,94.269,
01/01/2000,01:40:57.82,13.66,-74.18,-991.37,140.0,-813.75,-472.50,1,94.274,
01/01/2000,01:40:57.83,13.66,-74.18,-991.37,201.25,-857.50,-306.25,1,94.278,
01/01/2000,01:40:57.84,13.79,-73.81,-991.13,201.25,-595.0,-288.75,1,94.283,
01/01/2000,01:40:57.85,14.03,-73.69,-991.13,210.0,-796.25,-297.50,1,94.288,
01/01/2000,01:40:57.86,13.91,-73.93,-991.25,87.50,-638.75,-367.50,1,94.293,
01/01/2000,01:40:57.87,13.66,-74.18,-991.25,148.75,-682.50,-455.0,1,94.298,
01/01/2000,01:40:57.88,13.79,-74.18,-991.37,122.50,-656.25,-411.25,1,94.303,
01/01/2000,01:40:57.89,13.91,-73.93,-991.49,175.0,-717.50,-341.25,1,94.308,
01/01/2000,01:40:57.91,13.91,-73.69,-991.37,131.25,-665.0,-245.0,1,94.232,
01/01/2000,01:40:57.92,13.91,-73.93,-991.25,192.50,-568.75,-341.25,1,94.237,
01/01/2000,01:40:57.93,13.91,-73.93,-991.25,280.0,-708.75,-402.50,1,94.242,
01/01/2000,01:40:57.94,14.03,-73.93,-991.37,192.50,-735.0,-437.50,1,94.247,
01/01/2000,01:40:57.95,14.03,-73.93,-991.25,245.0,-691.25,-385.0,1,94.252,
01/01/2000,01:40:57.96,14.03,-73.69,-991.25,61.25,-726.25,-323.75,1,94.257,
01/01/2000,01:40:57.97,13.79,-73.69,-991.25,218.75,-665.0,-297.50,1,94.262,
01/01/2000,01:40:57.98,13.79,-73.93,-991.01,306.25,-717.50,-262.50,1,94.266,
01/01/2000,01:40:57.99,13.91,-73.93,-991.13,96.25,-726.25,-367.50,1,94.271,
01/01/2000,01:40:58.00,14.03,-73.93,-991.25,122.50,-752.50,-323.75,1,94.276,
01/01/2000,01:40:58.01,13.91,-73.93,-991.37,140.0,-586.25,-376.25,1,94.281,
01/01/2000,01:40:58.02,13.79,-73.69,-991.25,183.75,-700.0,-437.50,1,94.286,
01/01/2000,01:40:58.03,13.79,-73.44,-991.25,227.50,-752.50,-332.50,1,94.291,
01/01/2000,01:40:58.04,13.79,-73.69,-991.37,96.25,-840.0,-367.50,1,94.295,
01/01/2000,01:40:58.05,13.79,-73.93,-991.49,175.0,-595.0,-367.50,1,94.221,
01/01/2000,01:40:58.06,13.91,-73.93,-991.37,166.25,-822.50,-306.25,1,94.226,
01/01/2000,01:40:58.07,13.91,-73.81,-991.37,157.50,-656.25,-350.0,1,94.231,
01/01/2000,01:40:58.08,13.91,-73.81,-991.25,341.25,-752.50,-367.50,1,94.236,
01/01/2000,01:40:58.09,13.91,-73.69,-991.37,175.0,-621.25,-332.50,1,94.240,
01/01/2000,01:40:58.10,13.91,-73.81,-991.62,166.25,-665.0,-350.0,1,94.245,
01/01/2000,01:40:58.11,13.91,-73.93,-991.74,96.25,-717.50,-393.75,1,94.250,
01/01/2000,01:40:58.12,13.91,-73.81,-991.74,227.50,-770.0,-367.50,1,94.255,
01/01/2000,01:40:58.13,13.91,-73.93,-991.49,175.0,-700.0,-420.0,1,94.260,
01/01/2000,01:40:58.14,13.91,-73.81,-991.62,122.50,-761.25,-341.25,1,94.264,
01/01/2000,01:40:58.15,13.91,-73.69,-991.62,52.50,-656.25,-271.25,1,94.269,
01/01/2000,01:40:58.16,13.91,-73.81,-991.62,131.25,-761.25,-306.25,1,94.274,
01/01/2000,01:40:58.17,14.03,-73.81,-991.62,183.75,-717.50,-297.50,1,94.279,
01/01/2000,01:40:58.19,14.03,-73.93,-991.37,78.75,-673.75,-315.0,1,94.283,
01/01/2000,01:40:58.20,13.91,-74.05,-991.37,113.75,-507.50,-358.75,1,94.288,
01/01/2000,01:40:58.21,14.03,-74.05,-991.37,271.25,-761.25,-315.0,1,94.293,
01/01/2000,01:40:58.22,13.91,-73.93,-991.49,262.50,-603.75,-350.0,1,94.298,
01/01/2000,01:40:58.23,13.91,-73.93,-991.49,122.50,-708.75,-376.25,1,94.302,
01/01/2000,01:40:58.24,13.91,-74.05,-991.37,210.0,-735.0,-350.0,1,94.307,
01/01/2000,01:40:58.25,14.15,-73.81,-991.37,253.75,-848.75,-288.75,1,94.312,
01/01/2000,01:40:58.26,14.15,-73.81,-991.37,140.0,-665.0,-350.0,1,94.316,
01/01/2000,01:40:58.27,14.15,-73.81,-991.37,70.0,-647.50,-411.25,1,94.321,
01/01/2000,01:40:58.28,13.91,-73.81,-991.37,201.25,-673.75,-315.0,1,94.326,
01/01/2000,01:40:58.29,14.03,-73.93,-991.49,175.0,-778.75,-323.75,1,94.330,
01/01/2000,01:40:58.30,14.03,-73.81,-991.49,78.75,-726.25,-280.0,1,94.335,
01/01/2000,01:40:58.31,14.15,-73.81,-991.62,201.25,-813.75,-297.50,1,94.340,
01/01/2000,01:40:58.33,14.15,-73.81,-991.62,43.75,-647.50,-341.25,1,94.267,
01/01/2000,01:40:58.34,14.15,-73.81,-991.49,236.25,-691.25,-376.25,1,94.272,
01/01/2000,01:40:58.35,14.15,-73.69,-991.37,0.0,-822.50,-297.50,1,94.276,
01/01/2000,01:40:58.36,14.15,-73.81,-991.37,122.50,-726.25,-341.25,1,94.281,
01/01/2000,01:40:58.37,14.15,-73.69,-991.62,306.25,-735.0,-437.50,1,94.286,
01/01/2000,01:40:58.38,14.15,-73.69,-991.74,122.50,-691.25,-297.50,1,94.290,
01/01/2000,01:40:58.39,14.15,-73.69,-991.49,148.75,-682.50,-271.25,1,94.295,
01/01/2000,01:40:58.40,13.91,-73.81,-991.37,43.75,-560.0,-402.50,1,94.300,
01/01/2000,01:40:58.41,13.91,-73.81,-991.62,70.0,-647.50,-306.25,1,94.228,
01/01/2000,01:40:58.42,13.91,-73.69,-991.62,87.50,-778.75,-236.25,1,94.232,
01/01/2000,01:40:58.43,13.91,-73.81,-991.62,157.50,-726.25,-428.75,1,94.237,
01/01/2000,01:40:58.44,13.66,-73.69,-991.62,262.50,-498.75,-262.50,1,94.242,
01/01/2000,01:40:58.45,13.91,-73.81,-991.49,122.50,-717.50,-341.25,1,94.246,
01/01/2000,01:40:58.47,14.03,-73.69,-991.37,218.75,-752.50,-350.0,1,94.251,
01/01/2000,01:40:58.48,13.91,-73.69,-991.25,122.50,-726.25,-323.75,1,94.256,
01/01/2000,01:40:58.49,14.03,-74.05,-991.13,262.50,-708.75,-481.25,1,94.260,
01/01/2000,01:40:58.50,13.91,-74.18,-991.01,157.50,-665.0,-358.75,1,94.265,
01/01/2000,01:40:58.51,13.91,-74.18,-991.01,157.50,-743.75,-306.25,1,94.270,
01/01/2000,01:40:58.52,13.91,-74.18,-991.13,201.25,-708.75,-358.75,1,94.274,
01/01/2000,01:40:58.53,13.91,-73.93,-991.13,175.0,-656.25,-341.25,1,94.279,
01/01/2000,01:40:58.54,13.91,-73.81,-991.13,157.50,-752.50,-385.0,1,94.283,
01/01/2000,01:40:58.55,14.03,-73.69,-991.13,166.25,-691.25,-262.50,1,94.288,
01/01/2000,01:40:58.56,14.03,-73.93,-991.01,122.50,-691.25,-341.25,1,94.293,
01/01/2000,01:40:58.57,14.03,-74.05,-991.01,148.75,-726.25,-341.25,1,94.297,
01/01/2000,01:40:58.58,14.03,-73.93,-991.25,192.50,-586.25,-472.50,1,94.302,
01/01/2000,01:40:58.59,14.15,-73.81,-991.13,61.25,-796.25,-341.25,1,94.306,
01/01/2000,01:40:58.60,14.15,-73.69,-991.01,148.75,-691.25,-323.75,1,94.311,
01/01/2000,01:40:58.61,13.91,-73.81,-990.88,183.75,-586.25,-367.50,1,94.315,
01/01/2000,01:40:58.62,14.03,-73.93,-991.13,236.25,-691.25,-367.50,1,94.320,
01/01/2000,01:40:58.63,14.03,-73.93,-991.25,210.0,-665.0,-411.25,1,94.249,
01/01/2000,01:40:58.64,14.03,-73.81,-991.37,140.0,-673.75,-358.75,1,94.254,
01/01/2000,01:40:58.65,14.03,-73.69,-991.37,105.0,-656.25,-280.0,1,94.258,
01/01/2000,01:40:58.66,14.03,-73.57,-991.25,175.0,-743.75,-385.0,1,94.263,
01/01/2000,01:40:58.68,14.15,-73.93,-991.25,166.25,-770.0,-280.0,1,94.268,
01/01/2000,01:40:58.69,13.66,-74.05,-991.62,140.0,-621.25,-218.75,1,94.272,
01/01/2000,01:40:58.70,13.91,-74.30,-991.62,481.25,-498.75,-507.50,1,94.277,
01/01/2000,01:40:58.71,14.27,-73.57,-991.37,-113.75,-717.50,-551.25,1,94.281,
01/01/2000,01:40:58.72,14.64,-73.69,-990.88,166.25,-638.75,-131.25,1,94.286,
01/01/2000,01:40:58.73,14.40,-74.05,-990.76,297.50,-638.75,-70.0,1,94.290,
01/01/2000,01:40:58.74,14.15,-74.18,-991.01,43.75,-735.0,-516.25,1,94.295,
01/01/2000,01:40:58.75,14.15,-74.05,-991.62,385.0,-630.0,-551.25,1,94.299,
01/01/2000,01:40:58.76,13.79,-73.69,-991.62,17.50,-708.75,-218.75,1,94.304,
01/01/2000,01:40:58.77,14.03,-73.32,-991.37,201.25,-638.75,-428.75,1,94.308,
01/01/2000,01:40:58.78,14.03,-73.32,-990.64,236.25,-743.75,-17.50,1,94.313,
01/01/2000,01:40:58.79,13.91,-73.69,-990.76,-87.50,-761.25,-376.25,1,94.317,
01/01/2000,01:40:58.80,13.91,-74.42,-991.13,402.50,-726.25,-428.75,1,94.322,
01/01/2000,01:40:58.81,14.03,-74.05,-991.62,8.75,-586.25,-262.50,1,94.252,
01/01/2000,01:40:58.82,14.27,-73.57,-991.37,157.50,-708.75,-481.25,1,94.256,
01/01/2000,01:40:58.83,14.03,-73.44,-991.13,192.50,-603.75,-192.50,1,94.261,
01/01/2000,01:40:58.84,14.03,-73.32,-990.64,140.0,-708.75,-358.75,1,94.266,
01/01/2000,01:40:58.85,14.03,-73.69,-991.13,262.50,-743.75,-227.50,1,94.270,
01/01/2000,01:40:58.86,14.27,-73.93,-991.49,201.25,-761.25,-428.75,1,94.275,
01/01/2000,01:40:58.87,14.40,-74.18,-991.62,148.75,-647.50,-481.25,1,94.279,
01/01/2000,01:40:58.89,14.15,-73.81,-991.13,236.25,-717.50,-288.75,1,94.283,
01/01/2000,01:40:58.90,14.15,-73.44,-991.01,105.0,-761.25,-271.25,1,94.288,
01/01/2000,01:40:58.91,14.15,-73.57,-991.37,245.0,-656.25,-446.25,1,94.292,
01/01/2000,01:40:58.92,14.27,-74.05,-991.86,105.0,-603.75,-288.75,1,94.223,
01/01/2000,01:40:58.93,14.15,-73.93,-991.74,26.25,-735.0,-420.0,1,94.228,
01/01/2000,01:40:58.94,13.91,-73.93,-990.88,175.0,-700.0,-385.0,1,94.232,
01/01/2000,01:40:58.95,13.79,-73.69,-990.88,236.25,-621.25,-402.50,1,94.237,
01/01/2000,01:40:58.96,13.91,-73.69,-991.13,122.50,-691.25,-332.50,1,94.241,
01/01/2000,01:40:58.97,14.03,-73.69,-991.74,87.50,-595.0,-350.0,1,94.246,
01/01/2000,01:40:58.98,13.91,-73.93,-991.86,70.0,-743.75,-385.0,1,94.250,
01/01/2000,01:40:58.99,13.91,-73.81,-991.74,245.0,-735.0,-428.75,1,94.255,
01/01/2000,01:40:59.00,13.91,-73.81,-991.49,218.75,-708.75,-271.25,1,94.259,
01/01/2000,01:40:59.02,14.15,-73.81,-991.49,175.0,-787.50,-297.50,1,94.264,
01/01/2000,01:40:59.03,14.15,-73.93,-991.74,323.75,-700.0,-402.50,1,94.268,
01/01/2000,01:40:59.04,14.03,-73.93,-991.74,236.25,-717.50,-306.25,1,94.272,
01/01/2000,01:40:59.05,13.91,-73.93,-991.62,227.50,-603.75,-358.75,1,94.277,
01/01/2000,01:40:59.06,13.91,-74.05,-991.49,183.75,-726.25,-280.0,1,94.281,
01/01/2000,01:40:59.07,14.15,-73.81,-991.37,192.50,-752.50,-367.50,1,94.286,
01/01/2000,01:40:59.08,14.15,-73.69,-991.37,192.50,-691.25,-350.0,1,94.290,
01/01/2000,01:40:59.09,14.15,-73.81,-991.62,140.0,-656.25,-341.25,1,94.295,
01/01/2000,01:40:59.10,13.91,-73.93,-991.62,96.25,-743.75,-402.50,1,94.299,
01/01/2000,01:40:59.11,14.03,-73.69,-991.62,122.50,-630.0,-411.25,1,94.303,
01/01/2000,01:40:59.12,14.15,-73.69,-991.49,323.75,-717.50,-297.50,1,94.308,
01/01/2000,01:40:59.13,14.15,-73.57,-991.49,113.75,-726.25,-332.50,1,94.312,
01/01/2000,01:40:59.14,14.15,-73.69,-991.49,131.25,-700.0,-280.0,1,94.316,
01/01/2000,01:40:59.15,14.27,-73.93,-991.49,78.75,-752.50,-446.25,1,94.321,
01/01/2000,01:40:59.16,14.27,-73.81,-991.62,78.75,-682.50,-341.25,1,94.325,
01/01/2000,01:40:59.17,14.03,-73.69,-991.37,175.0,-700.0,-350.0,1,94.329,
01/01/2000,01:40:59.18,14.15,-73.57,-991.25,148.75,-796.25,-253.75,1,94.262,
01/01/2000,01:40:59.19,14.15,-73.57,-991.37,236.25,-770.0,-350.0,1,94.338,
01/01/2000,01:40:59.20,14.15,-73.81,-991.62,96.25,-813.75,-376.25,1,94.270,
01/01/2000,01:40:59.21,14.15,-74.05,-991.62,157.50,-647.50,-402.50,1,94.275,
01/01/2000,01:40:59.22,14.15,-73.93,-991.62,175.0,-717.50,-402.50,1,94.279,
01/01/2000,01:40:59.24,14.15,-73.69,-991.37,218.75,-542.50,-306.25,1,94.284,
01/01/2000,01:40:59.25,14.15,-73.69,-991.49,148.75,-708.75,-323.75,1,94.288,
01/01/2000,01:40:59.26,14.15,-73.81,-991.49,166.25,-630.0,-358.75,1,94.292,
01/01/2000,01:40:59.27,14.03,-73.93,-991.49,35.0,-717.50,-437.50,1,94.297,
01/01/2000,01:40:59.28,14.03,-74.05,-991.49,26.25,-638.75,-131.25,1,94.301,
01/01/2000,01:40:59.29,14.15,-74.05,-991.49,192.50,-752.50,-498.75,1,94.305,
01/01/2000,01:40:59.30,14.15,-73.93,-991.62,122.50,-743.75,-385.0,1,94.310,
01/01/2000,01:40:59.31,14.03,-73.93,-991.37,245.0,-735.0,-341.25,1,94.314,
01/01/2000,01:40:59.32,13.91,-73.69,-991.49,140.0,-735.0,-411.25,1,94.318,
01/01/2000,01:40:59.33,13.91,-73.93,-991.62,105.0,-726.25,-358.75,1,94.322,
01/01/2000,01:40:59.34,14.15,-74.18,-991.37,236.25,-708.75,-542.50,1,94.327,
01/01/2000,01:40:59.35,13.91,-73.81,-991.37,166.25,-638.75,-271.25,1,94.331,
01/01/2000,01:40:59.36,13.91,-73.81,-991.37,183.75,-691.25,-306.25,1,94.335,
01/01/2000,01:40:59.37,13.79,-73.93,-991.74,183.75,-743.75,-315.0,1,94.340,
01/01/2000,01:40:59.38,13.79,-73.81,-991.86,131.25,-717.50,-358.75,1,94.273,
01/01/2000,01:40:59.39,13.91,-73.81,-991.74,113.75,-621.25,-385.0,1,94.277,
01/01/2000,01:40:59.40,13.91,-73.69,-991.62,166.25,-691.25,-262.50,1,94.281,
01/01/2000,01:40:59.41,14.03,-74.05,-991.37,43.75,-665.0,-332.50,1,94.286,
01/01/2000,01:40:59.42,14.03,-74.05,-991.49,122.50,-638.75,-455.0,1,94.290,
01/01/2000,01:40:59.44,13.91,-74.05,-991.62,157.50,-603.75,-332.50,1,94.294,
01/01/2000,01:40:59.45,13.91,-73.93,-991.62,113.75,-673.75,-323.75,1,94.299,
01/01/2000,01:40:59.46,13.66,-73.69,-991.62,0.0,-735.0,-367.50,1,94.303,
01/01/2000,01:40:59.47,13.91,-73.93,-991.62,140.0,-673.75,-332.50,1,94.307,
01/01/2000,01:40:59.48,13.91,-74.05,-991.74,175.0,-708.75,-385.0,1,94.311,
01/01/2000,01:40:59.49,13.79,-74.30,-991.86,183.75,-665.0,-367.50,1,94.316,
01/01/2000,01:40:59.50,13.91,-74.18,-991.74,280.0,-638.75,-341.25,1,94.320,
01/01/2000,01:40:59.51,13.91,-73.93,-991.74,61.25,-665.0,-262.50,1,94.324,
01/01/2000,01:40:59.52,14.03,-73.81,-991.74,157.50,-621.25,-350.0,1,94.258,
01/01/2000,01:40:59.53,14.15,-73.81,-991.62,70.0,-673.75,-297.50,1,94.262,
01/01/2000,01:40:59.54,14.15,-73.93,-991.62,96.25,-612.50,-341.25,1,94.267,
01/01/2000,01:40:59.55,14.27,-74.18,-991.49,201.25,-673.75,-323.75,1,94.271,
01/01/2000,01:40:59.56,14.27,-73.93,-991.49,122.50,-691.25,-428.75,1,94.275,
01/01/2000,01:40:59.57,14.40,-73.93,-991.37,297.50,-638.75,-306.25,1,94.279,
01/01/2000,01:40:59.58,14.40,-73.93,-991.37,218.75,-682.50,-297.50,1,94.284,
01/01/2000,01:40:59.60,14.03,-74.05,-991.62,105.0,-595.0,-315.0,1,94.288,
01/01/2000,01:40:59.61,14.15,-74.18,-991.62,201.25,-726.25,-481.25,1,94.292,
01/01/2000,01:40:59.62,14.03,-73.93,-991.74,166.25,-805.0,-393.75,1,94.296,
01/01/2000,01:40:59.63,14.15,-73.81,-991.62,131.25,-761.25,-350.0,1,94.301,
01/01/2000,01:40:59.64,14.03,-73.93,-991.62,201.25,-770.0,-297.50,1,94.305,
01/01/2000,01:40:59.65,13.91,-73.81,-991.74,61.25,-752.50,-245.0,1,94.309,
01/01/2000,01:40:59.66,14.03,-73.93,-991.86,227.50,-743.75,-376.25,1,94.313,
01/01/2000,01:40:59.67,13.91,-73.81,-991.62,17.50,-743.75,-236.25,1,94.317,
01/01/2000,01:40:59.68,14.15,-74.05,-991.49,236.25,-796.25,-411.25,1,94.322,
01/01/2000,01:40:59.69,14.03,-74.18,-991.49,131.25,-717.50,-358.75,1,94.326,
01/01/2000,01:40:59.70,14.03,-74.18,-991.49,122.50,-665.0,-332.50,1,94.330,
01/01/2000,01:40:59.71,14.15,-74.05,-991.62,358.75,-778.75,-420.0,1,94.334,
01/01/2000,01:40:59.72,14.27,-73.93,-991.74,87.50,-673.75,-341.25,1,94.338,
01/01/2000,01:40:59.73,14.15,-74.05,-991.62,315.0,-761.25,-498.75,1,94.273,
01/01/2000,01:40:59.74,14.15,-74.05,-991.62,271.25,-682.50,-411.25,1,94.277,
01/01/2000,01:40:59.75,14.15,-74.05,-991.49,227.50,-761.25,-306.25,1,94.282,
01/01/2000,01:40:59.76,14.40,-73.93,-991.49,183.75,-638.75,-463.75,1,94.286,
01/01/2000,01:40:59.77,14.40,-73.81,-991.62,236.25,-761.25,-218.75,1,94.290,
01/01/2000,01:40:59.78,14.27,-73.93,-991.37,175.0,-708.75,-376.25,1,94.294,
01/01/2000,01:40:59.80,14.03,-73.93,-991.62,70.0,-621.25,-280.0,1,94.298,
01/01/2000,01:40:59.81,14.15,-73.93,-991.86,236.25,-761.25,-385.0,1,94.302,
01/01/2000,01:40:59.82,14.27,-73.93,-991.86,122.50,-630.0,-297.50,1,94.307,
01/01/2000,01:40:59.83,14.15,-73.93,-991.86,96.25,-717.50,-367.50,1,94.311,
01/01/2000,01:40:59.84,14.27,-74.05,-991.62,192.50,-813.75,-323.75,1,94.315,
01/01/2000,01:40:59.85,14.03,-74.18,-991.62,315.0,-656.25,-385.0,1,94.319,
01/01/2000,01:40:59.86,14.03,-74.18,-991.74,70.0,-630.0,-411.25,1,94.323,
01/01/2000,01:40:59.87,14.27,-74.18,-991.98,61.25,-700.0,-280.0,1,94.327,
01/01/2000,01:40:59.88,14.15,-74.05,-991.62,122.50,-612.50,-332.50,1,94.263,
01/01/2000,01:40:59.89,14.27,-74.18,-991.37,52.50,-630.0,-315.0,1,94.267,
01/01/2000,01:40:59.90,14.40,-74.30,-991.49,245.0,-638.75,-376.25,1,94.271,
01/01/2000,01:40:59.91,14.27,-74.30,-991.62,131.25,-752.50,-350.0,1,94.275,
01/01/2000,01:40:59.92,14.40,-74.30,-991.62,140.0,-691.25,-428.75,1,94.280,
01/01/2000,01:40:59.93,14.15,-74.18,-991.62,175.0,-743.75,-376.25,1,94.284,
01/01/2000,01:40:59.95,14.27,-73.93,-991.62,131.25,-691.25,-367.50,1,94.220,
01/01/2000,01:40:59.96,14.15,-74.18,-991.74,131.25,-612.50,-271.25,1,94.224,
01/01/2000,01:40:59.97,14.27,-74.18,-991.74,96.25,-778.75,-393.75,1,94.228,
01/01/2000,01:40:59.98,14.40,-74.05,-991.62,157.50,-638.75,-227.50,1,94.232,
01/01/2000,01:40:59.99,14.27,-74.05,-991.62,306.25,-673.75,-428.75,1,94.236,
01/01/2000,01:41:00.00,13.91,-74.05,-991.74,245.0,-735.0,-315.0,1,94.240,
01/01/2000,01:41:00.02,13.91,-73.93,-991.98,87.50,-717.50,-411.25,1,94.245,
01/01/2000,01:41:00.03,14.15,-73.93,-991.86,122.50,-630.0,-297.50,1,94.249,
01/01/2000,01:41:00.04,14.15,-73.93,-991.74,210.0,-691.25,-288.75,1,94.253,
01/01/2000,01:41:00.05,13.91,-74.18,-991.62,201.25,-700.0,-428.75,1,94.257,
01/01/2000,01:41:00.06,13.91,-74.18,-991.49,210.0,-708.75,-245.0,1,94.261,
01/01/2000,01:41:00.07,13.91,-74.05,-991.62,262.50,-770.0,-402.50,1,94.265,
01/01/2000,01:41:00.08,14.03,-73.93,-991.86,26.25,-708.75,-288.75,1,94.269,
01/01/2000,01:41:00.09,14.03,-73.93,-991.86,192.50,-787.50,-402.50,1,94.273,
01/01/2000,01:41:00.10,14.03,-73.93,-991.74,166.25,-647.50,-271.25,1,94.278,
01/01/2000,01:41:00.11,13.91,-74.05,-991.62,105.0,-691.25,-437.50,1,94.282,
01/01/2000,01:41:00.12,14.03,-74.05,-991.62,236.25,-927.50,-437.50,1,94.286,
01/01/2000,01:41:00.13,14.15,-74.05,-991.62,218.75,-708.75,-288.75,1,94.290,
01/01/2000,01:41:00.14,14.03,-73.93,-991.74,148.75,-682.50,-341.25,1,94.294,
01/01/2000,01:41:00.15,13.91,-73.93,-991.74,70.0,-665.0,-358.75,1,94.298,
01/01/2000,01:41:00.16,13.91,-73.69,-991.62,183.75,-691.25,-437.50,1,94.302,
01/01/2000,01:41:00.17,14.03,-73.81,-991.62,253.75,-708.75,-271.25,1,94.306,
01/01/2000,01:41:00.18,14.03,-73.93,-991.37,236.25,-770.0,-350.0,1,94.310,
01/01/2000,01:41:00.19,13.91,-73.93,-991.49,166.25,-708.75,-210.0,1,94.314,
01/01/2000,01:41:00.20,14.15,-73.81,-991.37,192.50,-682.50,-437.50,1,94.318,
01/01/2000,01:41:00.21,14.03,-73.81,-991.37,245.0,-682.50,-463.75,1,94.322,
01/01/2000,01:41:00.23,14.15,-73.69,-991.74,210.0,-726.25,-350.0,1,94.259,
01/01/2000,01:41:00.24,14.15,-73.81,-991.62,70.0,-656.25,-262.50,1,94.263,
01/01/2000,01:41:00.25,13.91,-73.81,-991.62,105.0,-700.0,-271.25,1,94.268,
01/01/2000,01:41:00.26,13.91,-73.93,-991.62,157.50,-708.75,-411.25,1,94.272,
01/01/2000,01:41:00.27,13.91,-73.93,-991.62,341.25,-691.25,-437.50,1,94.276,
01/01/2000,01:41:00.28,13.91,-73.69,-991.49,26.25,-673.75,-280.0,1,94.280,
01/01/2000,01:41:00.29,13.91,-73.69,-991.25,201.25,-682.50,-323.75,1,94.284,
01/01/2000,01:41:00.30,13.66,-73.69,-991.25,122.50,-770.0,-280.0,1,94.288,
01/01/2000,01:41:00.31,13.91,-73.93,-991.25,166.25,-778.75,-306.25,1,94.292,
01/01/2000,01:41:00.32,13.91,-73.81,-991.37,271.25,-691.25,-437.50,1,94.296,
01/01/2000,01:41:00.33,13.79,-73.69,-991.49,35.0,-691.25,-315.0,1,94.300,
01/01/2000,01:41:00.34,13.91,-73.93,-991.37,192.50,-673.75,-490.0,1,94.304,
01/01/2000,01:41:00.35,14.03,-73.69,-991.62,227.50,-700.0,-183.75,1,94.308,
01/01/2000,01:41:00.36,14.15,-73.69,-991.49,192.50,-638.75,-280.0,1,94.312,
01/01/2000,01:41:00.37,14.15,-73.81,-991.62,148.75,-700.0,-350.0,1,94.250,
01/01/2000,01:41:00.38,14.15,-73.81,-991.62,148.75,-638.75,-341.25,1,94.254,
01/01/2000,01:41:00.39,14.27,-74.05,-991.62,245.0,-691.25,-393.75,1,94.258,
01/01/2000,01:41:00.40,14.15,-73.81,-991.49,236.25,-682.50,-297.50,1,94.262,
01/01/2000,01:41:00.41,13.91,-73.93,-991.62,245.0,-700.0,-376.25,1,94.266,
01/01/2000,01:41:00.42,13.91,-73.93,-991.74,122.50,-647.50,-481.25,1,94.270,
01/01/2000,01:41:00.44,14.03,-73.93,-991.62,122.50,-647.50,-350.0,1,94.274,
01/01/2000,01:41:00.45,14.03,-73.93,-991.62,210.0,-717.50,-376.25,1,94.278,
01/01/2000,01:41:00.46,13.91,-73.93,-991.62,192.50,-656.25,-393.75,1,94.282,
01/01/2000,01:41:00.47,13.91,-73.81,-991.62,323.75,-656.25,-385.0,1,94.220,
01/01/2000,01:41:00.48,14.03,-73.69,-991.62,70.0,-656.25,-411.25,1,94.224,
01/01/2000,01:41:00.49,14.15,-73.93,-991.62,175.0,-630.0,-306.25,1,94.228,
01/01/2000,01:41:00.50,14.27,-73.93,-991.62,183.75,-717.50,-297.50,1,94.232,
01/01/2000,01:41:00.51,14.40,-74.05,-991.37,236.25,-630.0,-315.0,1,94.236,
01/01/2000,01:41:00.52,14.27,-73.93,-991.25,113.75,-717.50,-262.50,1,94.240,
01/01/2000,01:41:00.53,14.27,-74.18,-991.37,227.50,-743.75,-358.75,1,94.244,
01/01/2000,01:41:00.54,14.03,-73.93,-991.62,17.50,-691.25,-271.25,1,94.248,
01/01/2000,01:41:00.55,13.91,-73.93,-991.62,96.25,-700.0,-420.0,1,94.252,
01/01/2000,01:41:00.56,13.66,-73.93,-991.49,148.75,-673.75,-262.50,1,94.256,
01/01/2000,01:41:00.57,13.79,-74.05,-991.25,157.50,-647.50,-402.50,1,94.260,
01/01/2000,01:41:00.59,13.91,-74.18,-991.37,157.50,-682.50,-358.75,1,94.264,
01/01/2000,01:41:00.60,13.91,-74.18,-991.49,140.0,-761.25,-420.0,1,94.268,
01/01/2000,01:41:00.61,13.91,-74.18,-991.49,61.25,-603.75,-367.50,1,94.272,
01/01/2000,01:41:00.62,13.79,-74.05,-991.62,201.25,-708.75,-306.25,1,94.276,
01/01/2000,01:41:00.63,13.79,-73.81,-991.74,192.50,-673.75,-218.75,1,94.280,
01/01/2000,01:41:00.64,13.91,-73.93,-991.62,253.75,-778.75,-271.25,1,94.284,
01/01/2000,01:41:00.65,14.03,-74.18,-991.37,175.0,-770.0,-341.25,1,94.288,
01/01/2000,01:41:00.66,13.91,-74.42,-991.37,175.0,-752.50,-411.25,1,94.292,
01/01/2000,01:41:00.67,13.91,-74.18,-991.37,236.25,-533.75,-393.75,1,94.296,
01/01/2000,01:41:00.68,13.91,-74.05,-991.49,140.0,-603.75,-428.75,1,94.299,
01/01/2000,01:41:00.69,13.91,-73.81,-991.37,140.0,-673.75,-271.25,1,94.303,
01/01/2000,01:41:00.70,13.79,-73.93,-991.49,245.0,-682.50,-385.0,1,94.307,
01/01/2000,01:41:00.71,13.91,-74.18,-991.62,253.75,-621.25,-367.50,1,94.311,
01/01/2000,01:41:00.72,13.91,-74.42,-991.62,183.75,-551.25,-385.0,1,94.251,
01/01/2000,01:41:00.73,13.91,-74.42,-991.62,271.25,-726.25,-341.25,1,94.254,
01/01/2000,01:41:00.74,14.03,-74.05,-991.62,166.25,-717.50,-323.75,1,94.258,
01/01/2000,01:41:00.75,14.03,-73.93,-991.74,96.25,-752.50,-323.75,1,94.262,
01/01/2000,01:41:00.76,13.91,-73.93,-991.74,183.75,-735.0,-201.25,1,94.266,
01/01/2000,01:41:00.77,13.91,-73.93,-991.74,157.50,-568.75,-402.50,1,94.270,
01/01/2000,01:41:00.79,14.03,-73.93,-991.74,78.75,-761.25,-306.25,1,94.274,
01/01/2000,01:41:00.80,14.03,-73.93,-991.62,192.50,-656.25,-367.50,1,94.278,
01/01/2000,01:41:00.81,14.15,-73.81,-991.62,113.75,-708.75,-271.25,1,94.282,
01/01/2000,01:41:00.82,14.03,-73.81,-991.62,43.75,-603.75,-367.50,1,94.286,
01/01/2000,01:41:00.83,13.91,-73.81,-991.74,175.0,-665.0,-262.50,1,94.290,
01/01/2000,01:41:00.84,13.91,-73.93,-991.86,227.50,-700.0,-402.50,1,94.293,
01/01/2000,01:41:00.85,14.27,-73.69,-991.74,210.0,-743.75,-350.0,1,94.297,
01/01/2000,01:41:00.86,14.15,-73.93,-991.62,166.25,-726.25,-358.75,1,94.301,
01/01/2000,01:41:00.87,14.03,-73.93,-991.62,35.0,-743.75,-323.75,1,94.305,
01/01/2000,01:41:00.88,14.15,-73.93,-991.62,210.0,-700.0,-393.75,1,94.245,
01/01/2000,01:41:00.89,14.27,-73.93,-991.49,140.0,-831.25,-376.25,1,94.249,
01/01/2000,01:41:00.90,14.15,-73.81,-991.62,122.50,-761.25,-262.50,1,94.253,
01/01/2000,01:41:00.91,14.15,-73.81,-991.74,96.25,-630.0,-271.25,1,94.257,
01/01/2000,01:41:00.92,14.15,-73.81,-991.62,166.25,-656.25,-332.50,1,94.261,
01/01/2000,01:41:00.94,14.15,-73.69,-991.37,35.0,-507.50,-271.25,1,94.265,
01/01/2000,01:41:00.95,14.40,-73.93,-991.37,262.50,-665.0,-463.75,1,94.268,
01/01/2000,01:41:00.96,14.27,-73.81,-991.37,113.75,-735.0,-350.0,1,94.272,
01/01/2000,01:41:00.97,14.15,-73.81,-991.37,122.50,-638.75,-297.50,1,94.276,
01/01/2000,01:41:00.98,13.66,-73.81,-991.37,157.50,-726.25,-393.75,1,94.280,
01/01/2000,01:41:00.99,13.79,-73.69,-991.49,96.25,-700.0,-271.25,1,94.284,
01/01/2000,01:41:01.00,14.15,-73.93,-991.62,253.75,-551.25,-402.50,1,94.224,
01/01/2000,01:41:01.01,14.15,-73.69,-991.37,140.0,-673.75,-315.0,1,94.228,
01/01/2000,01:41:01.02,14.15,-73.93,-991.25,253.75,-708.75,-341.25,1,94.232,
01/01/2000,01:41:01.03,14.27,-74.05,-991.13,192.50,-586.25,-376.25,1,94.236,
01/01/2000,01:41:01.04,13.91,-73.81,-991.37,70.0,-717.50,-428.75,1,94.240,
01/01/2000,01:41:01.05,14.15,-73.81,-991.37,280.0,-621.25,-350.0,1,94.244,
01/01/2000,01:41:01.06,14.15,-73.57,-991.37,78.75,-787.50,-306.25,1,94.247,
01/01/2000,01:41:01.07,14.27,-73.81,-991.25,210.0,-691.25,-350.0,1,94.251,
01/01/2000,01:41:01.08,14.27,-74.30,-991.37,420.0,-717.50,-437.50,1,94.255,
01/01/2000,01:41:01.09,14.15,-74.18,-991.62,96.25,-673.75,-428.75,1,94.259,
01/01/2000,01:41:01.10,14.15,-74.18,-991.74,-35.0,-700.0,-218.75,1,94.263,
01/01/2000,01:41:01.11,14.03,-73.93,-991.62,227.50,-621.25,-297.50,1,94.267,
01/01/2000,01:41:01.12,13.91,-73.57,-991.37,245.0,-638.75,-245.0,1,94.270,
01/01/2000,01:41:01.13,14.27,-73.81,-991.01,166.25,-726.25,-262.50,1,94.274,
01/01/2000,01:41:01.15,13.91,-74.18,-991.37,61.25,-717.50,-332.50,1,94.278,
01/01/2000,01:41:01.16,13.91,-74.42,-991.62,131.25,-752.50,-463.75,1,94.282,
01/01/2000,01:41:01.17,14.15,-74.18,-991.49,245.0,-673.75,-507.50,1,94.286,
01/01/2000,01:41:01.18,14.15,-73.81,-991.49,201.25,-743.75,-236.25,1,94.290,
01/01/2000,01:41:01.19,13.91,-73.81,-991.13,70.0,-735.0,-402.50,1,94.293,
01/01/2000,01:41:01.20,13.79,-73.93,-991.25,262.50,-621.25,-358.75,1,94.297,
01/01/2000,01:41:01.21,14.15,-74.18,-991.74,78.75,-743.75,-385.0,1,94.238,
01/01/2000,01:41:01.22,14.27,-74.30,-991.86,253.75,-813.75,-306.25,1,94.242,
01/01/2000,01:41:01.23,14.03,-74.18,-991.74,236.25,-691.25,-393.75,1,94.246,
01/01/2000,01:41:01.24,14.03,-74.05,-991.37,297.50,-656.25,-402.50,1,94.250,
01/01/2000,01:41:01.25,14.03,-73.69,-991.49,175.0,-647.50,-288.75,1,94.254,
01/01/2000,01:41:01.26,14.15,-73.93,-991.74,218.75,-665.0,-315.0,1,94.257,
01/01/2000,01:41:01.27,14.27,-74.05,-991.74,288.75,-822.50,-358.75,1,94.261,
01/01/2000,01:41:01.29,14.15,-74.30,-991.49,201.25,-752.50,-402.50,1,94.265,
01/01/2000,01:41:01.30,14.27,-74.18,-991.37,253.75,-717.50,-297.50,1,94.269,
01/01/2000,01:41:01.31,14.15,-73.93,-991.62,192.50,-726.25,-297.50,1,94.273,
01/01/2000,01:41:01.32,14.15,-73.93,-991.74,78.75,-665.0,-367.50,1,94.276,
01/01/2000,01:41:01.33,14.15,-73.93,-991.86,166.25,-691.25,-428.75,1,94.280,
01/01/2000,01:41:01.34,13.91,-73.93,-991.74,61.25,-752.50,-306.25,1,94.284,
01/01/2000,01:41:01.35,13.91,-73.93,-991.62,166.25,-665.0,-402.50,1,94.288,
01/01/2000,01:41:01.36,14.03,-73.81,-991.62,122.50,-568.75,-367.50,1,94.291,
01/01/2000,01:41:01.37,14.27,-73.93,-991.62,210.0,-621.25,-280.0,1,94.295,
01/01/2000,01:41:01.38,14.15,-73.93,-991.62,113.75,-708.75,-288.75,1,94.299,
01/01/2000,01:41:01.39,13.91,-73.81,-991.86,52.50,-813.75,-420.0,1,94.303,
01/01/2000,01:41:01.40,13.91,-73.69,-991.86,35.0,-796.25,-306.25,1,94.306,
01/01/2000,01:41:01.41,14.15,-73.44,-991.74,113.75,-805.0,-332.50,1,94.310,
01/01/2000,01:41:01.42,14.15,-73.69,-991.62,113.75,-743.75,-323.75,1,94.252,
01/01/2000,01:41:01.43,14.15,-73.93,-991.74,43.75,-735.0,-420.0,1,94.256,
01/01/2000,01:41:01.44,14.03,-73.93,-991.74,280.0,-665.0,-428.75,1,94.260,
01/01/2000,01:41:01.45,14.03,-73.69,-991.62,245.0,-621.25,-463.75,1,94.263,
01/01/2000,01:41:01.46,14.27,-73.57,-991.37,140.0,-612.50,-245.0,1,94.267,
01/01/2000,01:41:01.47,14.27,-73.57,-991.49,96.25,-656.25,-280.0,1,94.271,
01/01/2000,01:41:01.49,14.15,-73.93,-991.62,183.75,-805.0,-437.50,1,94.275,
01/01/2000,01:41:01.50,14.15,-73.93,-991.49,166.25,-621.25,-315.0,1,94.217,
01/01/2000,01:41:01.51,14.15,-73.93,-991.49,218.75,-665.0,-393.75,1,94.221,
01/01/2000,01:41:01.52,14.15,-73.81,-991.62,131.25,-682.50,-385.0,1,94.225,
01/01/2000,01:41:01.53,14.15,-73.57,-991.49,113.75,-682.50,-341.25,1,94.228,
01/01/2000,01:41:01.54,14.15,-73.69,-991.49,183.75,-630.0,-323.75,1,94.232,
01/01/2000,01:41:01.55,14.03,-73.69,-991.74,210.0,-612.50,-271.25,1,94.236,
01/01/2000,01:41:01.56,14.03,-73.81,-991.62,105.0,-717.50,-393.75,1,94.239,
01/01/2000,01:41:01.58,14.15,-73.69,-991.74,148.75,-673.75,-297.50,1,94.243,
01/01/2000,01:41:01.59,14.15,-73.69,-991.49,78.75,-638.75,-288.75,1,94.247,
01/01/2000,01:41:01.60,14.15,-73.69,-991.37,175.0,-682.50,-437.50,1,94.251,
01/01/2000,01:41:01.61,13.91,-73.69,-991.37,122.50,-603.75,-323.75,1,94.254,
01/01/2000,01:41:01.62,14.03,-73.69,-991.49,105.0,-568.75,-332.50,1,94.258,
01/01/2000,01:41:01.63,14.15,-73.69,-991.49,175.0,-735.0,-262.50,1,94.262,
01/01/2000,01:41:01.64,14.15,-73.81,-991.37,96.25,-647.50,-262.50,1,94.265,
01/01/2000,01:41:01.65,14.15,-73.81,-991.25,227.50,-787.50,-297.50,1,94.269,
01/01/2000,01:41:01.66,14.15,-73.69,-991.01,122.50,-796.25,-262.50,1,94.273,
01/01/2000,01:41:01.67,14.15,-73.69,-991.25,122.50,-656.25,-402.50,1,94.277,
01/01/2000,01:41:01.68,14.03,-73.69,-991.37,96.25,-691.25,-367.50,1,94.280,
01/01/2000,01:41:01.69,14.03,-73.69,-991.25,271.25,-700.0,-367.50,1,94.284,
01/01/2000,01:41:01.70,14.03,-73.69,-991.13,218.75,-761.25,-455.0,1,94.288,
01/01/2000,01:41:01.71,14.15,-73.69,-991.01,210.0,-647.50,-332.50,1,94.231,
01/01/2000,01:41:01.72,14.15,-73.81,-991.13,131.25,-761.25,-315.0,1,94.234,
01/01/2000,01:41:01.73,14.15,-73.69,-991.37,96.25,-840.0,-411.25,1,94.238,
01/01/2000,01:41:01.74,14.27,-73.69,-991.37,52.50,-665.0,-306.25,1,94.242,
01/01/2000,01:41:01.75,14.27,-73.69,-991.37,183.75,-708.75,-332.50,1,94.246,
01/01/2000,01:41:01.76,14.27,-73.69,-991.37,148.75,-568.75,-332.50,1,94.249,
01/01/2000,01:41:01.77,14.40,-73.69,-991.25,140.0,-708.75,-350.0,1,94.253,
01/01/2000,01:41:01.79,14.40,-73.57,-991.37,148.75,-691.25,-358.75,1,94.257,
01/01/2000,01:41:01.80,14.27,-73.69,-991.37,227.50,-656.25,-323.75,1,94.260,
01/01/2000,01:41:01.81,14.15,-73.57,-991.37,157.50,-796.25,-385.0,1,94.264,
01/01/2000,01:41:01.82,14.15,-73.69,-991.37,288.75,-743.75,-376.25,1,94.268,
01/01/2000,01:41:01.83,14.27,-73.57,-991.37,210.0,-665.0,-402.50,1,94.271,
01/01/2000,01:41:01.84,14.27,-73.69,-991.37,192.50,-612.50,-463.75,1,94.275,
01/01/2000,01:41:01.85,14.15,-73.69,-991.13,157.50,-568.75,-393.75,1,94.278,
01/01/2000,01:41:01.86,14.15,-73.57,-991.13,96.25,-840.0,-420.0,1,94.282,
01/01/2000,01:41:01.87,14.15,-73.44,-991.13,227.50,-682.50,-358.75,1,94.286,
01/01/2000,01:41:01.88,14.03,-73.57,-991.25,192.50,-691.25,-210.0,1,94.289,
01/01/2000,01:41:01.89,14.15,-73.69,-991.25,70.0,-691.25,-411.25,1,94.293,
01/01/2000,01:41:01.90,14.15,-73.81,-991.37,78.75,-665.0,-341.25,1,94.297,
01/01/2000,01:41:01.91,14.15,-73.93,-991.25,157.50,-621.25,-350.0,1,94.300,
01/01/2000,01:41:01.92,14.15,-73.81,-990.88,87.50,-621.25,-358.75,1,94.244,
01/01/2000,01:41:01.94,14.15,-73.81,-991.01,218.75,-717.50,-323.75,1,94.248,
01/01/2000,01:41:01.94,14.15,-73.81,-991.13,70.0,-630.0,-262.50,1,94.251,
01/01/2000,01:41:01.96,14.15,-74.05,-991.25,166.25,-691.25,-385.0,1,94.255,
01/01/2000,01:41:01.96,14.15,-73.93,-991.25,166.25,-691.25,-402.50,1,94.259,
01/01/2000,01:41:01.98,14.27,-73.81,-991.13,105.0,-717.50,-323.75,1,94.262,
01/01/2000,01:41:01.99,14.27,-73.81,-991.13,87.50,-691.25,-341.25,1,94.207,
01/01/2000,01:41:02.00,14.27,-73.81,-991.13,61.25,-813.75,-280.0,1,94.210,
01/01/2000,01:41:02.01,14.03,-73.81,-991.37,253.75,-726.25,-350.0,1,94.214,
01/01/2000,01:41:02.02,14.03,-73.69,-991.37,183.75,-761.25,-332.50,1,94.217,
01/01/2000,01:41:02.03,14.15,-73.81,-991.37,210.0,-630.0,-323.75,1,94.221,
01/01/2000,01:41:02.04,14.15,-73.69,-991.37,105.0,-603.75,-245.0,1,94.225,
01/01/2000,01:41:02.05,14.15,-73.93,-991.49,183.75,-586.25,-350.0,1,94.228,
01/01/2000,01:41:02.07,14.03,-74.05,-991.62,166.25,-735.0,-367.50,1,94.232,
01/01/2000,01:41:02.08,14.03,-73.93,-991.74,122.50,-682.50,-393.75,1,94.236,
01/01/2000,01:41:02.09,14.15,-73.93,-991.62,35.0,-700.0,-350.0,1,94.239,
01/01/2000,01:41:02.10,13.91,-73.93,-991.49,-17.50,-630.0,-350.0,1,94.243,
01/01/2000,01:41:02.11,13.91,-74.05,-991.62,175.0,-621.25,-323.75,1,94.246,
01/01/2000,01:41:02.12,13.91,-74.30,-991.62,175.0,-770.0,-516.25,1,94.250,
01/01/2000,01:41:02.13,14.03,-74.30,-991.86,105.0,-726.25,-376.25,1,94.254,
01/01/2000,01:41:02.14,14.15,-74.30,-991.74,280.0,-665.0,-323.75,1,94.257,
01/01/2000,01:41:02.15,14.03,-74.05,-991.86,131.25,-787.50,-341.25,1,94.261,
01/01/2000,01:41:02.16,14.03,-74.05,-991.74,218.75,-717.50,-332.50,1,94.264,
01/01/2000,01:41:02.17,14.15,-73.93,-991.86,35.0,-778.75,-218.75,1,94.268,
01/01/2000,01:41:02.18,14.27,-73.93,-991.74,210.0,-647.50,-428.75,1,94.271,
01/01/2000,01:41:02.19,14.27,-73.93,-991.62,148.75,-673.75,-262.50,1,94.275,
01/01/2000,01:41:02.20,14.03,-73.93,-991.62,140.0,-673.75,-472.50,1,94.279,
01/01/2000,01:41:02.21,13.91,-73.81,-991.74,262.50,-647.50,-306.25,1,94.282,
01/01/2000,01:41:02.22,14.03,-73.69,-991.74,78.75,-665.0,-297.50,1,94.286,
01/01/2000,01:41:02.23,14.03,-73.81,-991.62,52.50,-577.50,-227.50,1,94.289,
01/01/2000,01:41:02.24,14.03,-74.05,-991.74,210.0,-612.50,-393.75,1,94.293,
01/01/2000,01:41:02.25,14.03,-74.18,-991.62,105.0,-691.25,-376.25,1,94.296,
01/01/2000,01:41:02.26,14.03,-74.18,-991.49,148.75,-691.25,-323.75,1,94.241,
01/01/2000,01:41:02.28,14.03,-73.93,-991.62,140.0,-682.50,-341.25,1,94.245,
01/01/2000,01:41:02.29,13.91,-73.93,-991.62,236.25,-656.25,-376.25,1,94.249,
01/01/2000,01:41:02.30,13.91,-73.93,-991.62,192.50,-665.0,-280.0,1,94.252,
01/01/2000,01:41:02.31,14.15,-73.93,-991.49,43.75,-656.25,-376.25,1,94.256,
01/01/2000,01:41:02.32,14.03,-73.93,-991.62,192.50,-691.25,-367.50,1,94.259,
01/01/2000,01:41:02.33,14.15,-73.93,-991.49,52.50,-700.0,-420.0,1,94.263,
01/01/2000,01:41:02.34,14.15,-73.93,-991.37,288.75,-691.25,-280.0,1,94.266,
01/01/2000,01:41:02.35,13.91,-73.81,-991.37,43.75,-665.0,-341.25,1,94.270,
01/01/2000,01:41:02.36,13.91,-73.93,-991.37,175.0,-647.50,-393.75,1,94.273,
01/01/2000,01:41:02.37,13.91,-73.69,-991.37,192.50,-603.75,-350.0,1,94.277,
01/01/2000,01:41:02.38,13.91,-73.69,-991.49,183.75,-673.75,-280.0,1,94.280,
01/01/2000,01:41:02.39,14.03,-73.81,-991.49,78.75,-656.25,-341.25,1,94.284,
01/01/2000,01:41:02.40,13.91,-73.93,-991.49,402.50,-770.0,-323.75,1,94.287,
01/01/2000,01:41:02.41,13.91,-73.81,-991.37,131.25,-726.25,-341.25,1,94.233,
01/01/2000,01:41:02.42,13.91,-73.69,-991.37,166.25,-840.0,-236.25,1,94.237,
01/01/2000,01:41:02.43,14.15,-73.81,-991.37,175.0,-700.0,-341.25,1,94.240,
01/01/2000,01:41:02.44,14.15,-73.93,-991.37,148.75,-708.75,-376.25,1,94.244,
01/01/2000,01:41:02.45,14.15,-73.93,-991.49,78.75,-673.75,-393.75,1,94.247,
01/01/2000,01:41:02.46,14.15,-74.05,-991.62,262.50,-647.50,-385.0,1,94.251,
01/01/2000,01:41:02.47,14.03,-73.81,-991.62,43.75,-770.0,-297.50,1,94.254,
01/01/2000,01:41:02.49,13.91,-73.81,-991.74,157.50,-761.25,-385.0,1,94.258,
01/01/2000,01:41:02.50,13.91,-73.81,-991.49,175.0,-568.75,-420.0,1,94.261,
01/01/2000,01:41:02.51,13.91,-73.81,-991.49,192.50,-673.75,-271.25,1,94.207,
01/01/2000,01:41:02.52,13.91,-74.18,-991.62,113.75,-665.0,-297.50,1,94.211,
01/01/2000,01:41:02.53,13.91,-74.05,-991.74,245.0,-708.75,-411.25,1,94.214,
01/01/2000,01:41:02.54,13.91,-74.18,-991.86,35.0,-621.25,-385.0,1,94.218,
01/01/2000,01:41:02.55,14.15,-73.93,-991.74,52.50,-761.25,-280.0,1,94.221,
01/01/2000,01:41:02.56,14.15,-73.93,-991.62,210.0,-700.0,-341.25,1,94.225,
01/01/2000,01:41:02.57,14.15,-73.93,-991.37,157.50,-708.75,-332.50,1,94.228,
01/01/2000,01:41:02.58,14.15,-74.05,-991.49,210.0,-700.0,-411.25,1,94.232,
01/01/2000,01:41:02.59,14.27,-74.05,-991.37,210.0,-691.25,-306.25,1,94.235,
01/01/2000,01:41:02.60,14.15,-74.18,-991.37,113.75,-726.25,-437.50,1,94.239,
01/01/2000,01:41:02.61,14.03,-74.05,-991.49,113.75,-717.50,-306.25,1,94.242,
01/01/2000,01:41:02.63,13.91,-74.18,-991.49,157.50,-743.75,-437.50,1,94.246,
01/01/2000,01:41:02.64,13.91,-73.93,-991.49,35.0,-700.0,-385.0,1,94.249,
01/01/2000,01:41:02.65,14.03,-74.18,-991.49,105.0,-708.75,-271.25,1,94.253,
01/01/2000,01:41:02.66,14.15,-73.93,-991.49,96.25,-708.75,-332.50,1,94.256,
01/01/2000,01:41:02.67,14.03,-74.05,-991.62,227.50,-726.25,-393.75,1,94.260,
01/01/2000,01:41:02.68,14.15,-73.81,-991.49,96.25,-743.75,-262.50,1,94.263,
01/01/2000,01:41:02.69,14.15,-73.81,-991.62,236.25,-673.75,-358.75,1,94.267,
01/01/2000,01:41:02.70,14.15,-73.81,-991.62,201.25,-665.0,-376.25,1,94.270,
01/01/2000,01:41:02.71,14.15,-74.05,-991.62,218.75,-630.0,-323.75,1,94.274,
01/01/2000,01:41:02.72,14.03,-73.93,-991.62,122.50,-691.25,-315.0,1,94.277,
01/01/2000,01:41:02.73,13.91,-74.05,-991.74,148.75,-656.25,-323.75,1,94.281,
01/01/2000,01:41:02.74,14.03,-73.93,-991.62,113.75,-673.75,-385.0,1,94.284,
01/01/2000,01:41:02.75,14.15,-73.93,-991.62,8.75,-621.25,-350.0,1,94.287,
01/01/2000,01:41:02.76,14.03,-73.69,-991.62,148.75,-630.0,-323.75,1,94.291,
01/01/2000,01:41:02.77,14.03,-74.05,-991.74,183.75,-735.0,-210.0,1,94.294,
01/01/2000,01:41:02.78,14.15,-74.18,-991.62,157.50,-665.0,-385.0,1,94.298,
01/01/2000,01:41:02.79,14.15,-74.18,-991.62,87.50,-700.0,-332.50,1,94.301,
01/01/2000,01:41:02.80,14.03,-74.18,-991.62,218.75,-665.0,-411.25,1,94.305,
01/01/2000,01:41:02.81,14.15,-74.18,-991.62,61.25,-691.25,-376.25,1,94.308,
01/01/2000,01:41:02.82,14.15,-74.05,-991.74,70.0,-673.75,-472.50,1,94.311,
01/01/2000,01:41:02.83,14.03,-73.93,-991.74,210.0,-743.75,-358.75,1,94.258,
01/01/2000,01:41:02.85,14.15,-74.05,-991.62,183.75,-603.75,-271.25,1,94.262,
