rtcDate,rtcTime,aX,aY,aZ,gX,gY,gZ,dataRdy,output_Hz,
01/01/2000,01:43:28.88,11.59,-66.98,-863.03,236.25,-682.50,-315.0,1,0.0,
01/01/2000,01:43:28.89,11.96,-69.05,-892.31,210.0,-682.50,-341.25,1,100.0,
01/01/2000,01:43:28.90,11.96,-70.03,-904.39,245.0,-691.25,-271.25,1,100.0,
01/01/2000,01:43:28.91,12.08,-70.76,-915.24,148.75,-665.0,-411.25,1,100.0,
01/01/2000,01:43:28.92,12.20,-71.98,-928.79,210.0,-761.25,-332.50,1,100.0,
01/01/2000,01:43:28.93,12.32,-72.47,-936.47,157.50,-603.75,-446.25,1,100.0,
01/01/2000,01:43:28.94,12.44,-72.96,-943.30,113.75,-691.25,-271.25,1,100.0,
01/01/2000,01:43:28.95,12.44,-73.69,-951.84,192.50,-726.25,-420.0,1,100.0,
01/01/2000,01:43:28.96,12.44,-74.05,-956.97,140.0,-770.0,-323.75,1,100.0,
01/01/2000,01:43:28.97,12.69,-74.42,-961.36,245.0,-700.0,-385.0,1,100.0,
01/01/2000,01:43:28.98,12.69,-74.66,-965.26,166.25,-638.75,-367.50,1,100.0,
01/01/2000,01:43:28.99,12.81,-74.79,-968.56,201.25,-647.50,-306.25,1,100.0,
01/01/2000,01:43:29.00,12.81,-75.03,-972.71,122.50,-603.75,-376.25,1,100.0,
01/01/2000,01:43:29.02,12.93,-75.15,-975.15,87.50,-656.25,-262.50,1,100.0,
01/01/2000,01:43:29.03,12.93,-75.64,-977.46,175.0,-595.0,-323.75,1,100.0,
01/01/2000,01:43:29.04,12.93,-75.88,-980.15,70.0,-656.25,-385.0,1,100.0,
01/01/2000,01:43:29.05,12.81,-75.88,-981.61,113.75,-595.0,-253.75,1,100.0,
01/01/2000,01:43:29.06,12.93,-75.88,-983.08,210.0,-708.75,-332.50,1,100.0,
01/01/2000,01:43:29.07,12.93,-75.88,-984.17,245.0,-612.50,-323.75,1,100.0,
01/01/2000,01:43:29.08,12.93,-76.01,-985.27,140.0,-612.50,-341.25,1,100.0,
01/01/2000,01:43:29.09,13.05,-76.25,-986.61,105.0,-621.25,-245.0,1,100.0,
01/01/2000,01:43:29.10,13.05,-76.13,-987.47,0.0,-595.0,-428.75,1,100.0,
01/01/2000,01:43:29.11,12.93,-76.25,-988.20,245.0,-682.50,-402.50,1,100.0,
01/01/2000,01:43:29.12,13.18,-76.13,-988.93,52.50,-656.25,-271.25,1,100.0,
01/01/2000,01:43:29.13,13.18,-76.37,-989.42,253.75,-673.75,-253.75,1,100.0,
01/01/2000,01:43:29.14,13.18,-76.62,-989.79,140.0,-647.50,-297.50,1,100.0,
01/01/2000,01:43:29.15,13.42,-76.86,-990.27,210.0,-700.0,-455.0,1,100.0,
01/01/2000,01:43:29.16,13.18,-76.74,-990.64,140.0,-743.75,-288.75,1,100.0,
01/01/2000,01:43:29.17,13.18,-76.62,-990.88,183.75,-656.25,-245.0,1,100.0,
01/01/2000,01:43:29.18,13.18,-76.62,-991.13,122.50,-726.25,-341.25,1,100.0,
01/01/2000,01:43:29.19,13.18,-76.86,-991.25,140.0,-673.75,-306.25,1,100.0,
01/01/2000,01:43:29.20,13.18,-76.86,-991.37,201.25,-752.50,-437.50,1,100.0,
01/01/2000,01:43:29.21,13.18,-76.86,-991.62,183.75,-656.25,-341.25,1,100.0,
01/01/2000,01:43:29.22,13.18,-76.86,-991.62,210.0,-700.0,-315.0,1,100.0,
01/01/2000,01:43:29.23,13.05,-76.74,-991.62,166.25,-770.0,-358.75,1,97.222,
01/01/2000,01:43:29.25,13.18,-76.62,-991.74,166.25,-700.0,-323.75,1,97.297,
01/01/2000,01:43:29.25,12.93,-76.74,-991.86,253.75,-673.75,-341.25,1,97.368,
01/01/2000,01:43:29.27,13.05,-76.86,-992.10,87.50,-603.75,-350.0,1,97.436,
01/01/2000,01:43:29.28,12.93,-76.86,-991.98,105.0,-673.75,-297.50,1,97.500,
01/01/2000,01:43:29.29,12.93,-76.74,-991.86,96.25,-743.75,-315.0,1,97.561,
01/01/2000,01:43:29.30,12.93,-76.86,-991.86,-52.50,-717.50,-350.0,1,97.619,
01/01/2000,01:43:29.31,13.05,-76.86,-991.86,157.50,-700.0,-358.75,1,97.674,
01/01/2000,01:43:29.32,13.05,-76.86,-992.10,140.0,-647.50,-358.75,1,97.727,
01/01/2000,01:43:29.33,13.18,-76.86,-992.10,140.0,-708.75,-358.75,1,97.778,
01/01/2000,01:43:29.34,13.18,-76.86,-992.23,218.75,-778.75,-332.50,1,97.826,
01/01/2000,01:43:29.35,13.18,-76.74,-992.10,201.25,-595.0,-350.0,1,97.872,
01/01/2000,01:43:29.36,13.18,-76.86,-992.10,183.75,-665.0,-376.25,1,97.917,
01/01/2000,01:43:29.37,13.05,-76.86,-992.35,210.0,-787.50,-350.0,1,96.0,
01/01/2000,01:43:29.38,13.05,-76.86,-992.23,183.75,-743.75,-350.0,1,96.078,
01/01/2000,01:43:29.40,13.05,-76.86,-992.35,175.0,-603.75,-350.0,1,96.154,
01/01/2000,01:43:29.41,13.05,-76.86,-992.23,183.75,-778.75,-315.0,1,96.226,
01/01/2000,01:43:29.42,12.93,-77.10,-991.98,201.25,-691.25,-411.25,1,96.296,
01/01/2000,01:43:29.43,13.05,-77.10,-992.10,218.75,-708.75,-323.75,1,96.364,
01/01/2000,01:43:29.44,12.93,-76.98,-992.10,78.75,-665.0,-323.75,1,96.429,
01/01/2000,01:43:29.45,13.05,-76.86,-992.35,43.75,-630.0,-323.75,1,96.491,
01/01/2000,01:43:29.46,13.05,-76.98,-992.35,157.50,-708.75,-332.50,1,96.552,
01/01/2000,01:43:29.47,13.18,-76.98,-992.35,140.0,-761.25,-288.75,1,96.610,
01/01/2000,01:43:29.48,13.30,-76.98,-992.23,175.0,-770.0,-323.75,1,96.667,
01/01/2000,01:43:29.49,13.42,-76.86,-992.35,-17.50,-726.25,-253.75,1,96.721,
01/01/2000,01:43:29.50,13.54,-76.86,-992.35,113.75,-761.25,-288.75,1,96.774,
01/01/2000,01:43:29.51,13.42,-76.86,-992.47,96.25,-472.50,-367.50,1,96.825,
01/01/2000,01:43:29.52,13.30,-76.74,-992.35,122.50,-586.25,-385.0,1,96.875,
01/01/2000,01:43:29.53,13.42,-76.62,-992.23,113.75,-682.50,-367.50,1,96.923,
01/01/2000,01:43:29.54,13.42,-76.86,-992.10,210.0,-673.75,-376.25,1,96.970,
01/01/2000,01:43:29.55,13.42,-76.86,-992.10,157.50,-647.50,-288.75,1,97.015,
01/01/2000,01:43:29.56,13.18,-76.86,-991.98,218.75,-752.50,-428.75,1,97.059,
01/01/2000,01:43:29.57,13.18,-76.86,-991.86,280.0,-665.0,-332.50,1,97.101,
01/01/2000,01:43:29.58,13.18,-76.86,-991.86,96.25,-673.75,-376.25,1,95.775,
01/01/2000,01:43:29.59,13.30,-76.74,-991.74,148.75,-708.75,-271.25,1,95.833,
01/01/2000,01:43:29.60,13.30,-76.74,-991.74,131.25,-743.75,-323.75,1,95.890,
01/01/2000,01:43:29.61,13.18,-76.86,-991.74,70.0,-673.75,-393.75,1,95.946,
01/01/2000,01:43:29.62,13.05,-76.86,-991.74,122.50,-682.50,-358.75,1,96.0,
01/01/2000,01:43:29.63,13.05,-76.86,-991.74,280.0,-595.0,-332.50,1,96.053,
01/01/2000,01:43:29.65,13.05,-76.62,-991.86,70.0,-638.75,-236.25,1,96.104,
01/01/2000,01:43:29.66,12.93,-76.49,-991.86,131.25,-630.0,-323.75,1,96.154,
01/01/2000,01:43:29.67,12.93,-76.62,-991.86,236.25,-700.0,-350.0,1,96.203,
01/01/2000,01:43:29.68,13.18,-76.74,-991.74,210.0,-682.50,-420.0,1,96.250,
01/01/2000,01:43:29.69,13.05,-76.62,-991.86,157.50,-717.50,-455.0,1,96.296,
01/01/2000,01:43:29.70,12.93,-76.62,-991.74,105.0,-743.75,-402.50,1,96.341,
01/01/2000,01:43:29.71,12.93,-76.62,-991.74,70.0,-708.75,-358.75,1,96.386,
01/01/2000,01:43:29.72,12.93,-76.49,-991.74,96.25,-673.75,-262.50,1,96.429,
01/01/2000,01:43:29.73,13.05,-76.62,-991.74,157.50,-656.25,-271.25,1,96.471,
01/01/2000,01:43:29.74,13.05,-76.86,-991.86,192.50,-700.0,-358.75,1,96.512,
01/01/2000,01:43:29.75,13.18,-76.62,-991.86,166.25,-665.0,-350.0,1,96.552,
01/01/2000,01:43:29.76,13.18,-76.62,-991.74,245.0,-656.25,-332.50,1,96.591,
01/01/2000,01:43:29.77,13.18,-76.49,-991.62,105.0,-656.25,-288.75,1,96.629,
01/01/2000,01:43:29.78,13.05,-76.49,-991.74,236.25,-682.50,-350.0,1,96.667,
01/01/2000,01:43:29.79,13.05,-76.62,-991.62,166.25,-700.0,-218.75,1,95.652,
01/01/2000,01:43:29.80,13.05,-76.62,-991.49,166.25,-638.75,-411.25,1,95.699,
01/01/2000,01:43:29.81,13.05,-76.62,-991.62,70.0,-673.75,-227.50,1,95.745,
01/01/2000,01:43:29.82,13.05,-76.62,-991.74,183.75,-673.75,-332.50,1,95.789,
01/01/2000,01:43:29.83,12.93,-76.62,-991.86,175.0,-752.50,-332.50,1,95.833,
01/01/2000,01:43:29.84,13.05,-76.62,-991.86,323.75,-700.0,-341.25,1,95.876,
01/01/2000,01:43:29.86,13.05,-76.74,-991.86,131.25,-708.75,-350.0,1,95.918,
01/01/2000,01:43:29.87,13.18,-76.74,-991.74,236.25,-682.50,-393.75,1,95.960,
01/01/2000,01:43:29.88,13.18,-76.74,-991.62,87.50,-700.0,-385.0,1,96.0,
01/01/2000,01:43:29.89,13.18,-76.74,-991.74,227.50,-708.75,-437.50,1,96.040,
01/01/2000,01:43:29.90,13.18,-76.62,-991.86,52.50,-752.50,-271.25,1,95.146,
01/01/2000,01:43:29.91,13.18,-76.37,-991.86,201.25,-743.75,-393.75,1,95.192,
01/01/2000,01:43:29.92,13.18,-76.62,-991.74,210.0,-673.75,-446.25,1,95.238,
01/01/2000,01:43:29.94,13.18,-76.62,-991.62,218.75,-708.75,-315.0,1,95.283,
01/01/2000,01:43:29.95,13.18,-76.86,-991.62,210.0,-673.75,-358.75,1,95.327,
01/01/2000,01:43:29.96,13.30,-76.74,-991.74,262.50,-647.50,-315.0,1,95.370,
01/01/2000,01:43:29.97,13.42,-76.74,-991.74,192.50,-656.25,-446.25,1,95.413,
01/01/2000,01:43:29.98,13.18,-76.49,-991.62,87.50,-638.75,-332.50,1,95.455,
01/01/2000,01:43:29.99,13.30,-76.74,-991.49,157.50,-682.50,-358.75,1,95.495,
01/01/2000,01:43:30.00,13.30,-76.62,-991.74,122.50,-743.75,-332.50,1,95.536,
01/01/2000,01:43:30.01,13.30,-76.74,-991.74,210.0,-656.25,-341.25,1,95.575,
01/01/2000,01:43:30.02,13.18,-76.62,-991.62,-8.75,-770.0,-323.75,1,95.614,
01/01/2000,01:43:30.03,13.18,-76.74,-991.62,175.0,-700.0,-376.25,1,95.652,
01/01/2000,01:43:30.04,13.18,-76.86,-991.62,271.25,-665.0,-393.75,1,95.690,
01/01/2000,01:43:30.05,13.05,-76.62,-991.62,210.0,-708.75,-420.0,1,95.726,
01/01/2000,01:43:30.06,13.05,-76.49,-991.62,113.75,-700.0,-341.25,1,95.763,
01/01/2000,01:43:30.07,13.05,-76.62,-991.62,210.0,-638.75,-315.0,1,95.798,
01/01/2000,01:43:30.08,13.05,-76.62,-991.62,210.0,-568.75,-385.0,1,95.833,
01/01/2000,01:43:30.09,12.93,-76.74,-991.49,201.25,-735.0,-227.50,1,95.868,
01/01/2000,01:43:30.10,12.93,-76.74,-991.49,175.0,-735.0,-411.25,1,95.902,
01/01/2000,01:43:30.11,13.05,-76.62,-991.49,78.75,-621.25,-323.75,1,95.935,
01/01/2000,01:43:30.12,12.93,-76.62,-991.37,105.0,-743.75,-271.25,1,95.968,
01/01/2000,01:43:30.13,12.93,-76.74,-991.25,192.50,-673.75,-332.50,1,96.0,
01/01/2000,01:43:30.15,12.93,-76.86,-991.25,140.0,-787.50,-393.75,1,95.276,
01/01/2000,01:43:30.15,12.93,-76.62,-991.49,8.75,-813.75,-393.75,1,95.313,
01/01/2000,01:43:30.17,12.93,-76.62,-991.62,131.25,-638.75,-472.50,1,95.349,
01/01/2000,01:43:30.18,12.93,-76.37,-991.62,78.75,-612.50,-280.0,1,95.385,
01/01/2000,01:43:30.19,12.81,-76.62,-991.62,157.50,-752.50,-306.25,1,95.420,
01/01/2000,01:43:30.20,12.81,-76.74,-991.37,271.25,-682.50,-358.75,1,95.455,
01/01/2000,01:43:30.21,12.93,-76.49,-991.62,218.75,-656.25,-306.25,1,95.489,
01/01/2000,01:43:30.22,13.30,-76.62,-991.62,201.25,-665.0,-385.0,1,95.522,
01/01/2000,01:43:30.23,13.18,-76.62,-991.37,166.25,-638.75,-306.25,1,95.556,
01/01/2000,01:43:30.24,13.05,-76.62,-991.25,253.75,-656.25,-341.25,1,95.588,
01/01/2000,01:43:30.25,13.05,-76.62,-991.37,192.50,-770.0,-385.0,1,95.620,
01/01/2000,01:43:30.26,13.18,-76.62,-991.37,0.0,-752.50,-341.25,1,95.652,
01/01/2000,01:43:30.27,13.18,-76.86,-991.37,210.0,-708.75,-341.25,1,95.683,
01/01/2000,01:43:30.28,13.05,-76.98,-991.13,183.75,-551.25,-385.0,1,95.035,
01/01/2000,01:43:30.29,12.81,-76.86,-991.01,105.0,-726.25,-463.75,1,95.070,
01/01/2000,01:43:30.30,12.93,-76.62,-991.13,87.50,-735.0,-297.50,1,95.105,
01/01/2000,01:43:30.31,13.05,-76.62,-991.25,96.25,-612.50,-350.0,1,95.139,
01/01/2000,01:43:30.32,13.05,-76.74,-991.25,70.0,-647.50,-315.0,1,95.172,
01/01/2000,01:43:30.33,12.81,-76.62,-991.13,70.0,-682.50,-385.0,1,95.205,
01/01/2000,01:43:30.34,12.81,-76.62,-991.13,157.50,-638.75,-323.75,1,95.238,
01/01/2000,01:43:30.36,13.05,-76.49,-991.37,210.0,-726.25,-297.50,1,95.270,
01/01/2000,01:43:30.37,13.18,-76.49,-991.37,131.25,-665.0,-367.50,1,95.302,
01/01/2000,01:43:30.38,13.18,-76.49,-991.37,227.50,-647.50,-350.0,1,95.333,
01/01/2000,01:43:30.39,13.18,-76.74,-991.25,78.75,-638.75,-323.75,1,95.364,
01/01/2000,01:43:30.40,12.93,-76.74,-991.25,140.0,-752.50,-446.25,1,95.395,
01/01/2000,01:43:30.41,13.05,-76.62,-991.37,262.50,-717.50,-218.75,1,95.425,
01/01/2000,01:43:30.42,13.18,-76.62,-991.49,122.50,-700.0,-288.75,1,94.839,
01/01/2000,01:43:30.43,13.05,-76.86,-991.37,227.50,-621.25,-463.75,1,94.872,
01/01/2000,01:43:30.44,12.93,-76.74,-991.37,96.25,-752.50,-323.75,1,94.904,
01/01/2000,01:43:30.45,13.05,-76.74,-991.37,122.50,-638.75,-376.25,1,94.937,
01/01/2000,01:43:30.46,13.30,-76.49,-991.49,131.25,-665.0,-271.25,1,94.969,
01/01/2000,01:43:30.47,13.18,-76.49,-991.37,358.75,-612.50,-341.25,1,95.0,
01/01/2000,01:43:30.48,13.18,-76.49,-991.13,61.25,-717.50,-236.25,1,95.031,
01/01/2000,01:43:30.50,12.93,-76.62,-990.88,157.50,-665.0,-437.50,1,95.062,
01/01/2000,01:43:30.51,13.05,-76.62,-991.13,148.75,-813.75,-376.25,1,95.092,
01/01/2000,01:43:30.52,13.18,-76.62,-991.25,183.75,-708.75,-358.75,1,95.122,
01/01/2000,01:43:30.53,13.18,-76.62,-991.13,-52.50,-656.25,-297.50,1,95.152,
01/01/2000,01:43:30.54,13.05,-76.86,-991.01,140.0,-700.0,-385.0,1,95.181,
01/01/2000,01:43:30.55,13.05,-76.86,-990.88,192.50,-682.50,-297.50,1,95.210,
01/01/2000,01:43:30.56,13.05,-76.74,-991.13,192.50,-665.0,-437.50,1,95.238,
01/01/2000,01:43:30.57,13.18,-76.62,-991.37,183.75,-752.50,-455.0,1,95.266,
01/01/2000,01:43:30.58,13.18,-76.62,-991.25,253.75,-682.50,-350.0,1,95.294,
01/01/2000,01:43:30.59,12.93,-76.86,-990.88,148.75,-752.50,-367.50,1,95.322,
01/01/2000,01:43:30.60,12.93,-76.86,-990.88,131.25,-568.75,-446.25,1,95.349,
01/01/2000,01:43:30.61,13.05,-76.74,-990.88,157.50,-638.75,-306.25,1,95.376,
01/01/2000,01:43:30.62,13.30,-76.62,-991.01,166.25,-700.0,-280.0,1,95.402,
01/01/2000,01:43:30.63,13.42,-76.62,-990.76,105.0,-673.75,-385.0,1,95.429,
01/01/2000,01:43:30.64,13.18,-76.49,-990.64,105.0,-595.0,-376.25,1,95.455,
01/01/2000,01:43:30.65,13.30,-76.49,-990.88,122.50,-805.0,-402.50,1,95.480,
01/01/2000,01:43:30.66,13.54,-76.49,-991.13,183.75,-700.0,-341.25,1,95.506,
01/01/2000,01:43:30.67,13.54,-76.49,-991.13,140.0,-673.75,-367.50,1,95.531,
01/01/2000,01:43:30.68,13.18,-76.74,-991.01,113.75,-673.75,-385.0,1,95.556,
01/01/2000,01:43:30.69,13.05,-76.74,-990.88,43.75,-665.0,-315.0,1,95.580,
01/01/2000,01:43:30.70,13.05,-76.62,-991.01,148.75,-752.50,-420.0,1,95.082,
01/01/2000,01:43:30.71,13.30,-76.62,-991.25,227.50,-673.75,-280.0,1,95.109,
01/01/2000,01:43:30.73,13.42,-76.49,-991.37,280.0,-665.0,-280.0,1,95.135,
01/01/2000,01:43:30.73,13.42,-76.62,-991.13,218.75,-752.50,-350.0,1,95.161,
01/01/2000,01:43:30.75,13.18,-76.74,-990.88,70.0,-630.0,-367.50,1,95.187,
01/01/2000,01:43:30.76,13.18,-76.62,-991.13,271.25,-735.0,-350.0,1,95.213,
01/01/2000,01:43:30.77,13.30,-76.49,-991.13,122.50,-752.50,-376.25,1,95.238,
01/01/2000,01:43:30.78,13.05,-76.37,-991.25,113.75,-700.0,-385.0,1,95.263,
01/01/2000,01:43:30.79,13.18,-76.37,-991.13,227.50,-682.50,-393.75,1,95.288,
01/01/2000,01:43:30.80,13.18,-76.37,-991.13,96.25,-638.75,-358.75,1,95.313,
01/01/2000,01:43:30.81,13.30,-76.49,-991.01,183.75,-691.25,-358.75,1,95.337,
01/01/2000,01:43:30.82,13.18,-76.62,-990.88,131.25,-682.50,-376.25,1,95.361,
01/01/2000,01:43:30.83,13.30,-76.37,-990.88,166.25,-638.75,-402.50,1,95.385,
01/01/2000,01:43:30.84,13.30,-76.25,-990.88,175.0,-647.50,-455.0,1,95.408,
01/01/2000,01:43:30.85,13.30,-76.13,-991.01,201.25,-708.75,-280.0,1,94.949,
01/01/2000,01:43:30.86,13.42,-76.37,-991.01,113.75,-700.0,-350.0,1,94.975,
01/01/2000,01:43:30.87,13.42,-76.37,-991.13,52.50,-796.25,-385.0,1,95.0,
01/01/2000,01:43:30.88,13.42,-76.37,-991.13,201.25,-586.25,-402.50,1,95.025,
01/01/2000,01:43:30.89,13.42,-76.25,-990.88,175.0,-665.0,-297.50,1,95.050,
01/01/2000,01:43:30.90,13.30,-76.13,-990.88,175.0,-638.75,-393.75,1,95.074,
01/01/2000,01:43:30.92,13.18,-76.13,-991.13,227.50,-691.25,-332.50,1,95.098,
01/01/2000,01:43:30.93,13.18,-76.37,-991.13,105.0,-586.25,-358.75,1,94.660,
01/01/2000,01:43:30.94,13.18,-76.37,-991.01,192.50,-778.75,-358.75,1,94.686,
01/01/2000,01:43:30.95,13.18,-76.37,-991.01,140.0,-717.50,-323.75,1,94.712,
01/01/2000,01:43:30.96,13.05,-76.37,-991.01,192.50,-735.0,-455.0,1,94.737,
01/01/2000,01:43:30.97,13.05,-76.49,-991.13,148.75,-630.0,-306.25,1,94.762,
01/01/2000,01:43:30.98,13.05,-76.37,-991.25,157.50,-787.50,-367.50,1,94.787,
01/01/2000,01:43:30.99,13.18,-76.37,-991.13,271.25,-665.0,-341.25,1,94.811,
01/01/2000,01:43:31.00,13.05,-76.37,-990.88,192.50,-717.50,-280.0,1,94.836,
01/01/2000,01:43:31.01,13.05,-76.37,-991.01,87.50,-752.50,-420.0,1,94.860,
01/01/2000,01:43:31.02,13.05,-76.37,-991.01,262.50,-638.75,-323.75,1,94.884,
01/01/2000,01:43:31.03,13.18,-76.25,-991.13,96.25,-726.25,-341.25,1,94.907,
01/01/2000,01:43:31.04,13.05,-76.37,-991.13,201.25,-630.0,-262.50,1,94.931,
01/01/2000,01:43:31.05,13.18,-76.37,-990.76,148.75,-656.25,-358.75,1,94.954,
01/01/2000,01:43:31.07,13.05,-76.37,-990.76,43.75,-682.50,-385.0,1,94.977,
01/01/2000,01:43:31.08,13.18,-76.37,-990.76,175.0,-691.25,-358.75,1,95.0,
01/01/2000,01:43:31.09,13.30,-76.62,-990.88,183.75,-665.0,-402.50,1,95.023,
01/01/2000,01:43:31.10,13.30,-76.62,-991.01,192.50,-665.0,-323.75,1,95.045,
01/01/2000,01:43:31.11,13.18,-76.74,-990.88,288.75,-708.75,-350.0,1,95.067,
01/01/2000,01:43:31.12,13.30,-76.62,-990.88,113.75,-717.50,-280.0,1,95.089,
01/01/2000,01:43:31.13,13.42,-76.62,-990.88,227.50,-682.50,-446.25,1,95.111,
01/01/2000,01:43:31.14,13.42,-76.62,-990.76,105.0,-673.75,-297.50,1,95.133,
01/01/2000,01:43:31.15,13.42,-76.62,-990.64,227.50,-735.0,-402.50,1,95.154,
01/01/2000,01:43:31.16,13.30,-76.62,-990.64,218.75,-691.25,-323.75,1,95.175,
01/01/2000,01:43:31.17,13.18,-76.49,-990.76,262.50,-665.0,-402.50,1,95.197,
01/01/2000,01:43:31.18,13.18,-76.49,-990.88,113.75,-778.75,-280.0,1,95.217,
01/01/2000,01:43:31.19,13.05,-76.37,-990.88,0.0,-726.25,-393.75,1,95.238,
01/01/2000,01:43:31.20,13.18,-76.62,-990.88,210.0,-621.25,-393.75,1,94.850,
01/01/2000,01:43:31.21,13.18,-76.49,-990.88,183.75,-682.50,-341.25,1,94.872,
01/01/2000,01:43:31.22,13.18,-76.62,-991.01,201.25,-682.50,-420.0,1,94.894,
01/01/2000,01:43:31.23,13.18,-76.49,-990.88,131.25,-621.25,-376.25,1,94.915,
01/01/2000,01:43:31.24,13.18,-76.49,-990.88,175.0,-638.75,-385.0,1,94.937,
01/01/2000,01:43:31.25,13.05,-76.62,-990.88,148.75,-665.0,-236.25,1,94.958,
01/01/2000,01:43:31.26,13.05,-76.62,-990.88,253.75,-770.0,-376.25,1,94.979,
01/01/2000,01:43:31.28,13.18,-76.62,-991.01,183.75,-796.25,-271.25,1,95.0,
01/01/2000,01:43:31.29,13.18,-76.37,-991.01,218.75,-752.50,-350.0,1,95.021,
01/01/2000,01:43:31.30,13.05,-76.25,-991.01,131.25,-682.50,-227.50,1,95.041,
01/01/2000,01:43:31.31,13.18,-76.37,-991.01,236.25,-726.25,-306.25,1,95.062,
01/01/2000,01:43:31.32,12.93,-76.25,-990.88,210.0,-665.0,-358.75,1,95.082,
01/01/2000,01:43:31.33,12.93,-76.25,-991.01,157.50,-665.0,-350.0,1,95.102,
01/01/2000,01:43:31.34,12.93,-76.37,-991.01,236.25,-708.75,-463.75,1,95.122,
01/01/2000,01:43:31.35,12.93,-76.37,-990.88,306.25,-735.0,-297.50,1,95.142,
01/01/2000,01:43:31.36,12.93,-76.37,-990.88,122.50,-638.75,-280.0,1,95.161,
01/01/2000,01:43:31.37,12.81,-76.37,-990.88,140.0,-770.0,-358.75,1,95.181,
01/01/2000,01:43:31.38,12.93,-76.37,-991.13,87.50,-638.75,-358.75,1,95.200,
01/01/2000,01:43:31.39,13.05,-76.37,-991.13,148.75,-717.50,-306.25,1,95.219,
01/01/2000,01:43:31.40,13.05,-76.37,-991.01,148.75,-665.0,-280.0,1,95.238,
01/01/2000,01:43:31.42,13.18,-76.49,-990.88,122.50,-630.0,-341.25,1,94.882,
01/01/2000,01:43:31.43,13.18,-76.49,-990.76,280.0,-647.50,-402.50,1,94.902,
01/01/2000,01:43:31.44,13.18,-76.37,-991.01,78.75,-752.50,-315.0,1,94.922,
01/01/2000,01:43:31.45,13.05,-76.37,-991.01,236.25,-603.75,-358.75,1,94.942,
01/01/2000,01:43:31.46,12.93,-76.37,-990.88,140.0,-708.75,-306.25,1,94.961,
01/01/2000,01:43:31.47,13.05,-76.62,-991.01,166.25,-752.50,-288.75,1,94.981,
01/01/2000,01:43:31.48,13.18,-76.62,-991.01,43.75,-761.25,-315.0,1,95.0,
01/01/2000,01:43:31.49,13.05,-76.86,-991.13,183.75,-700.0,-367.50,1,95.019,
01/01/2000,01:43:31.50,12.93,-76.86,-991.13,70.0,-761.25,-376.25,1,95.038,
01/01/2000,01:43:31.51,12.93,-76.74,-991.25,192.50,-752.50,-420.0,1,95.057,
01/01/2000,01:43:31.52,13.05,-76.74,-991.25,236.25,-682.50,-280.0,1,95.076,
01/01/2000,01:43:31.53,13.05,-76.74,-991.13,113.75,-743.75,-402.50,1,94.737,
01/01/2000,01:43:31.54,12.93,-76.86,-991.01,43.75,-691.25,-306.25,1,95.113,
01/01/2000,01:43:31.55,13.05,-76.86,-991.01,201.25,-691.25,-393.75,1,94.776,
01/01/2000,01:43:31.56,13.05,-77.10,-991.13,131.25,-752.50,-402.50,1,94.796,
01/01/2000,01:43:31.57,13.18,-76.86,-991.37,297.50,-700.0,-411.25,1,94.815,
01/01/2000,01:43:31.58,13.42,-76.49,-991.62,122.50,-796.25,-262.50,1,94.834,
01/01/2000,01:43:31.59,13.66,-76.62,-991.62,131.25,-726.25,-271.25,1,94.853,
01/01/2000,01:43:31.60,12.93,-77.10,-991.49,43.75,-612.50,-376.25,1,94.872,
01/01/2000,01:43:31.61,12.93,-77.23,-991.37,201.25,-691.25,-481.25,1,94.891,
01/01/2000,01:43:31.62,13.30,-77.10,-991.49,148.75,-752.50,-385.0,1,94.909,
01/01/2000,01:43:31.64,13.66,-76.74,-991.74,192.50,-665.0,-192.50,1,94.928,
01/01/2000,01:43:31.65,13.42,-76.86,-991.74,192.50,-647.50,-350.0,1,94.946,
01/01/2000,01:43:31.66,13.05,-76.98,-991.62,253.75,-665.0,-367.50,1,94.964,
01/01/2000,01:43:31.67,12.93,-77.10,-991.49,271.25,-700.0,-437.50,1,94.982,
01/01/2000,01:43:31.68,13.05,-76.86,-991.62,210.0,-717.50,-437.50,1,95.0,
01/01/2000,01:43:31.69,13.42,-76.74,-991.74,175.0,-603.75,-271.25,1,95.018,
01/01/2000,01:43:31.70,13.05,-76.86,-991.37,87.50,-586.25,-271.25,1,95.035,
01/01/2000,01:43:31.71,12.81,-76.86,-991.25,192.50,-735.0,-315.0,1,95.053,
01/01/2000,01:43:31.72,12.93,-76.86,-991.49,236.25,-621.25,-332.50,1,95.070,
01/01/2000,01:43:31.73,13.18,-76.74,-991.74,183.75,-595.0,-245.0,1,95.088,
01/01/2000,01:43:31.74,13.30,-76.49,-991.86,131.25,-647.50,-253.75,1,95.105,
01/01/2000,01:43:31.75,13.18,-76.62,-991.37,113.75,-726.25,-367.50,1,95.122,
01/01/2000,01:43:31.76,12.81,-76.86,-991.49,105.0,-735.0,-323.75,1,94.810,
01/01/2000,01:43:31.77,12.93,-76.74,-991.74,148.75,-647.50,-437.50,1,94.828,
01/01/2000,01:43:31.78,13.05,-76.37,-991.86,201.25,-665.0,-253.75,1,94.845,
01/01/2000,01:43:31.79,13.18,-76.37,-991.62,96.25,-638.75,-350.0,1,94.863,
01/01/2000,01:43:31.80,12.93,-76.62,-991.37,148.75,-691.25,-350.0,1,94.881,
01/01/2000,01:43:31.81,13.05,-76.86,-991.25,166.25,-770.0,-358.75,1,94.898,
01/01/2000,01:43:31.82,13.18,-76.86,-991.37,157.50,-647.50,-507.50,1,94.915,
01/01/2000,01:43:31.84,13.42,-76.62,-991.86,148.75,-638.75,-341.25,1,94.932,
01/01/2000,01:43:31.85,13.42,-76.62,-991.74,105.0,-708.75,-306.25,1,94.949,
01/01/2000,01:43:31.86,13.05,-76.62,-991.25,166.25,-603.75,-297.50,1,94.966,
01/01/2000,01:43:31.87,13.05,-76.62,-991.13,166.25,-717.50,-341.25,1,94.983,
01/01/2000,01:43:31.88,13.18,-76.74,-991.25,280.0,-717.50,-420.0,1,95.0,
01/01/2000,01:43:31.89,13.42,-76.62,-991.62,113.75,-665.0,-288.75,1,95.017,
01/01/2000,01:43:31.90,13.42,-76.62,-991.62,253.75,-691.25,-315.0,1,95.033,
01/01/2000,01:43:31.91,13.18,-76.37,-990.88,183.75,-638.75,-332.50,1,95.050,
01/01/2000,01:43:31.92,13.05,-76.49,-991.01,236.25,-743.75,-315.0,1,95.066,
01/01/2000,01:43:31.93,13.18,-76.49,-991.13,192.50,-700.0,-297.50,1,95.082,
01/01/2000,01:43:31.94,13.30,-76.62,-991.37,131.25,-691.25,-350.0,1,95.098,
01/01/2000,01:43:31.96,13.18,-76.74,-991.37,253.75,-796.25,-385.0,1,94.805,
01/01/2000,01:43:31.97,12.93,-76.86,-991.01,192.50,-630.0,-376.25,1,94.822,
01/01/2000,01:43:31.98,12.93,-76.86,-990.88,175.0,-691.25,-376.25,1,94.839,
01/01/2000,01:43:31.99,13.05,-76.62,-991.13,245.0,-708.75,-253.75,1,94.855,
01/01/2000,01:43:32.00,13.05,-76.49,-991.37,175.0,-708.75,-420.0,1,94.872,
01/01/2000,01:43:32.01,12.93,-76.62,-991.13,113.75,-682.50,-280.0,1,94.888,
01/01/2000,01:43:32.02,12.93,-76.74,-991.01,210.0,-542.50,-428.75,1,94.904,
01/01/2000,01:43:32.03,12.93,-76.86,-991.13,183.75,-673.75,-472.50,1,94.921,
01/01/2000,01:43:32.04,12.93,-76.62,-991.13,96.25,-630.0,-358.75,1,94.937,
01/01/2000,01:43:32.05,13.05,-76.74,-991.13,131.25,-813.75,-332.50,1,94.953,
01/01/2000,01:43:32.06,12.93,-76.74,-991.13,236.25,-700.0,-227.50,1,94.969,
01/01/2000,01:43:32.07,12.93,-76.86,-991.13,113.75,-673.75,-385.0,1,94.984,
01/01/2000,01:43:32.08,12.93,-76.86,-991.13,166.25,-638.75,-332.50,1,95.0,
01/01/2000,01:43:32.09,13.18,-76.86,-991.01,201.25,-743.75,-367.50,1,95.016,
01/01/2000,01:43:32.10,13.18,-76.74,-991.37,227.50,-700.0,-297.50,1,95.031,
01/01/2000,01:43:32.11,12.93,-76.86,-991.25,175.0,-665.0,-385.0,1,94.753,
01/01/2000,01:43:32.12,12.81,-76.74,-991.37,227.50,-700.0,-393.75,1,94.769,
01/01/2000,01:43:32.13,12.93,-76.62,-991.37,148.75,-673.75,-411.25,1,94.785,
01/01/2000,01:43:32.14,12.93,-76.37,-991.37,122.50,-708.75,-402.50,1,94.801,
01/01/2000,01:43:32.15,13.05,-76.62,-991.25,218.75,-647.50,-315.0,1,94.817,
01/01/2000,01:43:32.16,12.81,-76.62,-991.25,175.0,-778.75,-420.0,1,94.833,
01/01/2000,01:43:32.17,12.69,-76.86,-991.13,192.50,-603.75,-481.25,1,94.848,
01/01/2000,01:43:32.19,12.69,-76.62,-991.13,210.0,-743.75,-297.50,1,94.864,
01/01/2000,01:43:32.20,12.93,-76.62,-991.13,218.75,-735.0,-367.50,1,94.880,
01/01/2000,01:43:32.21,12.93,-76.86,-991.13,26.25,-796.25,-376.25,1,94.895,
01/01/2000,01:43:32.22,12.93,-76.86,-991.01,122.50,-761.25,-367.50,1,94.910,
01/01/2000,01:43:32.23,12.69,-76.86,-990.88,306.25,-673.75,-542.50,1,94.925,
01/01/2000,01:43:32.24,12.69,-76.74,-990.88,140.0,-656.25,-315.0,1,94.940,
01/01/2000,01:43:32.25,12.93,-76.62,-991.13,131.25,-752.50,-288.75,1,94.955,
01/01/2000,01:43:32.26,12.93,-76.37,-991.25,175.0,-770.0,-280.0,1,94.970,
01/01/2000,01:43:32.27,12.69,-76.49,-991.13,131.25,-673.75,-402.50,1,94.985,
01/01/2000,01:43:32.28,12.69,-76.62,-991.13,96.25,-647.50,-341.25,1,95.0,
01/01/2000,01:43:32.29,12.81,-76.49,-991.13,262.50,-708.75,-358.75,1,95.015,
01/01/2000,01:43:32.30,13.05,-76.49,-991.13,166.25,-691.25,-297.50,1,94.752,
01/01/2000,01:43:32.31,12.93,-76.37,-991.25,218.75,-673.75,-376.25,1,95.044,
01/01/2000,01:43:32.33,12.81,-76.62,-991.25,192.50,-787.50,-315.0,1,94.783,
01/01/2000,01:43:32.34,12.93,-76.49,-991.25,201.25,-726.25,-367.50,1,94.798,
01/01/2000,01:43:32.35,13.05,-76.49,-991.37,218.75,-822.50,-367.50,1,94.813,
01/01/2000,01:43:32.36,13.18,-76.62,-991.13,166.25,-735.0,-332.50,1,94.828,
01/01/2000,01:43:32.37,12.93,-76.49,-991.13,332.50,-691.25,-350.0,1,94.842,
01/01/2000,01:43:32.38,12.93,-76.62,-991.13,245.0,-717.50,-358.75,1,94.857,
01/01/2000,01:43:32.39,12.93,-76.37,-991.25,192.50,-656.25,-385.0,1,94.872,
01/01/2000,01:43:32.40,12.93,-76.25,-991.37,157.50,-796.25,-280.0,1,94.886,
01/01/2000,01:43:32.41,12.93,-76.37,-991.25,52.50,-691.25,-280.0,1,94.901,
01/01/2000,01:43:32.42,12.93,-76.62,-991.13,140.0,-796.25,-350.0,1,94.915,
01/01/2000,01:43:32.43,12.93,-76.62,-991.13,140.0,-603.75,-358.75,1,94.930,
01/01/2000,01:43:32.44,12.93,-76.49,-991.25,122.50,-761.25,-341.25,1,94.944,
01/01/2000,01:43:32.45,12.93,-76.37,-991.13,70.0,-691.25,-358.75,1,94.958,
01/01/2000,01:43:32.47,12.93,-76.37,-991.13,218.75,-630.0,-210.0,1,94.708,
01/01/2000,01:43:32.48,12.93,-76.62,-991.25,96.25,-700.0,-402.50,1,94.722,
01/01/2000,01:43:32.49,12.93,-76.62,-991.37,183.75,-560.0,-315.0,1,94.737,
01/01/2000,01:43:32.50,13.05,-76.49,-991.49,96.25,-805.0,-385.0,1,94.751,
01/01/2000,01:43:32.51,12.81,-76.49,-991.49,96.25,-656.25,-288.75,1,94.766,
01/01/2000,01:43:32.52,12.81,-76.49,-991.25,131.25,-796.25,-341.25,1,94.780,
01/01/2000,01:43:32.53,12.69,-76.37,-991.01,113.75,-665.0,-315.0,1,94.795,
01/01/2000,01:43:32.54,12.93,-76.49,-991.13,210.0,-630.0,-288.75,1,94.550,
01/01/2000,01:43:32.55,12.93,-76.62,-991.13,122.50,-647.50,-402.50,1,94.565,
01/01/2000,01:43:32.56,12.93,-76.62,-991.25,157.50,-638.75,-332.50,1,94.580,
01/01/2000,01:43:32.57,12.93,-76.74,-991.13,87.50,-778.75,-411.25,1,94.595,
01/01/2000,01:43:32.58,12.93,-76.62,-991.13,183.75,-708.75,-323.75,1,94.609,
01/01/2000,01:43:32.59,13.18,-76.62,-991.25,210.0,-700.0,-323.75,1,94.624,
01/01/2000,01:43:32.60,13.18,-76.49,-991.25,297.50,-726.25,-393.75,1,94.638,
01/01/2000,01:43:32.61,13.05,-76.62,-991.37,35.0,-612.50,-306.25,1,94.652,
01/01/2000,01:43:32.62,13.18,-76.86,-991.01,227.50,-673.75,-393.75,1,94.667,
01/01/2000,01:43:32.63,13.05,-76.74,-991.01,17.50,-560.0,-393.75,1,94.681,
01/01/2000,01:43:32.64,13.18,-76.62,-991.01,201.25,-603.75,-385.0,1,94.695,
01/01/2000,01:43:32.65,13.18,-76.49,-991.01,113.75,-726.25,-358.75,1,94.709,
01/01/2000,01:43:32.66,13.30,-76.49,-991.13,271.25,-761.25,-280.0,1,94.723,
01/01/2000,01:43:32.67,13.18,-76.62,-991.01,105.0,-717.50,-323.75,1,94.737,
01/01/2000,01:43:32.69,13.18,-76.62,-991.25,113.75,-647.50,-411.25,1,94.751,
01/01/2000,01:43:32.70,13.18,-76.62,-991.37,157.50,-787.50,-358.75,1,94.764,
01/01/2000,01:43:32.71,13.18,-76.49,-991.13,140.0,-656.25,-315.0,1,94.778,
01/01/2000,01:43:32.72,13.05,-76.37,-991.01,105.0,-621.25,-262.50,1,94.792,
01/01/2000,01:43:32.73,13.18,-76.62,-991.01,105.0,-708.75,-341.25,1,94.805,
01/01/2000,01:43:32.74,13.18,-76.62,-991.13,166.25,-656.25,-367.50,1,94.819,
01/01/2000,01:43:32.75,13.18,-76.49,-990.88,262.50,-752.50,-297.50,1,94.832,
01/01/2000,01:43:32.76,13.42,-76.49,-990.88,87.50,-665.0,-297.50,1,94.602,
01/01/2000,01:43:32.77,13.42,-76.49,-990.76,183.75,-665.0,-315.0,1,94.615,
01/01/2000,01:43:32.78,13.42,-76.37,-990.88,245.0,-717.50,-367.50,1,94.629,
01/01/2000,01:43:32.79,13.42,-76.37,-991.01,78.75,-691.25,-297.50,1,94.643,
01/01/2000,01:43:32.80,13.42,-76.49,-991.01,113.75,-717.50,-358.75,1,94.656,
01/01/2000,01:43:32.81,13.18,-76.37,-991.01,201.25,-647.50,-376.25,1,94.670,
01/01/2000,01:43:32.83,13.30,-76.37,-990.88,166.25,-726.25,-262.50,1,94.684,
01/01/2000,01:43:32.84,13.30,-76.37,-990.88,297.50,-726.25,-332.50,1,94.697,
01/01/2000,01:43:32.85,13.42,-76.49,-991.01,280.0,-568.75,-437.50,1,94.710,
01/01/2000,01:43:32.86,13.30,-76.49,-990.88,140.0,-708.75,-280.0,1,94.724,
01/01/2000,01:43:32.87,13.18,-76.37,-990.88,148.75,-665.0,-332.50,1,94.737,
01/01/2000,01:43:32.88,13.18,-76.37,-990.88,105.0,-761.25,-411.25,1,94.750,
01/01/2000,01:43:32.89,13.30,-76.37,-991.01,140.0,-691.25,-306.25,1,94.763,
01/01/2000,01:43:32.90,13.18,-76.49,-991.01,122.50,-743.75,-402.50,1,94.776,
01/01/2000,01:43:32.91,13.18,-76.62,-991.01,315.0,-682.50,-271.25,1,94.789,
01/01/2000,01:43:32.92,13.30,-76.62,-990.88,175.0,-796.25,-411.25,1,94.802,
01/01/2000,01:43:32.93,13.18,-76.62,-990.76,183.75,-691.25,-367.50,1,94.815,
01/01/2000,01:43:32.94,13.05,-76.62,-990.76,175.0,-708.75,-367.50,1,94.828,
01/01/2000,01:43:32.95,13.05,-76.37,-990.88,26.25,-630.0,-420.0,1,94.840,
01/01/2000,01:43:32.96,13.05,-76.62,-990.88,253.75,-787.50,-227.50,1,94.621,
01/01/2000,01:43:32.98,13.05,-76.62,-990.76,148.75,-717.50,-288.75,1,94.634,
01/01/2000,01:43:32.99,13.18,-76.62,-990.76,131.25,-621.25,-350.0,1,94.647,
01/01/2000,01:43:33.00,13.18,-76.62,-990.76,131.25,-717.50,-393.75,1,94.660,
01/01/2000,01:43:33.01,13.18,-76.62,-990.76,236.25,-735.0,-350.0,1,94.673,
01/01/2000,01:43:33.02,13.05,-76.62,-990.88,157.50,-638.75,-341.25,1,94.686,
01/01/2000,01:43:33.03,12.93,-76.62,-991.01,201.25,-700.0,-288.75,1,94.699,
01/01/2000,01:43:33.04,13.05,-76.74,-990.88,280.0,-612.50,-411.25,1,94.712,
01/01/2000,01:43:33.05,13.05,-76.62,-990.88,280.0,-673.75,-315.0,1,94.724,
01/01/2000,01:43:33.06,13.05,-76.62,-990.88,70.0,-691.25,-411.25,1,94.737,
01/01/2000,01:43:33.07,13.18,-76.49,-990.88,175.0,-717.50,-385.0,1,94.749,
01/01/2000,01:43:33.08,13.18,-76.62,-991.25,183.75,-717.50,-402.50,1,94.762,
01/01/2000,01:43:33.09,13.05,-76.62,-991.13,70.0,-638.75,-358.75,1,94.774,
01/01/2000,01:43:33.10,13.18,-76.49,-991.13,70.0,-726.25,-262.50,1,94.563,
01/01/2000,01:43:33.11,13.18,-76.62,-990.88,218.75,-726.25,-385.0,1,94.575,
01/01/2000,01:43:33.12,13.18,-76.62,-991.01,157.50,-560.0,-341.25,1,94.588,
01/01/2000,01:43:33.13,13.18,-76.74,-991.13,218.75,-586.25,-385.0,1,94.601,
01/01/2000,01:43:33.14,13.18,-76.74,-991.25,148.75,-612.50,-306.25,1,94.614,
01/01/2000,01:43:33.15,13.18,-76.74,-991.13,61.25,-726.25,-376.25,1,94.626,
01/01/2000,01:43:33.16,13.18,-76.74,-990.88,227.50,-735.0,-367.50,1,94.639,
01/01/2000,01:43:33.17,12.93,-76.62,-990.88,166.25,-700.0,-245.0,1,94.651,
01/01/2000,01:43:33.18,12.93,-76.62,-991.01,122.50,-647.50,-367.50,1,94.664,
01/01/2000,01:43:33.19,12.93,-76.62,-991.13,52.50,-805.0,-402.50,1,94.676,
01/01/2000,01:43:33.20,12.93,-76.49,-991.01,131.25,-708.75,-306.25,1,94.688,
01/01/2000,01:43:33.21,12.93,-76.49,-990.88,236.25,-796.25,-420.0,1,94.700,
01/01/2000,01:43:33.22,12.93,-76.62,-990.88,183.75,-752.50,-192.50,1,94.713,
01/01/2000,01:43:33.23,12.93,-76.62,-990.88,245.0,-752.50,-297.50,1,94.725,
01/01/2000,01:43:33.25,12.81,-76.86,-991.01,-8.75,-621.25,-516.25,1,94.737,
01/01/2000,01:43:33.26,12.81,-76.86,-991.01,131.25,-700.0,-218.75,1,94.749,
01/01/2000,01:43:33.27,12.81,-76.86,-991.01,236.25,-621.25,-428.75,1,94.761,
01/01/2000,01:43:33.28,12.93,-76.86,-991.01,183.75,-770.0,-245.0,1,94.773,
01/01/2000,01:43:33.29,13.05,-76.86,-990.88,148.75,-673.75,-367.50,1,94.785,
01/01/2000,01:43:33.30,12.93,-76.86,-991.01,113.75,-603.75,-341.25,1,94.796,
01/01/2000,01:43:33.31,13.05,-76.86,-991.01,157.50,-761.25,-332.50,1,94.595,
01/01/2000,01:43:33.32,13.05,-76.86,-991.13,166.25,-691.25,-280.0,1,94.607,
01/01/2000,01:43:33.33,12.93,-76.86,-991.13,183.75,-717.50,-358.75,1,94.619,
01/01/2000,01:43:33.34,13.05,-76.98,-991.25,192.50,-691.25,-428.75,1,94.631,
01/01/2000,01:43:33.35,13.05,-76.98,-991.25,210.0,-700.0,-402.50,1,94.643,
01/01/2000,01:43:33.36,13.05,-76.86,-991.13,175.0,-700.0,-376.25,1,94.655,
01/01/2000,01:43:33.37,13.18,-76.86,-991.13,140.0,-708.75,-315.0,1,94.667,
01/01/2000,01:43:33.39,13.05,-76.74,-991.13,113.75,-665.0,-306.25,1,94.678,
01/01/2000,01:43:33.40,13.18,-76.86,-991.13,78.75,-647.50,-297.50,1,94.690,
01/01/2000,01:43:33.41,13.18,-76.86,-991.01,236.25,-647.50,-367.50,1,94.702,
01/01/2000,01:43:33.42,13.18,-76.86,-991.13,262.50,-735.0,-236.25,1,94.714,
01/01/2000,01:43:33.43,13.18,-76.86,-991.01,140.0,-673.75,-288.75,1,94.725,
01/01/2000,01:43:33.44,13.05,-76.74,-991.13,253.75,-586.25,-367.50,1,94.737,
01/01/2000,01:43:33.45,13.05,-76.62,-991.13,218.75,-682.50,-428.75,1,94.748,
01/01/2000,01:43:33.46,13.05,-76.62,-991.13,253.75,-630.0,-376.25,1,94.760,
01/01/2000,01:43:33.47,13.05,-76.49,-991.01,87.50,-595.0,-306.25,1,94.771,
01/01/2000,01:43:33.49,13.05,-76.37,-991.13,210.0,-665.0,-315.0,1,94.577,
01/01/2000,01:43:33.50,13.05,-76.37,-991.13,236.25,-752.50,-376.25,1,94.589,
01/01/2000,01:43:33.51,13.05,-76.49,-991.25,140.0,-682.50,-227.50,1,94.600,
01/01/2000,01:43:33.52,13.18,-76.62,-991.25,332.50,-673.75,-498.75,1,94.612,
01/01/2000,01:43:33.53,13.18,-76.62,-991.25,166.25,-595.0,-385.0,1,94.624,
01/01/2000,01:43:33.54,13.18,-76.49,-991.25,210.0,-647.50,-402.50,1,94.635,
01/01/2000,01:43:33.55,13.18,-76.62,-991.37,113.75,-612.50,-323.75,1,94.647,
01/01/2000,01:43:33.56,13.18,-76.62,-991.37,-35.0,-708.75,-253.75,1,94.658,
01/01/2000,01:43:33.57,13.18,-76.74,-991.49,78.75,-743.75,-358.75,1,94.670,
01/01/2000,01:43:33.58,13.30,-76.86,-991.62,157.50,-577.50,-358.75,1,94.681,
01/01/2000,01:43:33.59,13.30,-76.86,-991.62,175.0,-665.0,-393.75,1,94.692,
01/01/2000,01:43:33.60,13.18,-76.74,-991.49,210.0,-761.25,-350.0,1,94.703,
01/01/2000,01:43:33.61,13.18,-76.62,-991.49,131.25,-665.0,-297.50,1,94.715,
01/01/2000,01:43:33.62,13.18,-76.49,-991.49,245.0,-586.25,-358.75,1,94.726,
01/01/2000,01:43:33.63,13.30,-76.49,-991.37,87.50,-647.50,-183.75,1,94.737,
01/01/2000,01:43:33.64,13.18,-76.62,-991.37,218.75,-787.50,-323.75,1,94.549,
01/01/2000,01:43:33.65,13.18,-76.62,-991.37,70.0,-656.25,-306.25,1,94.759,
01/01/2000,01:43:33.66,13.18,-76.74,-991.37,175.0,-691.25,-446.25,1,94.572,
01/01/2000,01:43:33.68,13.42,-76.49,-991.62,192.50,-647.50,-411.25,1,94.583,
01/01/2000,01:43:33.69,13.42,-76.49,-991.49,341.25,-726.25,-253.75,1,94.595,
01/01/2000,01:43:33.70,13.30,-76.49,-991.37,78.75,-752.50,-323.75,1,94.606,
01/01/2000,01:43:33.71,13.18,-76.62,-991.37,262.50,-621.25,-393.75,1,94.617,
01/01/2000,01:43:33.72,13.18,-76.86,-991.49,52.50,-638.75,-341.25,1,94.628,
01/01/2000,01:43:33.73,13.05,-76.62,-991.62,183.75,-621.25,-402.50,1,94.639,
01/01/2000,01:43:33.74,13.05,-76.62,-991.62,87.50,-691.25,-271.25,1,94.650,
01/01/2000,01:43:33.75,13.18,-76.62,-991.37,157.50,-673.75,-306.25,1,94.661,
01/01/2000,01:43:33.76,13.18,-76.74,-991.37,201.25,-621.25,-288.75,1,94.672,
01/01/2000,01:43:33.77,13.30,-76.86,-991.37,96.25,-630.0,-315.0,1,94.683,
01/01/2000,01:43:33.78,13.30,-76.86,-991.49,131.25,-752.50,-402.50,1,94.694,
01/01/2000,01:43:33.79,13.18,-76.86,-991.62,131.25,-805.0,-271.25,1,94.705,
01/01/2000,01:43:33.80,13.05,-76.74,-991.62,148.75,-638.75,-350.0,1,94.715,
01/01/2000,01:43:33.81,13.30,-76.62,-991.62,122.50,-621.25,-280.0,1,94.534,
01/01/2000,01:43:33.82,13.30,-76.74,-991.62,218.75,-673.75,-332.50,1,94.545,
01/01/2000,01:43:33.83,13.30,-76.86,-991.62,183.75,-743.75,-385.0,1,94.556,
01/01/2000,01:43:33.84,13.18,-76.86,-991.37,245.0,-726.25,-341.25,1,94.567,
01/01/2000,01:43:33.85,13.18,-76.62,-991.49,113.75,-665.0,-402.50,1,94.578,
01/01/2000,01:43:33.86,13.18,-76.62,-991.62,245.0,-735.0,-306.25,1,94.589,
01/01/2000,01:43:33.87,13.18,-76.62,-991.74,227.50,-682.50,-218.75,1,94.600,
01/01/2000,01:43:33.89,13.05,-76.74,-991.62,201.25,-630.0,-516.25,1,94.611,
01/01/2000,01:43:33.90,12.93,-76.86,-991.49,52.50,-752.50,-350.0,1,94.622,
01/01/2000,01:43:33.91,13.05,-76.86,-991.62,297.50,-726.25,-385.0,1,94.632,
01/01/2000,01:43:33.92,13.18,-76.74,-991.74,210.0,-770.0,-358.75,1,94.643,
01/01/2000,01:43:33.93,13.18,-76.62,-991.74,192.50,-752.50,-306.25,1,94.653,
01/01/2000,01:43:33.94,12.81,-76.49,-991.62,96.25,-787.50,-236.25,1,94.664,
01/01/2000,01:43:33.95,12.81,-76.74,-991.37,227.50,-665.0,-271.25,1,94.675,
01/01/2000,01:43:33.96,12.93,-76.98,-991.62,245.0,-735.0,-288.75,1,94.685,
01/01/2000,01:43:33.97,12.93,-76.98,-991.49,148.75,-673.75,-280.0,1,94.695,
01/01/2000,01:43:33.98,12.93,-76.74,-991.37,210.0,-577.50,-323.75,1,94.706,
01/01/2000,01:43:33.99,12.93,-76.62,-991.62,175.0,-717.50,-490.0,1,94.531,
01/01/2000,01:43:34.00,12.93,-76.62,-991.74,245.0,-603.75,-253.75,1,94.542,
01/01/2000,01:43:34.01,12.93,-76.74,-991.86,166.25,-717.50,-306.25,1,94.553,
01/01/2000,01:43:34.03,12.81,-76.74,-991.62,175.0,-857.50,-402.50,1,94.563,
01/01/2000,01:43:34.04,12.81,-76.74,-991.37,78.75,-778.75,-420.0,1,94.574,
01/01/2000,01:43:34.05,12.93,-76.62,-991.37,341.25,-708.75,-411.25,1,94.584,
01/01/2000,01:43:34.06,12.93,-76.62,-991.62,113.75,-682.50,-323.75,1,94.595,
01/01/2000,01:43:34.07,13.05,-76.86,-991.86,175.0,-761.25,-341.25,1,94.605,
01/01/2000,01:43:34.08,12.93,-76.98,-991.86,157.50,-770.0,-367.50,1,94.615,
01/01/2000,01:43:34.09,12.93,-76.86,-991.62,245.0,-665.0,-367.50,1,94.626,
01/01/2000,01:43:34.10,13.05,-76.49,-991.62,253.75,-621.25,-315.0,1,94.636,
01/01/2000,01:43:34.11,13.18,-76.62,-991.74,105.0,-700.0,-271.25,1,94.646,
01/01/2000,01:43:34.12,13.18,-76.62,-991.74,113.75,-638.75,-411.25,1,94.656,
01/01/2000,01:43:34.13,12.93,-76.86,-991.86,192.50,-656.25,-376.25,1,94.667,
01/01/2000,01:43:34.14,12.93,-76.74,-991.62,78.75,-761.25,-315.0,1,94.677,
01/01/2000,01:43:34.15,12.93,-76.74,-991.62,350.0,-647.50,-280.0,1,94.687,
01/01/2000,01:43:34.16,13.18,-76.62,-991.37,87.50,-708.75,-236.25,1,94.697,
01/01/2000,01:43:34.17,13.18,-76.74,-991.49,271.25,-708.75,-507.50,1,94.707,
01/01/2000,01:43:34.18,12.93,-76.86,-991.37,122.50,-735.0,-306.25,1,94.717,
01/01/2000,01:43:34.19,13.05,-76.86,-991.37,201.25,-735.0,-402.50,1,94.727,
01/01/2000,01:43:34.20,13.18,-76.62,-991.62,148.75,-717.50,-315.0,1,94.737,
01/01/2000,01:43:34.21,13.18,-76.49,-991.62,122.50,-665.0,-323.75,1,94.747,
01/01/2000,01:43:34.22,13.30,-76.49,-991.49,227.50,-822.50,-323.75,1,94.757,
01/01/2000,01:43:34.23,13.18,-76.74,-991.62,183.75,-603.75,-271.25,1,94.590,
01/01/2000,01:43:34.24,13.18,-76.74,-991.86,218.75,-638.75,-332.50,1,94.600,
01/01/2000,01:43:34.25,13.18,-76.62,-991.98,87.50,-726.25,-402.50,1,94.610,
01/01/2000,01:43:34.26,13.30,-76.37,-991.86,166.25,-682.50,-288.75,1,94.620,
01/01/2000,01:43:34.27,13.05,-76.49,-991.62,113.75,-700.0,-315.0,1,94.630,
01/01/2000,01:43:34.28,12.93,-76.74,-991.37,113.75,-735.0,-262.50,1,94.640,
01/01/2000,01:43:34.30,12.93,-76.86,-991.62,271.25,-647.50,-402.50,1,94.649,
01/01/2000,01:43:34.31,13.05,-76.74,-991.86,183.75,-743.75,-288.75,1,94.659,
01/01/2000,01:43:34.32,13.18,-76.62,-991.86,52.50,-595.0,-306.25,1,94.669,
01/01/2000,01:43:34.33,13.18,-76.62,-991.74,192.50,-603.75,-288.75,1,94.679,
01/01/2000,01:43:34.34,13.18,-76.62,-991.74,61.25,-813.75,-271.25,1,94.689,
01/01/2000,01:43:34.35,13.18,-76.86,-991.74,183.75,-805.0,-393.75,1,94.698,
01/01/2000,01:43:34.36,13.18,-76.86,-991.86,52.50,-647.50,-367.50,1,94.708,
01/01/2000,01:43:34.37,13.05,-76.74,-991.74,105.0,-717.50,-315.0,1,94.718,
01/01/2000,01:43:34.38,12.93,-76.62,-991.74,166.25,-673.75,-280.0,1,94.727,
01/01/2000,01:43:34.39,12.93,-76.62,-991.62,280.0,-691.25,-358.75,1,94.737,
01/01/2000,01:43:34.40,13.30,-76.49,-991.62,218.75,-708.75,-183.75,1,94.746,
01/01/2000,01:43:34.41,13.05,-76.74,-991.86,140.0,-630.0,-315.0,1,94.756,
01/01/2000,01:43:34.42,12.93,-76.74,-991.86,52.50,-735.0,-358.75,1,94.765,
01/01/2000,01:43:34.43,12.93,-76.74,-991.62,245.0,-673.75,-393.75,1,94.775,
01/01/2000,01:43:34.45,13.18,-76.62,-991.49,227.50,-647.50,-280.0,1,94.614,
01/01/2000,01:43:34.46,13.18,-76.74,-991.37,253.75,-647.50,-306.25,1,94.624,
01/01/2000,01:43:34.47,12.93,-76.98,-991.62,122.50,-647.50,-358.75,1,94.633,
01/01/2000,01:43:34.48,12.93,-76.86,-991.62,201.25,-761.25,-315.0,1,94.643,
01/01/2000,01:43:34.49,12.93,-76.62,-991.49,105.0,-805.0,-402.50,1,94.652,
01/01/2000,01:43:34.50,13.18,-76.62,-991.25,87.50,-735.0,-350.0,1,94.662,
01/01/2000,01:43:34.51,13.05,-76.86,-991.37,192.50,-717.50,-393.75,1,94.504,
01/01/2000,01:43:34.52,13.05,-76.86,-991.37,288.75,-700.0,-323.75,1,94.513,
01/01/2000,01:43:34.53,13.05,-76.86,-991.37,113.75,-770.0,-376.25,1,94.523,
01/01/2000,01:43:34.54,12.93,-76.74,-991.37,166.25,-638.75,-358.75,1,94.533,
01/01/2000,01:43:34.55,12.93,-76.86,-991.25,201.25,-665.0,-332.50,1,94.542,
01/01/2000,01:43:34.56,13.05,-76.74,-991.37,148.75,-787.50,-358.75,1,94.552,
01/01/2000,01:43:34.57,13.18,-76.98,-991.62,192.50,-700.0,-341.25,1,94.561,
01/01/2000,01:43:34.58,13.05,-77.10,-991.49,175.0,-805.0,-306.25,1,94.571,
01/01/2000,01:43:34.59,12.93,-76.86,-991.37,288.75,-726.25,-472.50,1,94.580,
01/01/2000,01:43:34.60,12.93,-76.86,-991.37,131.25,-752.50,-297.50,1,94.590,
01/01/2000,01:43:34.61,12.93,-76.74,-991.37,148.75,-735.0,-315.0,1,94.599,
01/01/2000,01:43:34.62,12.93,-76.74,-991.49,183.75,-691.25,-315.0,1,94.609,
01/01/2000,01:43:34.63,12.93,-76.98,-991.62,113.75,-743.75,-280.0,1,94.618,
01/01/2000,01:43:34.64,12.93,-76.74,-991.62,157.50,-743.75,-358.75,1,94.627,
01/01/2000,01:43:34.66,12.93,-76.74,-991.37,306.25,-638.75,-393.75,1,94.637,
01/01/2000,01:43:34.67,12.93,-76.62,-991.13,131.25,-665.0,-315.0,1,94.646,
01/01/2000,01:43:34.68,12.93,-76.86,-991.37,253.75,-700.0,-350.0,1,94.655,
01/01/2000,01:43:34.69,12.93,-76.86,-991.62,96.25,-761.25,-358.75,1,94.664,
01/01/2000,01:43:34.70,12.93,-76.98,-991.62,210.0,-612.50,-437.50,1,94.674,
01/01/2000,01:43:34.71,12.81,-76.98,-991.62,148.75,-665.0,-332.50,1,94.683,
01/01/2000,01:43:34.72,12.93,-76.86,-991.37,218.75,-638.75,-411.25,1,94.530,
01/01/2000,01:43:34.73,13.05,-76.86,-991.37,131.25,-735.0,-323.75,1,94.701,
01/01/2000,01:43:34.74,13.05,-76.86,-991.62,227.50,-735.0,-323.75,1,94.549,
01/01/2000,01:43:34.75,13.05,-76.98,-991.86,218.75,-665.0,-315.0,1,94.558,
01/01/2000,01:43:34.76,13.18,-76.86,-991.74,297.50,-735.0,-393.75,1,94.567,
01/01/2000,01:43:34.77,13.30,-76.74,-991.62,87.50,-752.50,-262.50,1,94.576,
01/01/2000,01:43:34.78,13.30,-76.74,-991.37,140.0,-682.50,-315.0,1,94.585,
01/01/2000,01:43:34.80,13.18,-76.86,-991.37,245.0,-752.50,-271.25,1,94.595,
01/01/2000,01:43:34.81,13.05,-76.98,-991.62,140.0,-717.50,-341.25,1,94.604,
01/01/2000,01:43:34.82,13.05,-77.10,-991.86,61.25,-665.0,-323.75,1,94.613,
01/01/2000,01:43:34.83,13.18,-76.98,-991.86,227.50,-638.75,-350.0,1,94.622,
01/01/2000,01:43:34.84,13.18,-76.86,-991.86,140.0,-805.0,-376.25,1,94.631,
01/01/2000,01:43:34.85,13.18,-76.62,-991.62,52.50,-761.25,-288.75,1,94.640,
01/01/2000,01:43:34.86,13.05,-76.86,-991.62,236.25,-708.75,-437.50,1,94.649,
01/01/2000,01:43:34.87,12.93,-76.98,-991.74,113.75,-665.0,-393.75,1,94.658,
01/01/2000,01:43:34.88,13.05,-76.86,-991.74,245.0,-665.0,-367.50,1,94.667,
01/01/2000,01:43:34.89,13.05,-76.62,-991.62,113.75,-656.25,-306.25,1,94.676,
01/01/2000,01:43:34.90,12.93,-76.86,-991.62,236.25,-735.0,-411.25,1,94.684,
01/01/2000,01:43:34.91,12.93,-76.98,-991.74,271.25,-630.0,-376.25,1,94.693,
01/01/2000,01:43:34.92,13.05,-76.98,-991.86,140.0,-708.75,-420.0,1,94.702,
01/01/2000,01:43:34.93,13.18,-76.86,-991.86,280.0,-717.50,-393.75,1,94.554,
01/01/2000,01:43:34.94,13.18,-76.74,-991.62,105.0,-691.25,-367.50,1,94.563,
01/01/2000,01:43:34.95,13.05,-76.62,-991.62,131.25,-726.25,-315.0,1,94.572,
01/01/2000,01:43:34.96,13.05,-76.86,-991.62,183.75,-603.75,-358.75,1,94.581,
01/01/2000,01:43:34.97,13.18,-76.98,-991.74,201.25,-665.0,-367.50,1,94.590,
01/01/2000,01:43:34.98,13.30,-76.86,-991.74,157.50,-656.25,-297.50,1,94.599,
01/01/2000,01:43:34.99,13.30,-76.86,-991.62,148.75,-708.75,-315.0,1,94.608,
01/01/2000,01:43:35.01,13.05,-76.62,-991.25,96.25,-752.50,-280.0,1,94.463,
01/01/2000,01:43:35.02,13.05,-76.98,-991.37,166.25,-630.0,-332.50,1,94.472,
01/01/2000,01:43:35.03,13.05,-76.98,-991.62,175.0,-708.75,-358.75,1,94.481,
01/01/2000,01:43:35.04,13.18,-76.98,-991.74,131.25,-743.75,-411.25,1,94.489,
01/01/2000,01:43:35.05,13.42,-76.86,-991.49,175.0,-568.75,-297.50,1,94.498,
01/01/2000,01:43:35.06,13.05,-76.74,-991.37,113.75,-717.50,-385.0,1,94.507,
01/01/2000,01:43:35.07,13.05,-76.86,-991.49,227.50,-700.0,-306.25,1,94.516,
01/01/2000,01:43:35.08,13.05,-76.86,-991.62,96.25,-682.50,-376.25,1,94.525,
01/01/2000,01:43:35.10,13.18,-76.74,-991.86,148.75,-778.75,-306.25,1,94.534,
01/01/2000,01:43:35.10,13.18,-76.86,-991.86,210.0,-831.25,-385.0,1,94.543,
01/01/2000,01:43:35.12,13.18,-76.86,-991.62,183.75,-726.25,-315.0,1,94.551,
01/01/2000,01:43:35.12,13.18,-76.86,-991.37,218.75,-665.0,-411.25,1,94.560,
01/01/2000,01:43:35.14,13.18,-76.74,-991.37,122.50,-656.25,-402.50,1,94.569,
01/01/2000,01:43:35.15,13.18,-76.86,-991.62,148.75,-735.0,-297.50,1,94.577,
01/01/2000,01:43:35.16,13.18,-76.86,-991.86,192.50,-787.50,-280.0,1,94.586,
01/01/2000,01:43:35.17,13.18,-76.86,-991.62,210.0,-568.75,-350.0,1,94.595,
01/01/2000,01:43:35.18,13.30,-76.86,-991.25,96.25,-665.0,-376.25,1,94.603,
01/01/2000,01:43:35.19,13.42,-76.86,-991.13,131.25,-708.75,-306.25,1,94.612,
01/01/2000,01:43:35.20,13.42,-76.86,-991.37,113.75,-752.50,-280.0,1,94.620,
01/01/2000,01:43:35.21,13.42,-76.86,-991.37,280.0,-735.0,-428.75,1,94.629,
01/01/2000,01:43:35.22,13.42,-76.86,-991.25,350.0,-787.50,-341.25,1,94.637,
01/01/2000,01:43:35.23,13.30,-76.74,-991.13,78.75,-717.50,-315.0,1,94.646,
01/01/2000,01:43:35.24,13.42,-76.86,-991.13,78.75,-691.25,-437.50,1,94.654,
01/01/2000,01:43:35.25,13.30,-76.74,-991.13,245.0,-691.25,-385.0,1,94.662,
01/01/2000,01:43:35.26,13.18,-76.86,-991.13,192.50,-708.75,-323.75,1,94.671,
01/01/2000,01:43:35.27,13.05,-76.74,-991.13,183.75,-673.75,-315.0,1,94.679,
01/01/2000,01:43:35.28,13.18,-76.62,-991.37,166.25,-656.25,-157.50,1,94.540,
01/01/2000,01:43:35.29,13.18,-76.62,-991.49,8.75,-735.0,-358.75,1,94.548,
01/01/2000,01:43:35.30,13.18,-76.86,-991.49,113.75,-726.25,-271.25,1,94.557,
01/01/2000,01:43:35.31,13.05,-76.86,-991.49,131.25,-726.25,-393.75,1,94.565,
01/01/2000,01:43:35.32,12.93,-76.86,-991.37,253.75,-647.50,-402.50,1,94.574,
01/01/2000,01:43:35.33,12.93,-76.74,-991.49,332.50,-770.0,-315.0,1,94.582,
01/01/2000,01:43:35.35,13.18,-76.74,-991.62,26.25,-595.0,-393.75,1,94.590,
01/01/2000,01:43:35.36,13.18,-76.86,-991.62,157.50,-726.25,-288.75,1,94.599,
01/01/2000,01:43:35.37,13.05,-76.86,-991.37,157.50,-708.75,-428.75,1,94.607,
01/01/2000,01:43:35.38,12.93,-76.74,-991.37,175.0,-656.25,-420.0,1,94.615,
01/01/2000,01:43:35.39,12.93,-76.74,-991.37,341.25,-638.75,-446.25,1,94.624,
01/01/2000,01:43:35.40,13.05,-76.49,-991.49,288.75,-682.50,-288.75,1,94.632,
01/01/2000,01:43:35.41,13.05,-76.62,-991.49,113.75,-656.25,-271.25,1,94.640,
01/01/2000,01:43:35.42,12.93,-76.49,-991.37,271.25,-778.75,-288.75,1,94.648,
01/01/2000,01:43:35.43,13.05,-76.86,-991.25,157.50,-612.50,-376.25,1,94.512,
01/01/2000,01:43:35.44,13.18,-76.74,-991.37,192.50,-551.25,-411.25,1,94.521,
01/01/2000,01:43:35.45,13.30,-76.62,-991.49,113.75,-630.0,-245.0,1,94.529,
01/01/2000,01:43:35.46,13.42,-76.74,-991.62,227.50,-682.50,-350.0,1,94.537,
01/01/2000,01:43:35.47,13.42,-76.86,-991.62,175.0,-717.50,-323.75,1,94.545,
01/01/2000,01:43:35.48,13.42,-76.86,-991.74,96.25,-761.25,-402.50,1,94.554,
01/01/2000,01:43:35.50,13.42,-76.74,-991.49,87.50,-656.25,-446.25,1,94.562,
01/01/2000,01:43:35.51,13.42,-76.74,-991.49,227.50,-700.0,-332.50,1,94.570,
01/01/2000,01:43:35.52,13.30,-76.86,-991.62,105.0,-735.0,-262.50,1,94.578,
01/01/2000,01:43:35.53,13.05,-77.10,-991.37,227.50,-673.75,-420.0,1,94.586,
01/01/2000,01:43:35.54,13.18,-77.10,-991.49,113.75,-647.50,-367.50,1,94.595,
01/01/2000,01:43:35.55,13.18,-76.86,-991.62,87.50,-726.25,-376.25,1,94.461,
01/01/2000,01:43:35.56,13.30,-76.98,-991.62,192.50,-743.75,-262.50,1,94.611,
01/01/2000,01:43:35.57,13.18,-76.98,-991.49,96.25,-761.25,-341.25,1,94.478,
01/01/2000,01:43:35.58,13.18,-77.10,-991.37,210.0,-638.75,-323.75,1,94.486,
01/01/2000,01:43:35.59,13.18,-77.10,-991.49,43.75,-673.75,-376.25,1,94.494,
01/01/2000,01:43:35.60,13.18,-76.86,-991.62,192.50,-682.50,-306.25,1,94.502,
01/01/2000,01:43:35.61,13.18,-76.86,-991.62,131.25,-595.0,-271.25,1,94.510,
01/01/2000,01:43:35.62,13.05,-76.62,-991.49,148.75,-691.25,-253.75,1,94.519,
01/01/2000,01:43:35.63,12.93,-76.86,-991.49,245.0,-603.75,-402.50,1,94.527,
01/01/2000,01:43:35.65,13.05,-76.98,-991.62,166.25,-682.50,-262.50,1,94.535,
01/01/2000,01:43:35.66,13.18,-76.86,-991.74,131.25,-603.75,-350.0,1,94.543,
01/01/2000,01:43:35.67,13.05,-76.86,-991.62,105.0,-665.0,-236.25,1,94.551,
01/01/2000,01:43:35.68,12.93,-76.86,-991.49,262.50,-778.75,-385.0,1,94.559,
01/01/2000,01:43:35.69,12.93,-76.86,-991.62,140.0,-656.25,-428.75,1,94.567,
01/01/2000,01:43:35.70,12.81,-76.74,-991.62,140.0,-647.50,-253.75,1,94.575,
01/01/2000,01:43:35.71,12.93,-76.86,-991.74,192.50,-700.0,-350.0,1,94.583,
01/01/2000,01:43:35.72,12.93,-76.86,-991.62,192.50,-665.0,-393.75,1,94.591,
01/01/2000,01:43:35.73,12.93,-76.86,-991.49,227.50,-805.0,-367.50,1,94.599,
01/01/2000,01:43:35.74,12.93,-76.86,-991.62,148.75,-682.50,-367.50,1,94.606,
01/01/2000,01:43:35.75,12.93,-76.86,-991.74,166.25,-761.25,-323.75,1,94.614,
01/01/2000,01:43:35.76,12.93,-76.86,-991.86,140.0,-673.75,-446.25,1,94.622,
01/01/2000,01:43:35.77,13.18,-76.86,-991.62,131.25,-638.75,-323.75,1,94.630,
01/01/2000,01:43:35.78,13.18,-76.86,-991.37,105.0,-770.0,-297.50,1,94.501,
01/01/2000,01:43:35.79,13.30,-76.86,-991.37,297.50,-630.0,-393.75,1,94.509,
01/01/2000,01:43:35.80,13.18,-76.86,-991.49,192.50,-673.75,-341.25,1,94.517,
01/01/2000,01:43:35.81,13.05,-76.86,-991.37,166.25,-673.75,-420.0,1,94.524,
01/01/2000,01:43:35.82,12.93,-76.62,-991.37,113.75,-700.0,-341.25,1,94.532,
01/01/2000,01:43:35.83,13.05,-76.74,-991.37,210.0,-726.25,-376.25,1,94.540,
01/01/2000,01:43:35.84,13.18,-76.62,-991.37,227.50,-761.25,-288.75,1,94.548,
01/01/2000,01:43:35.86,13.05,-76.86,-991.62,183.75,-752.50,-350.0,1,94.556,
01/01/2000,01:43:35.87,13.05,-76.86,-991.62,218.75,-621.25,-306.25,1,94.564,
01/01/2000,01:43:35.88,12.93,-76.74,-991.49,236.25,-516.25,-367.50,1,94.571,
01/01/2000,01:43:35.89,12.81,-76.49,-991.49,227.50,-630.0,-306.25,1,94.579,
01/01/2000,01:43:35.90,12.81,-76.37,-991.49,105.0,-717.50,-358.75,1,94.587,
01/01/2000,01:43:35.91,12.93,-76.74,-991.62,131.25,-673.75,-262.50,1,94.595,
01/01/2000,01:43:35.92,12.93,-77.10,-991.37,105.0,-682.50,-262.50,1,94.602,
01/01/2000,01:43:35.93,12.93,-76.98,-991.25,26.25,-726.25,-411.25,1,94.610,
01/01/2000,01:43:35.94,12.93,-76.86,-991.13,131.25,-761.25,-297.50,1,94.618,
01/01/2000,01:43:35.95,12.93,-76.74,-991.25,166.25,-656.25,-271.25,1,94.625,
01/01/2000,01:43:35.96,12.81,-76.74,-991.13,131.25,-682.50,-262.50,1,94.633,
01/01/2000,01:43:35.97,12.69,-76.86,-991.25,192.50,-516.25,-350.0,1,94.640,
01/01/2000,01:43:35.98,12.81,-76.98,-991.13,210.0,-726.25,-446.25,1,94.648,
01/01/2000,01:43:36.00,12.93,-76.86,-991.25,245.0,-743.75,-332.50,1,94.522,
01/01/2000,01:43:36.01,12.93,-76.86,-991.25,61.25,-586.25,-253.75,1,94.530,
01/01/2000,01:43:36.02,13.05,-76.74,-991.37,113.75,-656.25,-350.0,1,94.538,
01/01/2000,01:43:36.03,12.93,-76.74,-991.37,61.25,-612.50,-350.0,1,94.545,
01/01/2000,01:43:36.04,13.05,-76.74,-991.49,210.0,-682.50,-315.0,1,94.553,
01/01/2000,01:43:36.05,13.18,-76.62,-991.25,245.0,-673.75,-306.25,1,94.561,
01/01/2000,01:43:36.06,13.30,-76.74,-991.13,17.50,-735.0,-280.0,1,94.568,
01/01/2000,01:43:36.07,13.30,-76.86,-991.13,157.50,-743.75,-288.75,1,94.444,
01/01/2000,01:43:36.08,13.18,-76.86,-991.13,96.25,-630.0,-455.0,1,94.583,
01/01/2000,01:43:36.09,13.30,-76.86,-991.25,157.50,-647.50,-472.50,1,94.460,
01/01/2000,01:43:36.10,13.30,-76.62,-991.25,131.25,-717.50,-358.75,1,94.467,
01/01/2000,01:43:36.11,13.30,-76.62,-991.13,78.75,-770.0,-306.25,1,94.475,
01/01/2000,01:43:36.12,13.30,-76.86,-991.13,166.25,-717.50,-393.75,1,94.483,
01/01/2000,01:43:36.13,13.30,-76.98,-991.13,245.0,-665.0,-393.75,1,94.490,
01/01/2000,01:43:36.14,13.42,-76.86,-991.25,183.75,-700.0,-350.0,1,94.498,
01/01/2000,01:43:36.15,13.30,-76.86,-991.37,148.75,-735.0,-358.75,1,94.505,
01/01/2000,01:43:36.16,13.30,-76.74,-991.37,175.0,-673.75,-358.75,1,94.513,
01/01/2000,01:43:36.17,13.30,-76.74,-991.49,105.0,-630.0,-332.50,1,94.521,
01/01/2000,01:43:36.18,13.30,-76.62,-991.49,122.50,-708.75,-385.0,1,94.528,
01/01/2000,01:43:36.19,13.30,-76.86,-991.37,148.75,-682.50,-411.25,1,94.536,
01/01/2000,01:43:36.21,13.18,-76.86,-991.49,87.50,-568.75,-376.25,1,94.543,
01/01/2000,01:43:36.22,13.18,-76.86,-991.49,227.50,-708.75,-446.25,1,94.550,
01/01/2000,01:43:36.23,13.18,-76.62,-991.62,131.25,-787.50,-271.25,1,94.558,
01/01/2000,01:43:36.24,13.18,-76.62,-991.62,140.0,-770.0,-393.75,1,94.565,
01/01/2000,01:43:36.25,13.18,-76.74,-991.49,183.75,-595.0,-297.50,1,94.573,
01/01/2000,01:43:36.26,13.30,-76.74,-991.49,87.50,-708.75,-437.50,1,94.580,
01/01/2000,01:43:36.27,13.30,-76.86,-991.13,157.50,-743.75,-315.0,1,94.587,
01/01/2000,01:43:36.28,13.18,-76.86,-991.13,183.75,-647.50,-472.50,1,94.467,
01/01/2000,01:43:36.29,13.18,-76.74,-991.25,35.0,-630.0,-385.0,1,94.602,
01/01/2000,01:43:36.30,13.18,-76.62,-991.25,218.75,-673.75,-323.75,1,94.482,
01/01/2000,01:43:36.31,13.42,-76.49,-991.25,236.25,-656.25,-323.75,1,94.489,
01/01/2000,01:43:36.32,13.42,-76.62,-991.13,166.25,-656.25,-350.0,1,94.497,
01/01/2000,01:43:36.33,13.30,-76.62,-991.13,131.25,-638.75,-306.25,1,94.504,
01/01/2000,01:43:36.35,13.42,-76.86,-991.25,43.75,-630.0,-367.50,1,94.511,
01/01/2000,01:43:36.36,13.30,-76.74,-991.37,166.25,-770.0,-367.50,1,94.519,
01/01/2000,01:43:36.37,13.18,-76.74,-991.25,78.75,-621.25,-297.50,1,94.526,
01/01/2000,01:43:36.38,13.18,-76.86,-991.37,175.0,-691.25,-332.50,1,94.533,
01/01/2000,01:43:36.39,13.18,-76.62,-991.13,140.0,-708.75,-350.0,1,94.541,
01/01/2000,01:43:36.40,13.18,-76.74,-991.13,140.0,-630.0,-358.75,1,94.548,
01/01/2000,01:43:36.41,13.18,-76.86,-991.13,175.0,-726.25,-411.25,1,94.555,
01/01/2000,01:43:36.42,13.18,-76.86,-991.13,26.25,-717.50,-332.50,1,94.562,
01/01/2000,01:43:36.43,13.05,-76.74,-991.13,105.0,-586.25,-446.25,1,94.570,
01/01/2000,01:43:36.44,13.05,-76.74,-991.13,122.50,-682.50,-350.0,1,94.577,
01/01/2000,01:43:36.45,13.05,-76.86,-991.13,87.50,-630.0,-367.50,1,94.584,
01/01/2000,01:43:36.46,13.18,-77.10,-991.01,166.25,-813.75,-280.0,1,94.591,
01/01/2000,01:43:36.47,13.18,-77.10,-990.88,306.25,-647.50,-393.75,1,94.598,
01/01/2000,01:43:36.48,13.05,-76.98,-991.01,245.0,-673.75,-358.75,1,94.481,
01/01/2000,01:43:36.49,13.18,-76.86,-991.13,192.50,-656.25,-367.50,1,94.488,
01/01/2000,01:43:36.50,13.18,-76.74,-991.25,166.25,-665.0,-271.25,1,94.495,
01/01/2000,01:43:36.51,13.18,-76.74,-991.13,96.25,-612.50,-271.25,1,94.503,
01/01/2000,01:43:36.52,13.18,-76.86,-991.13,218.75,-638.75,-306.25,1,94.510,
01/01/2000,01:43:36.53,13.18,-76.98,-991.13,183.75,-691.25,-376.25,1,94.517,
01/01/2000,01:43:36.55,13.30,-76.74,-991.25,175.0,-752.50,-367.50,1,94.524,
01/01/2000,01:43:36.56,13.18,-76.62,-991.25,148.75,-691.25,-350.0,1,94.408,
01/01/2000,01:43:36.57,12.93,-76.62,-991.25,201.25,-735.0,-253.75,1,94.416,
01/01/2000,01:43:36.58,12.93,-76.86,-991.13,183.75,-647.50,-315.0,1,94.423,
01/01/2000,01:43:36.59,13.05,-76.86,-991.25,131.25,-665.0,-297.50,1,94.430,
01/01/2000,01:43:36.60,13.18,-76.86,-991.25,113.75,-638.75,-411.25,1,94.437,
01/01/2000,01:43:36.61,13.18,-76.86,-991.13,157.50,-700.0,-393.75,1,94.444,
01/01/2000,01:43:36.62,12.93,-76.62,-991.13,227.50,-682.50,-253.75,1,94.452,
01/01/2000,01:43:36.64,12.81,-76.49,-991.13,288.75,-595.0,-341.25,1,94.459,
01/01/2000,01:43:36.65,12.81,-76.62,-991.13,140.0,-656.25,-350.0,1,94.466,
01/01/2000,01:43:36.66,13.18,-76.62,-991.25,227.50,-708.75,-350.0,1,94.473,
01/01/2000,01:43:36.67,13.30,-76.49,-991.25,183.75,-595.0,-358.75,1,94.480,
01/01/2000,01:43:36.68,13.18,-76.49,-991.25,105.0,-778.75,-376.25,1,94.487,
01/01/2000,01:43:36.69,13.05,-76.49,-991.01,271.25,-630.0,-385.0,1,94.494,
01/01/2000,01:43:36.70,12.93,-76.37,-991.01,306.25,-568.75,-332.50,1,94.501,
01/01/2000,01:43:36.71,12.93,-76.37,-991.25,271.25,-577.50,-306.25,1,94.508,
01/01/2000,01:43:36.72,12.93,-76.37,-991.25,166.25,-673.75,-411.25,1,94.515,
01/01/2000,01:43:36.73,13.05,-76.62,-991.13,78.75,-673.75,-280.0,1,94.522,
01/01/2000,01:43:36.74,13.05,-76.74,-991.13,122.50,-708.75,-437.50,1,94.529,
01/01/2000,01:43:36.75,12.93,-76.62,-991.13,26.25,-708.75,-341.25,1,94.536,
01/01/2000,01:43:36.76,13.05,-76.49,-991.37,131.25,-621.25,-306.25,1,94.543,
01/01/2000,01:43:36.77,12.81,-76.37,-991.37,113.75,-665.0,-253.75,1,94.430,
01/01/2000,01:43:36.78,12.81,-76.37,-991.13,96.25,-770.0,-393.75,1,94.437,
01/01/2000,01:43:36.79,12.93,-76.49,-991.01,253.75,-665.0,-280.0,1,94.444,
01/01/2000,01:43:36.80,12.93,-76.62,-991.01,113.75,-813.75,-358.75,1,94.451,
01/01/2000,01:43:36.81,12.93,-76.62,-991.37,113.75,-752.50,-350.0,1,94.458,
01/01/2000,01:43:36.82,12.93,-76.49,-991.37,131.25,-665.0,-271.25,1,94.465,
01/01/2000,01:43:36.83,12.93,-76.49,-991.37,140.0,-665.0,-437.50,1,94.472,
01/01/2000,01:43:36.85,12.93,-76.62,-991.37,140.0,-630.0,-271.25,1,94.479,
01/01/2000,01:43:36.86,12.93,-76.62,-991.37,218.75,-612.50,-385.0,1,94.486,
01/01/2000,01:43:36.87,13.05,-76.86,-991.37,175.0,-586.25,-350.0,1,94.493,
01/01/2000,01:43:36.88,13.05,-76.98,-991.37,183.75,-805.0,-420.0,1,94.500,
01/01/2000,01:43:36.89,13.05,-76.98,-991.37,218.75,-691.25,-411.25,1,94.507,
01/01/2000,01:43:36.90,12.93,-76.86,-991.25,148.75,-665.0,-280.0,1,94.514,
01/01/2000,01:43:36.91,13.18,-76.86,-991.37,113.75,-735.0,-323.75,1,94.521,
01/01/2000,01:43:36.92,13.18,-76.86,-991.49,201.25,-647.50,-306.25,1,94.527,
01/01/2000,01:43:36.93,13.30,-76.98,-991.49,183.75,-717.50,-402.50,1,94.534,
01/01/2000,01:43:36.94,13.30,-76.98,-991.37,183.75,-708.75,-402.50,1,94.541,
01/01/2000,01:43:36.95,13.30,-76.86,-991.37,148.75,-682.50,-341.25,1,94.548,
01/01/2000,01:43:36.96,13.18,-76.74,-991.62,175.0,-638.75,-420.0,1,94.554,
01/01/2000,01:43:36.97,13.18,-76.74,-991.74,201.25,-717.50,-323.75,1,94.561,
01/01/2000,01:43:36.99,13.05,-76.62,-991.62,113.75,-787.50,-393.75,1,94.451,
01/01/2000,01:43:37.00,12.93,-76.86,-991.62,96.25,-796.25,-315.0,1,94.458,
01/01/2000,01:43:37.01,12.93,-76.98,-991.62,218.75,-752.50,-280.0,1,94.465,
01/01/2000,01:43:37.02,12.93,-76.86,-991.62,166.25,-638.75,-323.75,1,94.472,
01/01/2000,01:43:37.03,12.93,-76.62,-991.62,262.50,-673.75,-358.75,1,94.479,
01/01/2000,01:43:37.04,12.93,-76.62,-991.37,280.0,-682.50,-402.50,1,94.485,
01/01/2000,01:43:37.05,12.93,-76.62,-991.37,236.25,-621.25,-350.0,1,94.377,
01/01/2000,01:43:37.06,13.18,-76.74,-991.37,166.25,-700.0,-306.25,1,94.383,
01/01/2000,01:43:37.07,13.05,-76.74,-991.49,192.50,-717.50,-402.50,1,94.390,
01/01/2000,01:43:37.08,13.05,-76.62,-991.37,148.75,-647.50,-332.50,1,94.397,
01/01/2000,01:43:37.09,12.93,-76.86,-991.37,8.75,-700.0,-332.50,1,94.404,
01/01/2000,01:43:37.10,12.93,-76.86,-991.49,210.0,-665.0,-385.0,1,94.411,
01/01/2000,01:43:37.12,12.93,-76.74,-991.49,192.50,-656.25,-358.75,1,94.417,
01/01/2000,01:43:37.13,12.93,-76.74,-991.49,131.25,-682.50,-306.25,1,94.424,
01/01/2000,01:43:37.14,12.93,-76.62,-991.25,70.0,-691.25,-323.75,1,94.431,
01/01/2000,01:43:37.15,12.93,-76.74,-991.25,43.75,-682.50,-332.50,1,94.438,
01/01/2000,01:43:37.16,12.93,-76.86,-991.25,210.0,-647.50,-437.50,1,94.444,
01/01/2000,01:43:37.17,12.93,-76.86,-991.37,87.50,-647.50,-332.50,1,94.451,
01/01/2000,01:43:37.18,13.05,-76.86,-991.37,218.75,-682.50,-437.50,1,94.458,
01/01/2000,01:43:37.19,13.05,-76.74,-991.37,192.50,-621.25,-297.50,1,94.465,
01/01/2000,01:43:37.20,13.05,-76.62,-991.37,210.0,-595.0,-332.50,1,94.471,
01/01/2000,01:43:37.21,13.05,-76.74,-991.49,218.75,-586.25,-288.75,1,94.478,
01/01/2000,01:43:37.22,13.05,-76.98,-991.49,236.25,-796.25,-402.50,1,94.484,
01/01/2000,01:43:37.23,13.05,-76.74,-991.62,148.75,-647.50,-402.50,1,94.491,
01/01/2000,01:43:37.24,13.05,-76.49,-991.49,87.50,-691.25,-393.75,1,94.498,
01/01/2000,01:43:37.25,12.93,-76.37,-991.62,253.75,-752.50,-428.75,1,94.504,
01/01/2000,01:43:37.26,12.81,-76.49,-991.62,131.25,-691.25,-306.25,1,94.398,
01/01/2000,01:43:37.27,12.93,-76.62,-991.62,140.0,-586.25,-350.0,1,94.405,
01/01/2000,01:43:37.28,13.05,-76.62,-991.74,192.50,-735.0,-341.25,1,94.411,
01/01/2000,01:43:37.29,13.05,-76.62,-991.62,236.25,-691.25,-350.0,1,94.418,
01/01/2000,01:43:37.30,12.93,-76.62,-991.62,183.75,-656.25,-341.25,1,94.425,
01/01/2000,01:43:37.31,12.81,-76.37,-991.62,131.25,-595.0,-201.25,1,94.431,
01/01/2000,01:43:37.32,12.93,-76.62,-991.62,175.0,-621.25,-332.50,1,94.438,
01/01/2000,01:43:37.34,12.93,-76.98,-991.62,201.25,-682.50,-350.0,1,94.444,
01/01/2000,01:43:37.35,13.05,-77.10,-991.62,105.0,-787.50,-323.75,1,94.451,
01/01/2000,01:43:37.36,12.93,-77.10,-991.49,227.50,-595.0,-437.50,1,94.458,
01/01/2000,01:43:37.37,12.81,-76.86,-991.62,131.25,-726.25,-323.75,1,94.464,
01/01/2000,01:43:37.38,12.93,-76.62,-991.62,245.0,-638.75,-315.0,1,94.471,
01/01/2000,01:43:37.39,13.05,-76.62,-991.62,183.75,-735.0,-262.50,1,94.477,
01/01/2000,01:43:37.40,13.18,-76.98,-991.62,192.50,-708.75,-297.50,1,94.484,
01/01/2000,01:43:37.41,13.05,-77.10,-991.49,35.0,-630.0,-402.50,1,94.490,
01/01/2000,01:43:37.42,13.05,-77.10,-991.49,140.0,-700.0,-420.0,1,94.496,
01/01/2000,01:43:37.43,13.05,-76.86,-991.62,166.25,-726.25,-332.50,1,94.503,
01/01/2000,01:43:37.44,13.18,-76.86,-991.74,17.50,-717.50,-288.75,1,94.509,
01/01/2000,01:43:37.45,13.18,-76.86,-991.74,271.25,-691.25,-297.50,1,94.516,
01/01/2000,01:43:37.46,13.18,-76.86,-991.74,262.50,-665.0,-332.50,1,94.522,
01/01/2000,01:43:37.47,13.18,-77.10,-991.74,148.75,-840.0,-341.25,1,94.419,
01/01/2000,01:43:37.48,13.18,-77.10,-991.62,210.0,-778.75,-306.25,1,94.425,
01/01/2000,01:43:37.49,13.18,-76.86,-991.49,236.25,-647.50,-385.0,1,94.432,
01/01/2000,01:43:37.50,13.18,-76.74,-991.62,122.50,-665.0,-411.25,1,94.438,
01/01/2000,01:43:37.51,13.18,-76.86,-991.62,96.25,-717.50,-236.25,1,94.444,
01/01/2000,01:43:37.52,13.30,-77.10,-991.62,306.25,-577.50,-350.0,1,94.451,
01/01/2000,01:43:37.54,13.30,-76.98,-991.49,175.0,-665.0,-350.0,1,94.457,
01/01/2000,01:43:37.55,13.30,-77.10,-991.37,96.25,-682.50,-367.50,1,94.464,
01/01/2000,01:43:37.56,13.05,-76.86,-991.49,192.50,-621.25,-341.25,1,94.361,
01/01/2000,01:43:37.57,13.05,-76.86,-991.74,131.25,-656.25,-297.50,1,94.368,
01/01/2000,01:43:37.58,13.18,-76.74,-991.86,218.75,-586.25,-323.75,1,94.374,
01/01/2000,01:43:37.59,13.18,-76.74,-991.86,78.75,-656.25,-297.50,1,94.381,
01/01/2000,01:43:37.60,13.18,-76.86,-991.74,148.75,-665.0,-262.50,1,94.387,
01/01/2000,01:43:37.61,13.18,-77.10,-991.62,192.50,-743.75,-428.75,1,94.394,
01/01/2000,01:43:37.63,13.30,-76.98,-991.49,52.50,-708.75,-306.25,1,94.400,
01/01/2000,01:43:37.64,13.30,-76.62,-991.62,192.50,-647.50,-420.0,1,94.406,
01/01/2000,01:43:37.65,13.42,-76.62,-991.49,183.75,-647.50,-367.50,1,94.413,
01/01/2000,01:43:37.66,13.30,-76.49,-991.49,157.50,-638.75,-280.0,1,94.419,
01/01/2000,01:43:37.67,13.18,-76.86,-991.37,201.25,-691.25,-253.75,1,94.425,
01/01/2000,01:43:37.68,13.18,-77.10,-991.49,236.25,-708.75,-367.50,1,94.432,
01/01/2000,01:43:37.69,13.30,-76.98,-991.62,306.25,-752.50,-446.25,1,94.438,
01/01/2000,01:43:37.70,13.42,-76.74,-991.62,122.50,-778.75,-253.75,1,94.444,
01/01/2000,01:43:37.71,13.30,-76.62,-991.37,157.50,-726.25,-271.25,1,94.451,
01/01/2000,01:43:37.72,13.18,-76.86,-991.37,280.0,-708.75,-315.0,1,94.457,
01/01/2000,01:43:37.73,13.18,-76.98,-991.49,78.75,-638.75,-385.0,1,94.463,
01/01/2000,01:43:37.74,13.18,-77.10,-991.37,192.50,-691.25,-332.50,1,94.470,
01/01/2000,01:43:37.75,13.42,-77.23,-991.25,183.75,-630.0,-332.50,1,94.476,
01/01/2000,01:43:37.76,13.42,-77.23,-991.25,183.75,-726.25,-402.50,1,94.482,
01/01/2000,01:43:37.77,13.30,-77.10,-991.13,236.25,-717.50,-315.0,1,94.488,
01/01/2000,01:43:37.78,13.42,-76.98,-991.37,183.75,-647.50,-280.0,1,94.494,
01/01/2000,01:43:37.79,13.54,-76.74,-991.62,96.25,-708.75,-315.0,1,94.501,
01/01/2000,01:43:37.80,13.66,-76.74,-991.62,253.75,-656.25,-288.75,1,94.507,
01/01/2000,01:43:37.81,13.66,-76.86,-991.37,271.25,-603.75,-306.25,1,94.513,
01/01/2000,01:43:37.82,13.42,-76.98,-991.25,183.75,-638.75,-402.50,1,94.413,
01/01/2000,01:43:37.83,13.42,-76.86,-991.25,157.50,-717.50,-420.0,1,94.420,
01/01/2000,01:43:37.84,13.42,-76.62,-991.49,315.0,-735.0,-428.75,1,94.426,
01/01/2000,01:43:37.85,13.42,-76.86,-991.74,131.25,-691.25,-227.50,1,94.432,
01/01/2000,01:43:37.86,13.42,-76.86,-991.62,148.75,-717.50,-358.75,1,94.438,
01/01/2000,01:43:37.87,13.30,-77.10,-991.37,280.0,-647.50,-350.0,1,94.444,
01/01/2000,01:43:37.88,13.42,-77.10,-991.25,96.25,-612.50,-332.50,1,94.451,
01/01/2000,01:43:37.90,13.30,-76.86,-991.37,122.50,-673.75,-297.50,1,94.457,
01/01/2000,01:43:37.91,13.18,-76.86,-991.49,192.50,-682.50,-402.50,1,94.463,
01/01/2000,01:43:37.92,12.93,-76.74,-991.62,87.50,-638.75,-402.50,1,94.469,
01/01/2000,01:43:37.93,12.93,-76.74,-991.49,105.0,-717.50,-385.0,1,94.475,
01/01/2000,01:43:37.94,13.05,-76.86,-991.37,140.0,-717.50,-297.50,1,94.481,
01/01/2000,01:43:37.95,13.18,-76.74,-991.49,227.50,-700.0,-350.0,1,94.487,
01/01/2000,01:43:37.96,13.30,-76.98,-991.37,140.0,-665.0,-341.25,1,94.493,
01/01/2000,01:43:37.97,13.05,-76.86,-991.25,175.0,-665.0,-358.75,1,94.499,
01/01/2000,01:43:37.98,12.93,-76.74,-991.37,192.50,-665.0,-393.75,1,94.505,
01/01/2000,01:43:37.99,13.18,-76.62,-991.37,105.0,-630.0,-376.25,1,94.512,
01/01/2000,01:43:38.00,13.18,-76.62,-991.37,131.25,-630.0,-227.50,1,94.518,
01/01/2000,01:43:38.01,12.93,-76.86,-991.13,17.50,-682.50,-341.25,1,94.524,
01/01/2000,01:43:38.02,13.18,-77.10,-991.01,280.0,-717.50,-341.25,1,94.530,
01/01/2000,01:43:38.03,13.30,-76.86,-990.88,148.75,-778.75,-271.25,1,94.432,
01/01/2000,01:43:38.04,13.30,-76.74,-991.01,113.75,-752.50,-358.75,1,94.438,
01/01/2000,01:43:38.05,13.18,-76.74,-991.13,227.50,-735.0,-227.50,1,94.444,
01/01/2000,01:43:38.06,13.18,-76.62,-991.37,96.25,-700.0,-376.25,1,94.450,
01/01/2000,01:43:38.08,13.18,-76.74,-991.25,122.50,-673.75,-472.50,1,94.457,
01/01/2000,01:43:38.09,13.30,-76.74,-991.37,271.25,-770.0,-385.0,1,94.360,
01/01/2000,01:43:38.10,13.42,-76.98,-991.37,113.75,-708.75,-393.75,1,94.366,
01/01/2000,01:43:38.11,13.18,-76.86,-991.37,131.25,-638.75,-393.75,1,94.372,
01/01/2000,01:43:38.12,13.18,-76.86,-991.37,140.0,-717.50,-306.25,1,94.378,
01/01/2000,01:43:38.13,13.05,-76.62,-991.49,148.75,-673.75,-271.25,1,94.384,
01/01/2000,01:43:38.15,13.05,-76.74,-991.49,122.50,-805.0,-236.25,1,94.391,
01/01/2000,01:43:38.15,13.18,-76.86,-991.37,140.0,-647.50,-253.75,1,94.397,
01/01/2000,01:43:38.17,12.93,-76.98,-991.25,288.75,-533.75,-472.50,1,94.403,
01/01/2000,01:43:38.18,12.93,-76.86,-991.37,122.50,-647.50,-323.75,1,94.409,
01/01/2000,01:43:38.19,12.93,-76.62,-991.62,122.50,-673.75,-498.75,1,94.415,
01/01/2000,01:43:38.20,12.93,-76.62,-991.62,157.50,-638.75,-437.50,1,94.421,
01/01/2000,01:43:38.21,12.81,-76.62,-991.37,306.25,-691.25,-315.0,1,94.427,
01/01/2000,01:43:38.22,12.81,-76.62,-991.49,166.25,-647.50,-463.75,1,94.433,
01/01/2000,01:43:38.23,12.93,-76.86,-991.37,105.0,-630.0,-306.25,1,94.438,
01/01/2000,01:43:38.24,13.18,-76.86,-991.37,227.50,-805.0,-218.75,1,94.444,
01/01/2000,01:43:38.25,13.18,-76.86,-991.62,288.75,-656.25,-490.0,1,94.450,
01/01/2000,01:43:38.26,13.05,-76.86,-991.49,105.0,-778.75,-341.25,1,94.456,
01/01/2000,01:43:38.27,12.81,-76.62,-991.62,113.75,-735.0,-376.25,1,94.462,
01/01/2000,01:43:38.28,12.81,-76.62,-991.37,122.50,-603.75,-323.75,1,94.468,
01/01/2000,01:43:38.29,13.05,-76.62,-991.13,87.50,-665.0,-411.25,1,94.474,
01/01/2000,01:43:38.30,13.18,-76.86,-991.13,183.75,-708.75,-332.50,1,94.480,
01/01/2000,01:43:38.31,12.93,-76.86,-991.25,157.50,-682.50,-297.50,1,94.486,
01/01/2000,01:43:38.32,13.05,-76.62,-991.49,157.50,-708.75,-323.75,1,94.392,
01/01/2000,01:43:38.33,13.18,-76.62,-991.62,166.25,-551.25,-315.0,1,94.397,
01/01/2000,01:43:38.34,13.18,-76.49,-991.62,113.75,-700.0,-280.0,1,94.403,
01/01/2000,01:43:38.35,13.18,-76.62,-991.37,122.50,-708.75,-420.0,1,94.409,
01/01/2000,01:43:38.36,13.05,-76.74,-991.25,175.0,-682.50,-271.25,1,94.415,
01/01/2000,01:43:38.37,13.18,-76.86,-991.37,280.0,-726.25,-420.0,1,94.421,
01/01/2000,01:43:38.39,13.18,-76.74,-991.49,227.50,-752.50,-315.0,1,94.427,
01/01/2000,01:43:38.40,13.18,-76.62,-991.62,192.50,-700.0,-210.0,1,94.433,
01/01/2000,01:43:38.41,13.05,-76.74,-991.49,201.25,-673.75,-393.75,1,94.439,
01/01/2000,01:43:38.42,13.05,-76.86,-991.37,201.25,-673.75,-271.25,1,94.444,
01/01/2000,01:43:38.43,13.30,-77.10,-991.25,131.25,-647.50,-446.25,1,94.450,
01/01/2000,01:43:38.44,13.42,-77.10,-991.25,280.0,-612.50,-315.0,1,94.456,
01/01/2000,01:43:38.45,13.42,-76.86,-991.25,-78.75,-638.75,-297.50,1,94.462,
01/01/2000,01:43:38.46,13.05,-76.74,-991.13,227.50,-656.25,-297.50,1,94.369,
01/01/2000,01:43:38.47,12.93,-76.62,-991.37,288.75,-638.75,-315.0,1,94.375,
01/01/2000,01:43:38.48,13.05,-76.62,-991.37,122.50,-700.0,-367.50,1,94.381,
01/01/2000,01:43:38.49,13.18,-76.62,-991.37,140.0,-726.25,-358.75,1,94.387,
01/01/2000,01:43:38.50,13.18,-76.74,-991.49,87.50,-577.50,-358.75,1,94.393,
01/01/2000,01:43:38.51,13.18,-76.86,-991.37,96.25,-577.50,-385.0,1,94.398,
01/01/2000,01:43:38.52,13.18,-76.74,-991.49,87.50,-656.25,-288.75,1,94.404,
01/01/2000,01:43:38.54,13.05,-76.62,-991.49,183.75,-638.75,-227.50,1,94.410,
01/01/2000,01:43:38.55,13.05,-76.74,-991.49,78.75,-638.75,-358.75,1,94.416,
01/01/2000,01:43:38.56,13.18,-76.74,-991.37,175.0,-682.50,-376.25,1,94.421,
01/01/2000,01:43:38.57,13.18,-76.98,-991.13,183.75,-665.0,-262.50,1,94.427,
01/01/2000,01:43:38.58,13.18,-76.86,-991.13,227.50,-647.50,-315.0,1,94.433,
01/01/2000,01:43:38.59,12.93,-76.74,-991.62,96.25,-717.50,-428.75,1,94.342,
01/01/2000,01:43:38.60,12.93,-76.62,-991.62,17.50,-603.75,-350.0,1,94.347,
01/01/2000,01:43:38.61,12.93,-76.62,-991.62,192.50,-735.0,-306.25,1,94.353,
01/01/2000,01:43:38.62,12.93,-76.74,-991.37,113.75,-682.50,-315.0,1,94.359,
01/01/2000,01:43:38.63,12.93,-76.86,-991.13,288.75,-717.50,-385.0,1,94.365,
01/01/2000,01:43:38.64,12.93,-76.86,-991.13,78.75,-717.50,-280.0,1,94.371,
01/01/2000,01:43:38.65,12.93,-76.86,-991.25,35.0,-735.0,-376.25,1,94.376,
01/01/2000,01:43:38.66,12.69,-76.86,-991.37,288.75,-717.50,-323.75,1,94.382,
01/01/2000,01:43:38.68,12.81,-76.74,-991.37,43.75,-656.25,-437.50,1,94.388,
01/01/2000,01:43:38.69,12.93,-76.86,-991.37,262.50,-665.0,-323.75,1,94.393,
01/01/2000,01:43:38.70,13.05,-76.86,-991.25,140.0,-595.0,-218.75,1,94.399,
01/01/2000,01:43:38.71,13.18,-76.86,-991.25,105.0,-682.50,-420.0,1,94.405,
01/01/2000,01:43:38.72,12.93,-77.23,-991.37,218.75,-647.50,-236.25,1,94.411,
01/01/2000,01:43:38.73,12.93,-76.86,-991.37,70.0,-665.0,-490.0,1,94.416,
01/01/2000,01:43:38.74,12.93,-76.86,-991.62,350.0,-656.25,-245.0,1,94.422,
01/01/2000,01:43:38.75,13.18,-76.49,-991.62,-52.50,-752.50,-183.75,1,94.428,
01/01/2000,01:43:38.76,13.18,-76.62,-991.49,192.50,-717.50,-376.25,1,94.433,
01/01/2000,01:43:38.77,13.30,-76.86,-991.37,166.25,-700.0,-288.75,1,94.439,
01/01/2000,01:43:38.78,13.42,-76.98,-991.37,148.75,-682.50,-463.75,1,94.444,
01/01/2000,01:43:38.79,13.42,-76.86,-991.37,52.50,-752.50,-288.75,1,94.450,
01/01/2000,01:43:38.80,13.42,-76.62,-991.49,105.0,-533.75,-175.0,1,94.456,
01/01/2000,01:43:38.81,13.05,-76.49,-991.25,218.75,-647.50,-271.25,1,94.366,
01/01/2000,01:43:38.82,13.05,-76.62,-991.25,140.0,-717.50,-280.0,1,94.372,
01/01/2000,01:43:38.83,13.18,-76.74,-991.25,70.0,-735.0,-280.0,1,94.378,
01/01/2000,01:43:38.84,13.18,-76.86,-991.37,157.50,-560.0,-262.50,1,94.383,
01/01/2000,01:43:38.85,13.18,-76.86,-991.37,236.25,-726.25,-411.25,1,94.389,
01/01/2000,01:43:38.86,13.18,-76.62,-991.01,280.0,-673.75,-385.0,1,94.394,
01/01/2000,01:43:38.87,12.93,-76.49,-991.01,201.25,-638.75,-420.0,1,94.400,
01/01/2000,01:43:38.89,12.81,-76.62,-991.25,175.0,-647.50,-402.50,1,94.406,
01/01/2000,01:43:38.90,12.93,-76.62,-991.37,122.50,-743.75,-192.50,1,94.411,
01/01/2000,01:43:38.91,13.18,-76.74,-991.01,35.0,-638.75,-358.75,1,94.417,
01/01/2000,01:43:38.92,13.18,-76.86,-990.76,245.0,-656.25,-385.0,1,94.422,
01/01/2000,01:43:38.93,12.93,-76.86,-990.64,113.75,-813.75,-385.0,1,94.428,
01/01/2000,01:43:38.94,13.05,-76.86,-991.01,140.0,-691.25,-341.25,1,94.433,
01/01/2000,01:43:38.95,13.05,-76.74,-991.37,218.75,-638.75,-271.25,1,94.439,
01/01/2000,01:43:38.96,12.93,-76.74,-991.37,218.75,-638.75,-323.75,1,94.444,
01/01/2000,01:43:38.97,13.05,-76.98,-991.13,271.25,-638.75,-297.50,1,94.450,
01/01/2000,01:43:38.98,13.18,-76.98,-991.01,87.50,-743.75,-288.75,1,94.455,
01/01/2000,01:43:38.99,13.05,-77.10,-991.01,201.25,-656.25,-420.0,1,94.461,
01/01/2000,01:43:39.00,12.81,-77.10,-991.13,175.0,-708.75,-323.75,1,94.466,
01/01/2000,01:43:39.01,12.81,-76.98,-991.13,157.50,-700.0,-350.0,1,94.472,
01/01/2000,01:43:39.03,12.81,-76.74,-991.13,201.25,-752.50,-350.0,1,94.291,
01/01/2000,01:43:39.04,12.93,-76.86,-991.25,236.25,-717.50,-402.50,1,94.297,
01/01/2000,01:43:39.05,13.18,-76.98,-991.37,78.75,-735.0,-341.25,1,94.303,
01/01/2000,01:43:39.06,13.05,-76.86,-991.13,157.50,-752.50,-393.75,1,94.308,
01/01/2000,01:43:39.07,12.93,-76.86,-991.13,262.50,-743.75,-402.50,1,94.314,
01/01/2000,01:43:39.08,13.05,-76.49,-991.13,87.50,-743.75,-315.0,1,94.319,
01/01/2000,01:43:39.10,13.18,-76.37,-991.37,148.75,-630.0,-236.25,1,94.325,
01/01/2000,01:43:39.11,13.18,-76.62,-991.37,70.0,-708.75,-253.75,1,94.330,
01/01/2000,01:43:39.12,13.18,-76.86,-991.13,166.25,-717.50,-341.25,1,94.336,
01/01/2000,01:43:39.13,13.05,-76.74,-991.13,78.75,-682.50,-367.50,1,94.341,
01/01/2000,01:43:39.14,12.93,-76.74,-991.37,253.75,-743.75,-420.0,1,94.347,
01/01/2000,01:43:39.15,13.05,-76.62,-991.62,262.50,-761.25,-315.0,1,94.352,
01/01/2000,01:43:39.16,12.93,-76.74,-991.62,183.75,-735.0,-280.0,1,94.358,
01/01/2000,01:43:39.17,12.93,-76.86,-991.49,271.25,-673.75,-315.0,1,94.363,
01/01/2000,01:43:39.18,13.18,-77.10,-991.25,148.75,-708.75,-350.0,1,94.277,
01/01/2000,01:43:39.19,13.30,-77.23,-991.13,271.25,-682.50,-271.25,1,94.283,
01/01/2000,01:43:39.20,13.30,-77.23,-991.25,253.75,-726.25,-385.0,1,94.288,
01/01/2000,01:43:39.21,13.18,-76.98,-991.37,201.25,-656.25,-393.75,1,94.294,
01/01/2000,01:43:39.22,12.93,-76.86,-991.37,113.75,-708.75,-367.50,1,94.300,
01/01/2000,01:43:39.23,12.93,-76.86,-991.37,183.75,-735.0,-271.25,1,94.305,
01/01/2000,01:43:39.25,12.93,-77.10,-991.37,122.50,-787.50,-376.25,1,94.311,
01/01/2000,01:43:39.26,13.05,-77.23,-991.37,113.75,-673.75,-297.50,1,94.316,
01/01/2000,01:43:39.27,13.05,-77.35,-991.25,166.25,-822.50,-367.50,1,94.321,
01/01/2000,01:43:39.28,13.05,-77.23,-991.13,148.75,-656.25,-236.25,1,94.327,
01/01/2000,01:43:39.29,12.93,-76.98,-991.37,236.25,-516.25,-341.25,1,94.332,
01/01/2000,01:43:39.30,12.93,-76.74,-991.49,122.50,-603.75,-323.75,1,94.338,
01/01/2000,01:43:39.31,12.93,-76.74,-991.37,61.25,-656.25,-367.50,1,94.343,
01/01/2000,01:43:39.32,13.05,-76.98,-991.13,35.0,-621.25,-315.0,1,94.349,
01/01/2000,01:43:39.33,13.18,-77.10,-990.88,105.0,-778.75,-385.0,1,94.354,
01/01/2000,01:43:39.34,13.05,-77.10,-991.25,210.0,-673.75,-297.50,1,94.359,
01/01/2000,01:43:39.35,13.05,-76.86,-991.49,227.50,-621.25,-323.75,1,94.365,
01/01/2000,01:43:39.36,13.05,-76.86,-991.62,166.25,-638.75,-262.50,1,94.370,
01/01/2000,01:43:39.37,13.05,-76.86,-991.62,122.50,-638.75,-297.50,1,94.376,
01/01/2000,01:43:39.38,13.18,-77.10,-991.25,105.0,-656.25,-323.75,1,94.381,
01/01/2000,01:43:39.39,13.18,-77.10,-991.13,166.25,-630.0,-358.75,1,94.297,
01/01/2000,01:43:39.40,13.42,-76.98,-991.37,192.50,-717.50,-271.25,1,94.302,
01/01/2000,01:43:39.42,13.42,-76.74,-991.62,140.0,-787.50,-350.0,1,94.307,
01/01/2000,01:43:39.42,13.30,-76.74,-991.74,131.25,-612.50,-288.75,1,94.313,
01/01/2000,01:43:39.44,13.18,-76.74,-991.62,113.75,-691.25,-315.0,1,94.318,
01/01/2000,01:43:39.44,13.30,-76.98,-991.62,192.50,-778.75,-262.50,1,94.324,
01/01/2000,01:43:39.46,13.54,-76.86,-991.62,210.0,-638.75,-341.25,1,94.329,
01/01/2000,01:43:39.47,13.54,-76.74,-991.49,0.0,-700.0,-411.25,1,94.334,
01/01/2000,01:43:39.48,13.54,-76.74,-991.62,148.75,-805.0,-297.50,1,94.340,
01/01/2000,01:43:39.49,13.30,-76.74,-991.86,96.25,-647.50,-332.50,1,94.345,
01/01/2000,01:43:39.50,13.18,-76.74,-991.86,140.0,-708.75,-297.50,1,94.350,
01/01/2000,01:43:39.51,13.42,-76.86,-991.98,131.25,-673.75,-332.50,1,94.356,
01/01/2000,01:43:39.52,13.42,-76.86,-991.74,113.75,-586.25,-245.0,1,94.361,
01/01/2000,01:43:39.53,13.42,-76.98,-991.62,131.25,-612.50,-332.50,1,94.278,
01/01/2000,01:43:39.54,13.18,-76.86,-991.49,140.0,-647.50,-367.50,1,94.283,
01/01/2000,01:43:39.55,13.05,-76.98,-991.49,166.25,-726.25,-437.50,1,94.288,
01/01/2000,01:43:39.56,13.05,-76.74,-991.74,245.0,-761.25,-288.75,1,94.294,
01/01/2000,01:43:39.57,13.18,-76.62,-991.74,113.75,-700.0,-455.0,1,94.299,
01/01/2000,01:43:39.58,13.30,-76.62,-991.62,192.50,-691.25,-183.75,1,94.304,
01/01/2000,01:43:39.60,13.42,-77.10,-991.37,262.50,-752.50,-332.50,1,94.310,
01/01/2000,01:43:39.61,13.18,-76.86,-991.37,253.75,-726.25,-358.75,1,94.315,
01/01/2000,01:43:39.62,13.42,-76.62,-991.62,245.0,-665.0,-490.0,1,94.320,
01/01/2000,01:43:39.63,13.42,-76.49,-991.74,253.75,-691.25,-245.0,1,94.238,
01/01/2000,01:43:39.64,13.42,-76.49,-991.62,61.25,-586.25,-280.0,1,94.243,
01/01/2000,01:43:39.65,13.30,-76.74,-991.37,192.50,-708.75,-385.0,1,94.249,
01/01/2000,01:43:39.66,13.30,-76.86,-991.13,131.25,-700.0,-385.0,1,94.254,
01/01/2000,01:43:39.67,13.18,-76.74,-991.25,201.25,-647.50,-358.75,1,94.259,
01/01/2000,01:43:39.68,13.30,-76.62,-991.37,87.50,-638.75,-218.75,1,94.265,
01/01/2000,01:43:39.69,13.05,-76.49,-991.49,8.75,-577.50,-297.50,1,94.270,
01/01/2000,01:43:39.70,13.05,-76.49,-991.49,105.0,-630.0,-288.75,1,94.275,
01/01/2000,01:43:39.71,13.18,-76.49,-991.49,148.75,-691.25,-315.0,1,94.280,
01/01/2000,01:43:39.72,13.30,-76.62,-991.37,271.25,-656.25,-367.50,1,94.286,
01/01/2000,01:43:39.73,13.30,-76.74,-991.37,122.50,-656.25,-280.0,1,94.291,
01/01/2000,01:43:39.75,13.18,-76.86,-991.13,236.25,-673.75,-306.25,1,94.296,
01/01/2000,01:43:39.76,12.93,-76.86,-991.25,306.25,-717.50,-341.25,1,94.301,
01/01/2000,01:43:39.77,12.69,-76.74,-991.37,87.50,-691.25,-280.0,1,94.307,
01/01/2000,01:43:39.78,12.69,-76.74,-991.86,148.75,-743.75,-323.75,1,94.312,
01/01/2000,01:43:39.79,13.18,-76.86,-991.74,78.75,-761.25,-306.25,1,94.317,
01/01/2000,01:43:39.80,13.18,-76.98,-991.74,245.0,-551.25,-271.25,1,94.322,
01/01/2000,01:43:39.81,13.18,-77.23,-991.37,140.0,-682.50,-385.0,1,94.328,
01/01/2000,01:43:39.82,12.93,-77.35,-991.62,166.25,-673.75,-350.0,1,94.333,
01/01/2000,01:43:39.83,13.05,-76.98,-991.86,105.0,-665.0,-297.50,1,94.338,
01/01/2000,01:43:39.84,13.05,-76.74,-991.98,96.25,-612.50,-262.50,1,94.343,
01/01/2000,01:43:39.85,13.05,-76.62,-991.86,122.50,-787.50,-376.25,1,94.348,
01/01/2000,01:43:39.86,12.93,-76.74,-991.74,-8.75,-752.50,-245.0,1,94.353,
01/01/2000,01:43:39.87,13.05,-76.86,-991.62,218.75,-857.50,-393.75,1,94.359,
01/01/2000,01:43:39.88,13.18,-76.98,-991.86,96.25,-682.50,-411.25,1,94.278,
01/01/2000,01:43:39.89,13.05,-76.86,-991.98,140.0,-630.0,-288.75,1,94.283,
01/01/2000,01:43:39.90,13.05,-76.62,-991.86,96.25,-656.25,-245.0,1,94.288,
01/01/2000,01:43:39.91,13.05,-76.86,-991.74,105.0,-673.75,-297.50,1,94.293,
01/01/2000,01:43:39.92,13.05,-76.86,-991.74,166.25,-761.25,-446.25,1,94.299,
01/01/2000,01:43:39.93,12.93,-77.10,-991.74,122.50,-735.0,-393.75,1,94.304,
01/01/2000,01:43:39.94,12.81,-77.10,-991.62,201.25,-708.75,-297.50,1,94.309,
01/01/2000,01:43:39.96,12.57,-76.86,-991.74,96.25,-647.50,-341.25,1,94.314,
01/01/2000,01:43:39.97,12.69,-76.86,-991.62,175.0,-691.25,-411.25,1,94.319,
01/01/2000,01:43:39.98,12.69,-76.86,-991.62,175.0,-586.25,-306.25,1,94.324,
01/01/2000,01:43:39.99,12.81,-76.86,-991.37,148.75,-726.25,-315.0,1,94.329,
01/01/2000,01:43:40.00,12.93,-77.10,-991.25,315.0,-691.25,-385.0,1,94.335,
01/01/2000,01:43:40.01,13.05,-77.10,-991.13,87.50,-708.75,-341.25,1,94.340,
01/01/2000,01:43:40.02,12.93,-76.98,-991.25,192.50,-577.50,-376.25,1,94.345,
01/01/2000,01:43:40.03,12.93,-76.86,-991.37,175.0,-805.0,-262.50,1,94.350,
01/01/2000,01:43:40.04,13.18,-76.86,-991.62,87.50,-726.25,-393.75,1,94.355,
01/01/2000,01:43:40.05,13.42,-76.86,-991.37,148.75,-708.75,-350.0,1,94.360,
01/01/2000,01:43:40.06,13.18,-77.23,-991.37,280.0,-603.75,-437.50,1,94.365,
01/01/2000,01:43:40.07,13.30,-77.23,-991.37,183.75,-673.75,-393.75,1,94.370,
01/01/2000,01:43:40.08,13.18,-77.10,-991.49,297.50,-665.0,-376.25,1,94.375,
01/01/2000,01:43:40.09,13.05,-76.86,-991.86,218.75,-708.75,-376.25,1,94.296,
01/01/2000,01:43:40.10,13.05,-76.74,-991.86,148.75,-743.75,-288.75,1,94.301,
01/01/2000,01:43:40.12,13.05,-76.86,-991.62,271.25,-673.75,-280.0,1,94.306,
01/01/2000,01:43:40.13,13.18,-77.10,-991.37,131.25,-743.75,-332.50,1,94.311,
01/01/2000,01:43:40.14,13.18,-77.10,-991.62,17.50,-691.25,-498.75,1,94.316,
01/01/2000,01:43:40.15,13.30,-76.86,-991.62,148.75,-621.25,-245.0,1,94.321,
01/01/2000,01:43:40.16,13.18,-76.74,-991.62,218.75,-612.50,-341.25,1,94.326,
01/01/2000,01:43:40.17,13.05,-76.74,-991.49,262.50,-630.0,-262.50,1,94.331,
01/01/2000,01:43:40.18,13.05,-76.98,-991.37,157.50,-735.0,-385.0,1,94.253,
01/01/2000,01:43:40.19,13.30,-77.10,-991.49,96.25,-691.25,-385.0,1,94.341,
01/01/2000,01:43:40.20,13.30,-77.10,-991.37,113.75,-717.50,-367.50,1,94.263,
01/01/2000,01:43:40.21,13.18,-76.98,-991.37,131.25,-665.0,-376.25,1,94.351,
01/01/2000,01:43:40.22,13.05,-76.86,-991.37,52.50,-656.25,-385.0,1,94.273,
01/01/2000,01:43:40.23,13.18,-76.86,-991.62,175.0,-752.50,-323.75,1,94.278,
01/01/2000,01:43:40.24,13.18,-76.86,-991.86,262.50,-595.0,-297.50,1,94.283,
01/01/2000,01:43:40.25,13.18,-76.98,-991.86,140.0,-647.50,-262.50,1,94.288,
01/01/2000,01:43:40.26,13.30,-76.98,-991.62,332.50,-708.75,-367.50,1,94.293,
01/01/2000,01:43:40.27,13.18,-76.86,-991.49,78.75,-796.25,-323.75,1,94.298,
01/01/2000,01:43:40.28,13.18,-76.62,-991.62,131.25,-770.0,-393.75,1,94.303,
01/01/2000,01:43:40.29,13.18,-76.49,-991.74,227.50,-630.0,-315.0,1,94.308,
01/01/2000,01:43:40.30,13.18,-76.49,-991.62,61.25,-822.50,-280.0,1,94.313,
01/01/2000,01:43:40.31,13.05,-76.74,-991.62,140.0,-673.75,-262.50,1,94.318,
01/01/2000,01:43:40.33,12.93,-77.23,-991.62,157.50,-656.25,-332.50,1,94.323,
01/01/2000,01:43:40.33,12.93,-77.10,-991.62,280.0,-638.75,-358.75,1,94.328,
01/01/2000,01:43:40.35,13.18,-76.86,-991.62,201.25,-831.25,-402.50,1,94.333,
01/01/2000,01:43:40.36,13.18,-76.62,-991.62,105.0,-691.25,-402.50,1,94.338,
01/01/2000,01:43:40.37,12.93,-76.62,-991.62,113.75,-831.25,-271.25,1,94.343,
01/01/2000,01:43:40.38,12.93,-77.10,-991.86,297.50,-612.50,-385.0,1,94.348,
01/01/2000,01:43:40.39,12.93,-77.10,-991.98,140.0,-813.75,-446.25,1,94.353,
01/01/2000,01:43:40.40,13.18,-76.86,-992.10,201.25,-700.0,-385.0,1,94.358,
01/01/2000,01:43:40.41,13.42,-76.62,-991.86,113.75,-682.50,-245.0,1,94.363,
01/01/2000,01:43:40.42,13.42,-76.74,-991.62,175.0,-700.0,-376.25,1,94.367,
01/01/2000,01:43:40.43,13.05,-76.98,-991.49,166.25,-647.50,-367.50,1,94.372,
01/01/2000,01:43:40.44,12.93,-77.10,-992.10,262.50,-665.0,-498.75,1,94.296,
01/01/2000,01:43:40.45,13.18,-76.86,-992.35,131.25,-638.75,-227.50,1,94.301,
01/01/2000,01:43:40.46,13.30,-76.62,-992.10,61.25,-708.75,-402.50,1,94.305,
01/01/2000,01:43:40.47,13.42,-76.62,-991.86,192.50,-673.75,-271.25,1,94.310,
01/01/2000,01:43:40.48,13.18,-77.10,-991.62,52.50,-735.0,-332.50,1,94.315,
01/01/2000,01:43:40.49,13.18,-77.23,-991.74,350.0,-691.25,-525.0,1,94.320,
01/01/2000,01:43:40.50,13.30,-77.10,-991.86,253.75,-621.25,-402.50,1,94.325,
01/01/2000,01:43:40.52,13.18,-76.62,-991.74,157.50,-621.25,-437.50,1,94.330,
01/01/2000,01:43:40.53,13.18,-76.49,-991.49,131.25,-638.75,-201.25,1,94.335,
01/01/2000,01:43:40.54,13.05,-76.62,-991.25,183.75,-673.75,-288.75,1,94.340,
01/01/2000,01:43:40.55,13.42,-76.98,-991.49,166.25,-761.25,-367.50,1,94.344,
01/01/2000,01:43:40.56,13.54,-77.23,-991.62,148.75,-770.0,-332.50,1,94.349,
01/01/2000,01:43:40.57,13.42,-77.10,-991.49,218.75,-743.75,-420.0,1,94.354,
01/01/2000,01:43:40.58,13.18,-76.49,-991.01,183.75,-708.75,-446.25,1,94.359,
01/01/2000,01:43:40.59,13.18,-76.37,-990.88,157.50,-673.75,-192.50,1,94.364,
01/01/2000,01:43:40.60,13.30,-76.49,-991.25,227.50,-612.50,-253.75,1,94.369,
01/01/2000,01:43:40.61,13.54,-76.86,-991.62,183.75,-673.75,-446.25,1,94.373,
01/01/2000,01:43:40.62,13.42,-77.10,-991.37,227.50,-621.25,-385.0,1,94.298,
01/01/2000,01:43:40.64,13.30,-77.10,-991.25,236.25,-752.50,-315.0,1,94.303,
01/01/2000,01:43:40.65,13.42,-76.86,-991.37,183.75,-735.0,-385.0,1,94.308,
01/01/2000,01:43:40.66,13.42,-76.74,-991.62,157.50,-647.50,-245.0,1,94.312,
01/01/2000,01:43:40.67,13.42,-76.62,-991.74,96.25,-586.25,-393.75,1,94.317,
01/01/2000,01:43:40.68,13.18,-76.86,-991.37,96.25,-700.0,-315.0,1,94.322,
01/01/2000,01:43:40.69,13.18,-76.98,-991.13,105.0,-673.75,-490.0,1,94.327,
01/01/2000,01:43:40.70,12.93,-76.86,-991.37,183.75,-708.75,-411.25,1,94.332,
01/01/2000,01:43:40.71,13.05,-76.86,-991.62,166.25,-656.25,-376.25,1,94.336,
01/01/2000,01:43:40.72,13.18,-76.62,-991.86,78.75,-717.50,-297.50,1,94.341,
01/01/2000,01:43:40.73,13.18,-76.86,-991.86,420.0,-665.0,-350.0,1,94.346,
01/01/2000,01:43:40.74,13.30,-76.74,-991.62,17.50,-665.0,-358.75,1,94.351,
01/01/2000,01:43:40.75,13.42,-77.10,-991.37,271.25,-708.75,-306.25,1,94.356,
01/01/2000,01:43:40.76,13.54,-76.98,-991.25,271.25,-743.75,-236.25,1,94.360,
01/01/2000,01:43:40.77,13.18,-76.86,-991.37,140.0,-673.75,-385.0,1,94.365,
01/01/2000,01:43:40.78,12.93,-76.98,-991.37,271.25,-743.75,-315.0,1,94.370,
01/01/2000,01:43:40.79,12.93,-76.49,-991.62,140.0,-761.25,-183.75,1,94.295,
01/01/2000,01:43:40.80,13.18,-76.37,-991.62,140.0,-665.0,-245.0,1,94.300,
01/01/2000,01:43:40.81,13.18,-76.62,-991.37,122.50,-621.25,-280.0,1,94.305,
01/01/2000,01:43:40.82,13.18,-77.10,-990.88,96.25,-743.75,-437.50,1,94.310,
01/01/2000,01:43:40.83,13.18,-77.10,-990.88,288.75,-700.0,-420.0,1,94.314,
01/01/2000,01:43:40.84,12.93,-76.86,-991.13,52.50,-665.0,-420.0,1,94.319,
01/01/2000,01:43:40.85,12.81,-76.62,-991.37,236.25,-638.75,-358.75,1,94.324,
01/01/2000,01:43:40.87,12.93,-76.37,-991.62,0.0,-638.75,-175.0,1,94.329,
01/01/2000,01:43:40.88,12.93,-76.74,-991.37,148.75,-691.25,-315.0,1,94.333,
01/01/2000,01:43:40.89,13.05,-77.10,-991.13,218.75,-656.25,-385.0,1,94.338,
01/01/2000,01:43:40.90,13.30,-77.23,-991.01,113.75,-682.50,-236.25,1,94.343,
01/01/2000,01:43:40.91,13.18,-77.10,-991.13,227.50,-708.75,-350.0,1,94.347,
01/01/2000,01:43:40.92,12.93,-76.86,-991.37,131.25,-682.50,-183.75,1,94.352,
01/01/2000,01:43:40.93,12.81,-76.62,-991.49,157.50,-647.50,-341.25,1,94.357,
01/01/2000,01:43:40.94,12.81,-76.49,-991.13,96.25,-665.0,-262.50,1,94.362,
01/01/2000,01:43:40.95,12.93,-76.86,-991.13,218.75,-726.25,-367.50,1,94.366,
01/01/2000,01:43:40.96,13.18,-77.10,-991.13,148.75,-726.25,-376.25,1,94.371,
01/01/2000,01:43:40.97,13.18,-77.10,-991.13,113.75,-647.50,-411.25,1,94.376,
01/01/2000,01:43:40.98,13.18,-77.10,-991.37,96.25,-673.75,-481.25,1,94.380,
01/01/2000,01:43:40.99,12.93,-76.86,-991.49,43.75,-603.75,-367.50,1,94.385,
01/01/2000,01:43:41.00,12.81,-76.37,-991.13,218.75,-621.25,-332.50,1,94.312,
01/01/2000,01:43:41.02,12.93,-76.62,-990.88,122.50,-682.50,-315.0,1,94.316,
01/01/2000,01:43:41.02,13.05,-76.98,-991.01,0.0,-726.25,-288.75,1,94.321,
01/01/2000,01:43:41.04,13.05,-77.35,-991.25,218.75,-577.50,-455.0,1,94.326,
01/01/2000,01:43:41.05,13.05,-77.35,-991.49,105.0,-621.25,-411.25,1,94.330,
01/01/2000,01:43:41.06,12.93,-76.98,-991.49,148.75,-612.50,-420.0,1,94.335,
01/01/2000,01:43:41.07,12.69,-76.49,-991.37,245.0,-586.25,-315.0,1,94.340,
01/01/2000,01:43:41.08,13.05,-76.37,-991.13,210.0,-708.75,-315.0,1,94.344,
01/01/2000,01:43:41.09,13.18,-76.62,-991.25,183.75,-735.0,-253.75,1,94.349,
01/01/2000,01:43:41.10,13.42,-76.98,-991.37,210.0,-682.50,-280.0,1,94.354,
01/01/2000,01:43:41.11,13.42,-77.35,-991.49,105.0,-700.0,-428.75,1,94.358,
01/01/2000,01:43:41.12,13.18,-77.10,-991.49,280.0,-708.75,-455.0,1,94.363,
01/01/2000,01:43:41.13,13.30,-76.49,-991.37,8.75,-700.0,-367.50,1,94.290,
01/01/2000,01:43:41.14,13.30,-76.37,-991.13,140.0,-691.25,-236.25,1,94.295,
01/01/2000,01:43:41.16,13.18,-76.62,-991.01,26.25,-682.50,-218.75,1,94.300,
01/01/2000,01:43:41.17,13.30,-76.86,-990.88,236.25,-682.50,-376.25,1,94.304,
01/01/2000,01:43:41.18,13.30,-77.10,-991.13,35.0,-673.75,-332.50,1,94.309,
01/01/2000,01:43:41.19,13.30,-77.10,-991.13,157.50,-743.75,-446.25,1,94.314,
01/01/2000,01:43:41.20,13.42,-76.74,-991.13,96.25,-787.50,-420.0,1,94.318,
01/01/2000,01:43:41.21,13.18,-76.49,-991.13,271.25,-726.25,-245.0,1,94.323,
01/01/2000,01:43:41.22,13.18,-76.62,-991.01,148.75,-700.0,-385.0,1,94.327,
01/01/2000,01:43:41.23,13.18,-76.86,-991.13,113.75,-743.75,-455.0,1,94.332,
01/01/2000,01:43:41.24,13.30,-77.10,-991.13,166.25,-665.0,-420.0,1,94.337,
01/01/2000,01:43:41.25,13.42,-76.98,-991.25,210.0,-726.25,-402.50,1,94.341,
01/01/2000,01:43:41.26,13.18,-76.86,-991.13,148.75,-735.0,-437.50,1,94.346,
01/01/2000,01:43:41.27,13.30,-76.62,-990.88,122.50,-726.25,-262.50,1,94.350,
01/01/2000,01:43:41.28,13.18,-76.62,-991.01,148.75,-717.50,-306.25,1,94.355,
01/01/2000,01:43:41.29,13.18,-76.62,-991.13,105.0,-586.25,-350.0,1,94.359,
01/01/2000,01:43:41.30,13.18,-76.86,-991.01,140.0,-682.50,-402.50,1,94.364,
01/01/2000,01:43:41.31,13.18,-76.74,-990.88,131.25,-717.50,-332.50,1,94.368,
01/01/2000,01:43:41.32,13.30,-76.62,-990.76,245.0,-691.25,-358.75,1,94.373,
01/01/2000,01:43:41.33,13.18,-76.86,-990.88,245.0,-630.0,-306.25,1,94.378,
01/01/2000,01:43:41.34,13.18,-76.86,-991.01,131.25,-708.75,-288.75,1,94.382,
01/01/2000,01:43:41.35,13.05,-76.98,-991.13,315.0,-708.75,-315.0,1,94.387,
01/01/2000,01:43:41.36,12.93,-76.74,-991.13,148.75,-673.75,-280.0,1,94.315,
01/01/2000,01:43:41.37,12.93,-76.49,-991.01,157.50,-682.50,-280.0,1,94.320,
01/01/2000,01:43:41.38,12.93,-76.62,-991.01,113.75,-770.0,-271.25,1,94.325,
01/01/2000,01:43:41.39,13.05,-76.62,-991.13,271.25,-586.25,-323.75,1,94.329,
01/01/2000,01:43:41.40,13.05,-76.86,-991.13,87.50,-638.75,-376.25,1,94.334,
01/01/2000,01:43:41.41,13.18,-76.98,-991.01,288.75,-726.25,-332.50,1,94.338,
01/01/2000,01:43:41.43,12.93,-76.74,-990.88,131.25,-752.50,-376.25,1,94.343,
01/01/2000,01:43:41.44,12.93,-76.62,-990.88,218.75,-630.0,-306.25,1,94.347,
01/01/2000,01:43:41.45,12.93,-76.62,-991.13,183.75,-647.50,-297.50,1,94.352,
01/01/2000,01:43:41.46,12.93,-76.98,-991.25,113.75,-638.75,-385.0,1,94.356,
01/01/2000,01:43:41.47,12.93,-77.10,-991.25,113.75,-621.25,-288.75,1,94.361,
01/01/2000,01:43:41.48,13.05,-76.86,-991.13,140.0,-708.75,-411.25,1,94.365,
01/01/2000,01:43:41.49,12.93,-76.86,-991.13,210.0,-813.75,-402.50,1,94.370,
01/01/2000,01:43:41.50,12.93,-76.62,-991.13,61.25,-717.50,-323.75,1,94.374,
01/01/2000,01:43:41.51,12.93,-76.74,-991.13,148.75,-717.50,-262.50,1,94.378,
01/01/2000,01:43:41.52,12.93,-76.62,-991.13,306.25,-551.25,-315.0,1,94.383,
01/01/2000,01:43:41.53,12.93,-76.62,-991.13,26.25,-560.0,-253.75,1,94.387,
01/01/2000,01:43:41.54,13.05,-76.74,-990.88,245.0,-638.75,-481.25,1,94.392,
01/01/2000,01:43:41.55,13.05,-76.62,-990.64,87.50,-665.0,-253.75,1,94.396,
01/01/2000,01:43:41.56,13.05,-76.62,-990.64,236.25,-717.50,-376.25,1,94.401,
01/01/2000,01:43:41.57,13.18,-76.74,-990.88,236.25,-726.25,-332.50,1,94.331,
01/01/2000,01:43:41.58,13.18,-76.74,-991.13,218.75,-708.75,-210.0,1,94.335,
01/01/2000,01:43:41.59,13.30,-76.86,-991.13,43.75,-691.25,-420.0,1,94.340,
01/01/2000,01:43:41.60,13.30,-76.86,-991.01,148.75,-796.25,-183.75,1,94.344,
01/01/2000,01:43:41.61,13.18,-76.74,-990.88,113.75,-708.75,-393.75,1,94.349,
01/01/2000,01:43:41.62,13.05,-76.86,-990.88,280.0,-743.75,-306.25,1,94.353,
01/01/2000,01:43:41.64,13.05,-76.86,-991.13,253.75,-735.0,-323.75,1,94.283,
01/01/2000,01:43:41.65,13.30,-76.74,-991.13,61.25,-813.75,-297.50,1,94.288,
01/01/2000,01:43:41.66,13.18,-76.86,-991.13,385.0,-665.0,-402.50,1,94.292,
01/01/2000,01:43:41.67,12.93,-76.74,-991.13,78.75,-761.25,-350.0,1,94.297,
01/01/2000,01:43:41.68,12.93,-76.86,-991.25,262.50,-700.0,-481.25,1,94.301,
01/01/2000,01:43:41.69,13.18,-76.74,-991.37,218.75,-761.25,-297.50,1,94.306,
01/01/2000,01:43:41.70,13.30,-76.62,-991.37,157.50,-700.0,-411.25,1,94.310,
01/01/2000,01:43:41.71,13.05,-76.86,-991.25,183.75,-507.50,-183.75,1,94.315,
01/01/2000,01:43:41.73,13.05,-76.74,-991.13,262.50,-647.50,-332.50,1,94.319,
01/01/2000,01:43:41.74,13.18,-76.74,-991.13,288.75,-673.75,-288.75,1,94.323,
01/01/2000,01:43:41.75,13.18,-76.86,-991.25,52.50,-673.75,-262.50,1,94.328,
01/01/2000,01:43:41.76,13.30,-76.86,-991.37,227.50,-848.75,-323.75,1,94.332,
01/01/2000,01:43:41.77,13.18,-77.10,-991.37,131.25,-778.75,-262.50,1,94.337,
01/01/2000,01:43:41.78,13.05,-77.23,-991.37,157.50,-612.50,-332.50,1,94.341,
01/01/2000,01:43:41.79,13.05,-77.23,-991.37,140.0,-665.0,-402.50,1,94.345,
01/01/2000,01:43:41.80,13.18,-76.86,-991.37,140.0,-630.0,-367.50,1,94.350,
01/01/2000,01:43:41.81,13.30,-76.86,-991.37,140.0,-673.75,-306.25,1,94.354,
01/01/2000,01:43:41.82,13.18,-76.74,-991.25,183.75,-603.75,-218.75,1,94.359,
01/01/2000,01:43:41.83,13.05,-76.86,-991.25,166.25,-770.0,-437.50,1,94.363,
01/01/2000,01:43:41.84,13.05,-76.86,-991.25,105.0,-752.50,-306.25,1,94.367,
01/01/2000,01:43:41.85,12.93,-76.74,-991.37,113.75,-726.25,-306.25,1,94.372,
01/01/2000,01:43:41.86,12.93,-76.74,-991.37,245.0,-770.0,-385.0,1,94.376,
01/01/2000,01:43:41.87,12.93,-76.86,-991.13,131.25,-595.0,-332.50,1,94.380,
01/01/2000,01:43:41.88,12.93,-76.86,-991.13,113.75,-647.50,-393.75,1,94.385,
01/01/2000,01:43:41.89,12.93,-76.98,-991.13,210.0,-700.0,-280.0,1,94.389,
01/01/2000,01:43:41.90,12.93,-76.98,-991.25,61.25,-717.50,-341.25,1,94.393,
01/01/2000,01:43:41.91,12.93,-76.98,-991.37,192.50,-691.25,-411.25,1,94.398,
01/01/2000,01:43:41.93,12.93,-76.98,-991.13,245.0,-682.50,-393.75,1,94.329,
01/01/2000,01:43:41.94,12.93,-76.98,-991.13,218.75,-673.75,-280.0,1,94.334,
01/01/2000,01:43:41.95,13.05,-76.86,-991.13,140.0,-708.75,-332.50,1,94.338,
01/01/2000,01:43:41.96,13.18,-76.98,-991.25,236.25,-743.75,-358.75,1,94.343,
01/01/2000,01:43:41.97,13.30,-76.98,-991.13,210.0,-708.75,-341.25,1,94.347,
01/01/2000,01:43:41.98,13.30,-77.10,-991.13,113.75,-621.25,-306.25,1,94.351,
01/01/2000,01:43:41.99,13.18,-77.10,-991.37,183.75,-673.75,-271.25,1,94.355,
01/01/2000,01:43:42.00,13.30,-77.10,-991.49,175.0,-735.0,-288.75,1,94.360,
01/01/2000,01:43:42.01,13.30,-76.86,-991.49,175.0,-726.25,-385.0,1,94.364,
01/01/2000,01:43:42.02,13.18,-77.10,-991.37,227.50,-595.0,-236.25,1,94.368,
01/01/2000,01:43:42.03,13.18,-76.98,-991.13,201.25,-621.25,-341.25,1,94.301,
01/01/2000,01:43:42.04,13.05,-77.23,-991.01,157.50,-621.25,-367.50,1,94.377,
01/01/2000,01:43:42.05,13.18,-77.10,-991.01,122.50,-717.50,-227.50,1,94.310,
01/01/2000,01:43:42.07,13.18,-76.98,-991.37,78.75,-752.50,-350.0,1,94.314,
01/01/2000,01:43:42.08,12.93,-77.10,-991.49,43.75,-638.75,-262.50,1,94.318,
01/01/2000,01:43:42.09,12.93,-76.98,-991.49,183.75,-621.25,-420.0,1,94.322,
01/01/2000,01:43:42.10,12.93,-76.98,-991.37,148.75,-682.50,-411.25,1,94.327,
01/01/2000,01:43:42.11,13.05,-76.86,-991.13,157.50,-752.50,-183.75,1,94.331,
01/01/2000,01:43:42.12,13.18,-77.10,-991.01,175.0,-700.0,-376.25,1,94.335,
01/01/2000,01:43:42.13,12.93,-77.23,-991.13,148.75,-717.50,-376.25,1,94.340,
01/01/2000,01:43:42.14,13.18,-77.10,-991.49,236.25,-665.0,-367.50,1,94.344,
01/01/2000,01:43:42.15,13.18,-76.74,-991.86,192.50,-743.75,-376.25,1,94.277,
01/01/2000,01:43:42.17,13.18,-76.49,-991.49,157.50,-735.0,-385.0,1,94.281,
01/01/2000,01:43:42.17,13.05,-76.62,-991.25,183.75,-673.75,-297.50,1,94.286,
01/01/2000,01:43:42.19,12.93,-76.74,-991.13,70.0,-603.75,-428.75,1,94.290,
01/01/2000,01:43:42.20,12.93,-76.86,-991.13,218.75,-761.25,-367.50,1,94.294,
01/01/2000,01:43:42.21,13.18,-76.62,-991.37,96.25,-665.0,-341.25,1,94.299,
01/01/2000,01:43:42.22,13.18,-76.62,-991.25,201.25,-665.0,-236.25,1,94.303,
01/01/2000,01:43:42.23,13.18,-76.62,-991.13,201.25,-577.50,-367.50,1,94.307,
01/01/2000,01:43:42.24,13.18,-76.74,-991.25,105.0,-586.25,-297.50,1,94.311,
01/01/2000,01:43:42.25,13.30,-76.86,-991.37,148.75,-673.75,-297.50,1,94.316,
01/01/2000,01:43:42.26,13.18,-76.86,-991.13,306.25,-735.0,-428.75,1,94.320,
01/01/2000,01:43:42.27,13.18,-76.74,-991.13,140.0,-735.0,-280.0,1,94.324,
01/01/2000,01:43:42.28,13.18,-76.49,-990.88,148.75,-542.50,-358.75,1,94.328,
01/01/2000,01:43:42.29,12.93,-76.49,-990.88,201.25,-682.50,-376.25,1,94.333,
01/01/2000,01:43:42.30,13.05,-76.62,-991.01,105.0,-691.25,-297.50,1,94.337,
01/01/2000,01:43:42.31,13.18,-76.86,-991.13,78.75,-761.25,-385.0,1,94.341,
01/01/2000,01:43:42.32,13.18,-77.10,-991.13,280.0,-875.0,-376.25,1,94.345,
01/01/2000,01:43:42.33,13.05,-76.86,-991.01,175.0,-647.50,-385.0,1,94.349,
01/01/2000,01:43:42.34,12.93,-76.62,-990.88,210.0,-700.0,-306.25,1,94.354,
01/01/2000,01:43:42.35,12.93,-76.25,-991.13,140.0,-717.50,-175.0,1,94.358,
01/01/2000,01:43:42.36,13.18,-76.37,-991.13,113.75,-717.50,-393.75,1,94.362,
01/01/2000,01:43:42.37,13.18,-76.62,-991.13,192.50,-665.0,-262.50,1,94.366,
01/01/2000,01:43:42.38,13.18,-76.86,-991.01,183.75,-682.50,-385.0,1,94.301,
01/01/2000,01:43:42.39,13.18,-76.86,-991.13,148.75,-752.50,-385.0,1,94.305,
01/01/2000,01:43:42.40,13.18,-76.62,-991.37,131.25,-595.0,-297.50,1,94.309,
01/01/2000,01:43:42.42,13.05,-76.62,-991.49,175.0,-673.75,-376.25,1,94.313,
01/01/2000,01:43:42.43,12.81,-76.49,-991.49,245.0,-700.0,-253.75,1,94.317,
01/01/2000,01:43:42.44,12.81,-76.62,-991.37,175.0,-735.0,-428.75,1,94.322,
01/01/2000,01:43:42.45,12.93,-76.74,-991.13,131.25,-743.75,-297.50,1,94.326,
01/01/2000,01:43:42.46,12.93,-76.74,-991.13,140.0,-708.75,-332.50,1,94.330,
01/01/2000,01:43:42.47,12.81,-76.86,-991.37,8.75,-656.25,-350.0,1,94.334,
01/01/2000,01:43:42.48,12.81,-76.74,-991.37,113.75,-708.75,-341.25,1,94.338,
01/01/2000,01:43:42.49,12.93,-76.62,-991.49,210.0,-638.75,-376.25,1,94.342,
01/01/2000,01:43:42.50,12.93,-76.62,-991.49,166.25,-665.0,-271.25,1,94.347,
01/01/2000,01:43:42.51,12.93,-76.86,-991.49,227.50,-708.75,-306.25,1,94.351,
01/01/2000,01:43:42.52,13.18,-76.62,-991.13,87.50,-708.75,-463.75,1,94.355,
01/01/2000,01:43:42.53,13.05,-76.86,-991.01,253.75,-708.75,-218.75,1,94.359,
01/01/2000,01:43:42.54,12.81,-76.98,-991.01,140.0,-595.0,-411.25,1,94.363,
01/01/2000,01:43:42.55,12.44,-76.98,-991.37,253.75,-665.0,-463.75,1,94.367,
01/01/2000,01:43:42.56,12.81,-76.62,-991.49,253.75,-708.75,-297.50,1,94.302,
01/01/2000,01:43:42.57,13.18,-76.49,-991.49,105.0,-700.0,-218.75,1,94.307,
01/01/2000,01:43:42.58,13.18,-76.86,-991.25,61.25,-726.25,-306.25,1,94.311,
01/01/2000,01:43:42.59,12.93,-77.10,-991.25,140.0,-735.0,-411.25,1,94.315,
01/01/2000,01:43:42.60,12.81,-77.10,-991.37,96.25,-682.50,-271.25,1,94.319,
01/01/2000,01:43:42.61,12.93,-76.62,-991.37,288.75,-673.75,-288.75,1,94.323,
01/01/2000,01:43:42.63,12.93,-76.13,-991.49,105.0,-647.50,-428.75,1,94.327,
01/01/2000,01:43:42.64,13.05,-76.37,-991.13,201.25,-708.75,-306.25,1,94.331,
01/01/2000,01:43:42.65,12.93,-76.62,-991.13,113.75,-717.50,-227.50,1,94.336,
01/01/2000,01:43:42.67,13.18,-76.86,-991.49,122.50,-612.50,-385.0,1,94.271,
01/01/2000,01:43:42.68,13.18,-76.86,-991.62,253.75,-787.50,-385.0,1,94.275,
01/01/2000,01:43:42.69,13.42,-76.49,-991.49,157.50,-656.25,-271.25,1,94.280,
01/01/2000,01:43:42.70,13.18,-76.49,-991.13,271.25,-638.75,-402.50,1,94.284,
01/01/2000,01:43:42.71,13.18,-76.62,-991.13,113.75,-647.50,-271.25,1,94.288,
01/01/2000,01:43:42.72,13.30,-76.98,-991.25,157.50,-560.0,-411.25,1,94.292,
01/01/2000,01:43:42.73,13.30,-77.10,-991.13,78.75,-813.75,-253.75,1,94.296,
01/01/2000,01:43:42.74,13.18,-76.86,-991.01,236.25,-691.25,-350.0,1,94.300,
01/01/2000,01:43:42.75,13.05,-76.62,-990.88,140.0,-665.0,-332.50,1,94.304,
01/01/2000,01:43:42.76,13.05,-76.62,-990.64,140.0,-700.0,-271.25,1,94.308,
01/01/2000,01:43:42.77,13.18,-76.62,-990.88,78.75,-647.50,-402.50,1,94.312,
01/01/2000,01:43:42.78,13.18,-76.98,-991.25,192.50,-665.0,-385.0,1,94.317,
01/01/2000,01:43:42.79,13.18,-76.86,-991.25,122.50,-735.0,-420.0,1,94.321,
01/01/2000,01:43:42.80,13.18,-76.98,-990.88,271.25,-708.75,-402.50,1,94.325,
01/01/2000,01:43:42.81,12.93,-76.86,-990.64,148.75,-682.50,-376.25,1,94.329,
01/01/2000,01:43:42.82,12.93,-76.86,-990.88,332.50,-603.75,-332.50,1,94.333,
01/01/2000,01:43:42.83,13.05,-76.74,-991.13,26.25,-638.75,-288.75,1,94.337,
01/01/2000,01:43:42.84,13.18,-76.86,-991.13,210.0,-708.75,-420.0,1,94.273,
01/01/2000,01:43:42.85,13.18,-77.10,-990.88,-70.0,-656.25,-376.25,1,94.278,
01/01/2000,01:43:42.86,13.05,-77.10,-990.52,175.0,-673.75,-376.25,1,94.282,
01/01/2000,01:43:42.87,13.18,-76.98,-990.64,210.0,-630.0,-411.25,1,94.286,
01/01/2000,01:43:42.88,13.18,-76.98,-990.88,166.25,-813.75,-385.0,1,94.290,
01/01/2000,01:43:42.89,13.30,-76.86,-991.01,288.75,-621.25,-367.50,1,94.294,
01/01/2000,01:43:42.90,13.18,-76.86,-991.01,227.50,-735.0,-236.25,1,94.298,
01/01/2000,01:43:42.92,13.18,-76.86,-990.76,148.75,-761.25,-297.50,1,94.302,
01/01/2000,01:43:42.93,13.18,-76.86,-990.64,148.75,-796.25,-402.50,1,94.306,
01/01/2000,01:43:42.94,13.42,-76.74,-990.76,52.50,-778.75,-428.75,1,94.310,
01/01/2000,01:43:42.95,13.42,-76.86,-990.88,280.0,-673.75,-315.0,1,94.314,
01/01/2000,01:43:42.96,13.30,-76.86,-990.88,157.50,-691.25,-332.50,1,94.318,
01/01/2000,01:43:42.97,13.18,-76.62,-990.88,288.75,-603.75,-332.50,1,94.322,
01/01/2000,01:43:42.98,13.18,-76.49,-990.76,131.25,-638.75,-253.75,1,94.326,
01/01/2000,01:43:42.99,13.30,-76.62,-990.88,87.50,-656.25,-262.50,1,94.330,
01/01/2000,01:43:43.00,13.18,-76.86,-991.13,70.0,-682.50,-437.50,1,94.334,
01/01/2000,01:43:43.01,13.18,-76.86,-991.13,61.25,-752.50,-315.0,1,94.338,
01/01/2000,01:43:43.02,12.93,-76.86,-990.88,218.75,-603.75,-402.50,1,94.342,
01/01/2000,01:43:43.03,13.05,-76.62,-990.88,70.0,-665.0,-288.75,1,94.346,
01/01/2000,01:43:43.04,13.18,-76.37,-991.01,78.75,-752.50,-315.0,1,94.350,
01/01/2000,01:43:43.05,13.42,-76.49,-990.88,17.50,-612.50,-245.0,1,94.288,
01/01/2000,01:43:43.06,13.30,-76.86,-990.76,105.0,-726.25,-332.50,1,94.292,
01/01/2000,01:43:43.08,13.18,-76.98,-990.76,376.25,-770.0,-332.50,1,94.296,
01/01/2000,01:43:43.08,13.18,-76.86,-991.01,52.50,-805.0,-428.75,1,94.300,
01/01/2000,01:43:43.10,13.18,-76.62,-991.25,148.75,-770.0,-288.75,1,94.304,
01/01/2000,01:43:43.11,13.18,-76.49,-991.25,175.0,-752.50,-428.75,1,94.308,
01/01/2000,01:43:43.12,12.93,-76.62,-991.01,96.25,-630.0,-350.0,1,94.312,
01/01/2000,01:43:43.13,12.93,-76.86,-990.88,166.25,-700.0,-332.50,1,94.316,
01/01/2000,01:43:43.14,13.05,-76.98,-990.88,210.0,-691.25,-376.25,1,94.320,
01/01/2000,01:43:43.15,13.18,-76.98,-991.01,210.0,-586.25,-376.25,1,94.324,
01/01/2000,01:43:43.16,13.05,-76.62,-991.25,157.50,-673.75,-315.0,1,94.328,
01/01/2000,01:43:43.17,13.18,-76.74,-991.13,131.25,-708.75,-323.75,1,94.266,
01/01/2000,01:43:43.18,13.18,-76.86,-991.37,105.0,-682.50,-332.50,1,94.270,
01/01/2000,01:43:43.20,13.42,-76.86,-991.13,140.0,-752.50,-297.50,1,94.274,
01/01/2000,01:43:43.21,13.42,-76.74,-991.01,245.0,-735.0,-367.50,1,94.278,
01/01/2000,01:43:43.22,13.30,-76.86,-990.88,218.75,-743.75,-358.75,1,94.282,
01/01/2000,01:43:43.23,13.18,-77.10,-991.01,78.75,-708.75,-420.0,1,94.286,
01/01/2000,01:43:43.24,13.05,-76.98,-991.25,96.25,-612.50,-402.50,1,94.290,
01/01/2000,01:43:43.25,13.18,-76.86,-991.37,192.50,-708.75,-323.75,1,94.294,
01/01/2000,01:43:43.26,13.18,-76.86,-991.13,183.75,-743.75,-332.50,1,94.298,
01/01/2000,01:43:43.27,13.18,-77.10,-990.88,218.75,-656.25,-385.0,1,94.302,
01/01/2000,01:43:43.28,13.18,-77.10,-990.88,227.50,-743.75,-393.75,1,94.306,
01/01/2000,01:43:43.29,12.93,-76.98,-991.13,201.25,-638.75,-350.0,1,94.310,
01/01/2000,01:43:43.30,12.93,-76.74,-991.25,70.0,-770.0,-393.75,1,94.313,
01/01/2000,01:43:43.31,12.93,-76.62,-991.37,148.75,-717.50,-306.25,1,94.317,
01/01/2000,01:43:43.32,13.05,-76.74,-991.01,157.50,-665.0,-350.0,1,94.321,
01/01/2000,01:43:43.33,13.18,-76.98,-991.01,236.25,-691.25,-385.0,1,94.325,
01/01/2000,01:43:43.34,13.18,-77.23,-991.13,148.75,-612.50,-402.50,1,94.329,
01/01/2000,01:43:43.35,13.18,-77.10,-991.25,157.50,-708.75,-402.50,1,94.333,
01/01/2000,01:43:43.36,13.18,-76.98,-991.37,140.0,-682.50,-297.50,1,94.337,
01/01/2000,01:43:43.37,13.18,-76.86,-991.49,157.50,-665.0,-245.0,1,94.341,
01/01/2000,01:43:43.38,13.18,-76.86,-991.13,280.0,-647.50,-420.0,1,94.345,
01/01/2000,01:43:43.39,13.18,-76.86,-991.01,78.75,-726.25,-315.0,1,94.349,
01/01/2000,01:43:43.40,13.05,-77.23,-991.25,166.25,-743.75,-411.25,1,94.288,
01/01/2000,01:43:43.42,12.93,-77.23,-991.37,218.75,-621.25,-367.50,1,94.292,
01/01/2000,01:43:43.42,13.05,-76.86,-991.37,-8.75,-691.25,-455.0,1,94.296,
01/01/2000,01:43:43.44,13.18,-76.74,-991.37,105.0,-568.75,-376.25,1,94.299,
01/01/2000,01:43:43.45,12.93,-76.74,-991.25,183.75,-673.75,-262.50,1,94.303,
01/01/2000,01:43:43.46,13.05,-76.86,-991.13,218.75,-717.50,-428.75,1,94.307,
01/01/2000,01:43:43.47,12.93,-76.98,-991.01,166.25,-726.25,-245.0,1,94.311,
01/01/2000,01:43:43.48,13.18,-76.86,-991.01,122.50,-787.50,-393.75,1,94.315,
01/01/2000,01:43:43.49,13.18,-76.74,-990.88,148.75,-638.75,-367.50,1,94.319,
01/01/2000,01:43:43.50,13.18,-76.49,-990.88,96.25,-630.0,-297.50,1,94.323,
01/01/2000,01:43:43.51,13.05,-76.62,-990.88,271.25,-700.0,-350.0,1,94.327,
01/01/2000,01:43:43.52,13.18,-76.86,-991.01,306.25,-673.75,-376.25,1,94.331,
01/01/2000,01:43:43.53,13.18,-77.10,-990.88,0.0,-682.50,-455.0,1,94.334,
01/01/2000,01:43:43.54,13.18,-76.86,-990.88,96.25,-726.25,-367.50,1,94.338,
01/01/2000,01:43:43.55,13.05,-76.49,-990.64,157.50,-735.0,-315.0,1,94.278,
01/01/2000,01:43:43.56,12.93,-76.37,-990.76,288.75,-691.25,-323.75,1,94.282,
01/01/2000,01:43:43.57,12.93,-76.49,-991.13,297.50,-595.0,-315.0,1,94.286,
01/01/2000,01:43:43.58,12.93,-76.62,-991.37,157.50,-700.0,-271.25,1,94.290,
01/01/2000,01:43:43.59,13.05,-76.62,-991.37,96.25,-743.75,-306.25,1,94.293,
01/01/2000,01:43:43.60,13.05,-76.49,-991.01,175.0,-761.25,-428.75,1,94.297,
01/01/2000,01:43:43.62,13.05,-76.37,-990.88,122.50,-638.75,-236.25,1,94.301,
01/01/2000,01:43:43.63,13.05,-76.25,-990.88,192.50,-673.75,-332.50,1,94.305,
01/01/2000,01:43:43.64,13.18,-76.37,-991.01,87.50,-700.0,-306.25,1,94.309,
01/01/2000,01:43:43.65,13.18,-76.49,-991.13,166.25,-743.75,-358.75,1,94.313,
01/01/2000,01:43:43.66,13.05,-76.62,-991.01,201.25,-752.50,-411.25,1,94.317,
01/01/2000,01:43:43.67,13.18,-76.49,-990.88,201.25,-656.25,-411.25,1,94.320,
01/01/2000,01:43:43.68,13.18,-76.62,-991.01,218.75,-735.0,-358.75,1,94.261,
01/01/2000,01:43:43.70,13.05,-76.62,-991.13,192.50,-700.0,-350.0,1,94.265,
01/01/2000,01:43:43.71,12.93,-76.62,-991.01,192.50,-586.25,-376.25,1,94.268,
01/01/2000,01:43:43.72,12.93,-76.49,-990.76,157.50,-603.75,-332.50,1,94.272,
01/01/2000,01:43:43.73,13.05,-76.37,-990.76,262.50,-603.75,-350.0,1,94.276,
01/01/2000,01:43:43.74,12.93,-76.49,-990.88,78.75,-717.50,-332.50,1,94.280,
01/01/2000,01:43:43.75,13.05,-76.62,-991.01,166.25,-673.75,-376.25,1,94.284,
01/01/2000,01:43:43.76,13.30,-76.62,-991.13,288.75,-647.50,-227.50,1,94.288,
01/01/2000,01:43:43.77,13.18,-76.62,-990.88,70.0,-691.25,-341.25,1,94.291,
01/01/2000,01:43:43.78,13.05,-76.62,-990.76,201.25,-656.25,-358.75,1,94.295,
01/01/2000,01:43:43.79,13.18,-76.62,-990.76,157.50,-717.50,-332.50,1,94.299,
01/01/2000,01:43:43.80,13.05,-76.74,-990.88,131.25,-708.75,-350.0,1,94.303,
01/01/2000,01:43:43.81,13.05,-76.86,-991.13,183.75,-630.0,-297.50,1,94.307,
01/01/2000,01:43:43.82,13.05,-76.74,-990.88,341.25,-717.50,-350.0,1,94.311,
01/01/2000,01:43:43.83,13.05,-76.62,-990.88,140.0,-761.25,-358.75,1,94.314,
01/01/2000,01:43:43.84,13.18,-76.62,-990.88,157.50,-603.75,-341.25,1,94.318,
01/01/2000,01:43:43.85,13.05,-76.62,-990.88,96.25,-752.50,-411.25,1,94.322,
01/01/2000,01:43:43.86,12.93,-76.62,-990.88,122.50,-735.0,-315.0,1,94.326,
01/01/2000,01:43:43.87,12.93,-76.49,-990.76,192.50,-603.75,-498.75,1,94.330,
01/01/2000,01:43:43.88,13.05,-76.37,-990.64,105.0,-682.50,-367.50,1,94.333,
01/01/2000,01:43:43.89,13.18,-76.37,-990.88,236.25,-647.50,-420.0,1,94.274,
01/01/2000,01:43:43.91,13.18,-76.74,-991.01,113.75,-726.25,-262.50,1,94.278,
01/01/2000,01:43:43.92,13.05,-76.86,-991.13,175.0,-612.50,-332.50,1,94.282,
01/01/2000,01:43:43.93,13.05,-76.62,-991.13,122.50,-630.0,-315.0,1,94.286,
01/01/2000,01:43:43.94,13.18,-76.49,-991.13,192.50,-665.0,-350.0,1,94.290,
01/01/2000,01:43:43.95,13.18,-76.37,-990.88,192.50,-568.75,-175.0,1,94.293,
01/01/2000,01:43:43.96,13.05,-76.49,-990.64,227.50,-743.75,-393.75,1,94.297,
01/01/2000,01:43:43.97,13.05,-76.74,-990.88,201.25,-656.25,-358.75,1,94.301,
01/01/2000,01:43:43.98,13.18,-76.86,-991.13,227.50,-656.25,-350.0,1,94.305,
01/01/2000,01:43:43.99,13.18,-76.62,-991.25,96.25,-682.50,-358.75,1,94.308,
01/01/2000,01:43:44.00,13.18,-76.49,-991.13,113.75,-700.0,-315.0,1,94.312,
01/01/2000,01:43:44.01,13.18,-76.49,-990.88,35.0,-673.75,-157.50,1,94.316,
01/01/2000,01:43:44.02,13.18,-76.62,-990.64,113.75,-682.50,-420.0,1,94.320,
01/01/2000,01:43:44.03,13.18,-76.98,-990.76,201.25,-621.25,-306.25,1,94.323,
01/01/2000,01:43:44.04,12.93,-76.62,-991.01,122.50,-603.75,-350.0,1,94.265,
01/01/2000,01:43:44.05,12.93,-76.62,-990.88,183.75,-735.0,-385.0,1,94.269,
01/01/2000,01:43:44.06,12.93,-76.37,-990.64,140.0,-700.0,-280.0,1,94.273,
01/01/2000,01:43:44.07,12.93,-76.37,-990.64,122.50,-787.50,-323.75,1,94.276,
01/01/2000,01:43:44.08,13.05,-76.62,-990.64,148.75,-682.50,-297.50,1,94.280,
01/01/2000,01:43:44.09,13.18,-76.98,-990.64,105.0,-743.75,-323.75,1,94.284,
01/01/2000,01:43:44.10,13.05,-76.86,-990.64,236.25,-717.50,-498.75,1,94.288,
01/01/2000,01:43:44.12,12.81,-76.49,-990.40,262.50,-761.25,-288.75,1,94.291,
01/01/2000,01:43:44.13,12.93,-76.25,-990.27,201.25,-612.50,-376.25,1,94.295,
01/01/2000,01:43:44.14,12.93,-76.37,-990.64,166.25,-656.25,-428.75,1,94.299,
01/01/2000,01:43:44.15,13.18,-76.62,-991.01,17.50,-691.25,-332.50,1,94.303,
01/01/2000,01:43:44.16,13.30,-76.86,-991.01,210.0,-673.75,-472.50,1,94.306,
01/01/2000,01:43:44.17,13.18,-76.74,-990.88,192.50,-717.50,-420.0,1,94.310,
01/01/2000,01:43:44.18,13.18,-76.49,-990.64,192.50,-717.50,-315.0,1,94.314,
01/01/2000,01:43:44.20,13.18,-76.37,-990.88,288.75,-638.75,-358.75,1,94.256,
01/01/2000,01:43:44.21,13.18,-76.62,-991.01,218.75,-673.75,-367.50,1,94.260,
01/01/2000,01:43:44.22,13.30,-76.74,-991.01,201.25,-691.25,-288.75,1,94.263,
01/01/2000,01:43:44.23,13.30,-76.62,-990.88,227.50,-726.25,-332.50,1,94.267,
01/01/2000,01:43:44.24,13.30,-76.62,-990.76,192.50,-612.50,-323.75,1,94.271,
01/01/2000,01:43:44.25,13.30,-76.49,-990.88,43.75,-743.75,-332.50,1,94.275,
01/01/2000,01:43:44.26,13.18,-76.37,-991.01,183.75,-787.50,-490.0,1,94.278,
01/01/2000,01:43:44.27,13.05,-76.49,-991.13,166.25,-551.25,-358.75,1,94.282,
01/01/2000,01:43:44.28,13.05,-76.49,-990.88,122.50,-708.75,-402.50,1,94.286,
01/01/2000,01:43:44.29,12.93,-76.37,-990.64,113.75,-717.50,-323.75,1,94.289,
01/01/2000,01:43:44.30,13.18,-76.37,-990.64,192.50,-717.50,-288.75,1,94.293,
01/01/2000,01:43:44.31,12.93,-76.62,-990.64,166.25,-743.75,-297.50,1,94.297,
01/01/2000,01:43:44.32,12.81,-76.62,-990.76,61.25,-682.50,-428.75,1,94.301,
01/01/2000,01:43:44.33,12.93,-76.62,-990.64,253.75,-682.50,-341.25,1,94.304,
01/01/2000,01:43:44.34,13.05,-76.49,-990.52,87.50,-700.0,-315.0,1,94.308,
01/01/2000,01:43:44.35,12.93,-76.49,-990.40,43.75,-586.25,-280.0,1,94.312,
01/01/2000,01:43:44.36,12.93,-76.37,-990.40,166.25,-770.0,-402.50,1,94.315,
01/01/2000,01:43:44.37,12.93,-76.62,-990.40,70.0,-682.50,-341.25,1,94.319,
01/01/2000,01:43:44.38,13.18,-76.74,-990.52,105.0,-717.50,-376.25,1,94.323,
01/01/2000,01:43:44.39,13.18,-76.62,-990.64,210.0,-630.0,-332.50,1,94.265,
01/01/2000,01:43:44.40,13.18,-76.74,-990.64,113.75,-708.75,-402.50,1,94.269,
01/01/2000,01:43:44.41,13.18,-76.62,-990.52,218.75,-682.50,-332.50,1,94.273,
01/01/2000,01:43:44.42,13.18,-76.62,-990.52,113.75,-743.75,-385.0,1,94.277,
01/01/2000,01:43:44.43,13.18,-76.74,-990.52,175.0,-708.75,-297.50,1,94.280,
01/01/2000,01:43:44.44,13.18,-76.74,-990.64,70.0,-673.75,-332.50,1,94.284,
01/01/2000,01:43:44.45,13.18,-76.86,-990.64,323.75,-717.50,-332.50,1,94.288,
01/01/2000,01:43:44.47,13.30,-76.62,-990.88,201.25,-691.25,-288.75,1,94.291,
01/01/2000,01:43:44.48,13.42,-76.62,-990.88,210.0,-700.0,-288.75,1,94.295,
01/01/2000,01:43:44.49,13.30,-76.74,-990.88,166.25,-735.0,-306.25,1,94.299,
01/01/2000,01:43:44.50,13.18,-76.74,-990.76,201.25,-735.0,-350.0,1,94.302,
01/01/2000,01:43:44.51,13.18,-76.62,-990.64,166.25,-743.75,-306.25,1,94.306,
01/01/2000,01:43:44.52,13.18,-76.62,-990.64,201.25,-673.75,-245.0,1,94.309,
01/01/2000,01:43:44.53,13.18,-76.62,-990.76,131.25,-700.0,-183.75,1,94.313,
01/01/2000,01:43:44.54,13.18,-76.62,-990.76,122.50,-726.25,-428.75,1,94.317,
01/01/2000,01:43:44.55,13.18,-76.86,-991.01,175.0,-770.0,-245.0,1,94.320,
01/01/2000,01:43:44.56,13.18,-76.74,-991.01,210.0,-577.50,-393.75,1,94.324,
01/01/2000,01:43:44.57,13.18,-76.74,-990.88,280.0,-647.50,-288.75,1,94.328,
01/01/2000,01:43:44.58,13.18,-76.62,-990.76,175.0,-638.75,-175.0,1,94.331,
01/01/2000,01:43:44.59,13.18,-76.62,-990.64,201.25,-656.25,-385.0,1,94.275,
01/01/2000,01:43:44.61,13.18,-76.86,-990.76,131.25,-682.50,-306.25,1,94.278,
01/01/2000,01:43:44.62,13.05,-76.86,-990.88,210.0,-691.25,-446.25,1,94.282,
01/01/2000,01:43:44.63,13.05,-76.74,-990.88,175.0,-603.75,-315.0,1,94.286,
01/01/2000,01:43:44.64,12.93,-76.49,-990.88,210.0,-621.25,-376.25,1,94.289,
01/01/2000,01:43:44.65,13.05,-76.49,-990.88,175.0,-682.50,-358.75,1,94.293,
01/01/2000,01:43:44.66,13.05,-76.62,-990.76,245.0,-691.25,-245.0,1,94.297,
01/01/2000,01:43:44.67,13.18,-76.86,-990.76,157.50,-700.0,-411.25,1,94.300,
01/01/2000,01:43:44.68,13.05,-76.86,-990.76,157.50,-621.25,-393.75,1,94.304,
01/01/2000,01:43:44.69,13.05,-76.86,-990.88,131.25,-752.50,-323.75,1,94.307,
01/01/2000,01:43:44.70,12.93,-76.74,-990.88,140.0,-638.75,-183.75,1,94.251,
01/01/2000,01:43:44.71,13.05,-77.10,-990.64,70.0,-673.75,-367.50,1,94.255,
01/01/2000,01:43:44.73,13.18,-77.23,-990.64,201.25,-638.75,-341.25,1,94.259,
01/01/2000,01:43:44.73,13.18,-77.23,-990.64,271.25,-665.0,-420.0,1,94.262,
01/01/2000,01:43:44.75,13.18,-77.23,-990.64,70.0,-787.50,-341.25,1,94.266,
01/01/2000,01:43:44.76,12.93,-76.98,-990.64,201.25,-761.25,-297.50,1,94.270,
01/01/2000,01:43:44.77,12.93,-76.86,-990.88,131.25,-708.75,-271.25,1,94.273,
01/01/2000,01:43:44.78,12.93,-76.86,-990.88,105.0,-665.0,-262.50,1,94.277,
01/01/2000,01:43:44.79,13.05,-77.10,-990.88,87.50,-752.50,-358.75,1,94.280,
01/01/2000,01:43:44.80,12.93,-77.47,-990.88,157.50,-691.25,-306.25,1,94.284,
01/01/2000,01:43:44.81,12.81,-77.35,-990.64,96.25,-691.25,-385.0,1,94.288,
01/01/2000,01:43:44.82,12.69,-77.10,-990.64,140.0,-726.25,-350.0,1,94.291,
01/01/2000,01:43:44.83,12.81,-76.74,-991.01,183.75,-647.50,-297.50,1,94.295,
01/01/2000,01:43:44.84,13.05,-76.86,-991.13,105.0,-612.50,-245.0,1,94.298,
01/01/2000,01:43:44.85,13.05,-76.86,-990.88,245.0,-586.25,-306.25,1,94.302,
01/01/2000,01:43:44.86,12.93,-76.86,-990.64,175.0,-656.25,-280.0,1,94.305,
01/01/2000,01:43:44.87,12.93,-76.98,-990.52,218.75,-603.75,-306.25,1,94.309,
01/01/2000,01:43:44.88,13.05,-76.86,-990.64,192.50,-682.50,-341.25,1,94.313,
01/01/2000,01:43:44.89,13.05,-76.74,-990.88,253.75,-586.25,-323.75,1,94.316,
01/01/2000,01:43:44.90,13.05,-76.62,-990.88,131.25,-638.75,-358.75,1,94.320,
01/01/2000,01:43:44.91,12.93,-76.74,-990.64,52.50,-630.0,-332.50,1,94.323,
01/01/2000,01:43:44.92,12.81,-76.86,-990.64,253.75,-735.0,-350.0,1,94.327,
01/01/2000,01:43:44.93,12.93,-76.86,-990.40,201.25,-752.50,-393.75,1,94.330,
01/01/2000,01:43:44.94,12.93,-76.98,-990.64,131.25,-726.25,-227.50,1,94.334,
01/01/2000,01:43:44.95,13.05,-77.10,-990.64,96.25,-673.75,-341.25,1,94.279,
01/01/2000,01:43:44.96,13.05,-76.86,-990.76,227.50,-708.75,-385.0,1,94.282,
01/01/2000,01:43:44.97,13.05,-76.74,-990.64,183.75,-778.75,-288.75,1,94.286,
01/01/2000,01:43:44.98,13.18,-76.74,-990.76,140.0,-717.50,-315.0,1,94.289,
01/01/2000,01:43:44.99,13.18,-76.62,-990.88,245.0,-630.0,-315.0,1,94.293,
01/01/2000,01:43:45.00,13.30,-76.74,-990.76,201.25,-700.0,-350.0,1,94.296,
01/01/2000,01:43:45.01,13.30,-76.74,-990.64,192.50,-656.25,-481.25,1,94.300,
01/01/2000,01:43:45.03,13.18,-76.62,-990.88,210.0,-761.25,-385.0,1,94.303,
01/01/2000,01:43:45.04,13.18,-76.49,-991.01,227.50,-682.50,-323.75,1,94.307,
01/01/2000,01:43:45.05,13.30,-76.62,-990.88,52.50,-700.0,-332.50,1,94.310,
01/01/2000,01:43:45.06,13.30,-76.62,-990.64,192.50,-708.75,-288.75,1,94.314,
01/01/2000,01:43:45.07,13.30,-76.62,-990.40,245.0,-682.50,-341.25,1,94.317,
01/01/2000,01:43:45.08,13.30,-76.62,-990.52,166.25,-813.75,-411.25,1,94.321,
01/01/2000,01:43:45.09,13.30,-76.49,-990.64,175.0,-665.0,-358.75,1,94.324,
01/01/2000,01:43:45.10,13.30,-76.37,-990.76,105.0,-682.50,-385.0,1,94.328,
01/01/2000,01:43:45.11,13.30,-76.62,-990.64,122.50,-621.25,-350.0,1,94.331,
01/01/2000,01:43:45.12,13.18,-76.49,-990.40,166.25,-770.0,-315.0,1,94.335,
01/01/2000,01:43:45.13,13.18,-76.49,-990.40,323.75,-612.50,-367.50,1,94.338,
01/01/2000,01:43:45.14,13.42,-76.49,-990.64,131.25,-691.25,-350.0,1,94.342,
01/01/2000,01:43:45.15,13.30,-76.62,-990.64,175.0,-586.25,-376.25,1,94.345,
01/01/2000,01:43:45.17,13.18,-76.62,-990.64,148.75,-673.75,-297.50,1,94.291,
01/01/2000,01:43:45.18,13.18,-76.49,-990.64,280.0,-673.75,-323.75,1,94.294,
01/01/2000,01:43:45.19,13.18,-76.49,-990.64,183.75,-638.75,-271.25,1,94.298,
01/01/2000,01:43:45.20,13.18,-76.62,-990.64,87.50,-796.25,-376.25,1,94.301,
01/01/2000,01:43:45.21,13.18,-76.86,-990.64,157.50,-673.75,-376.25,1,94.305,
01/01/2000,01:43:45.22,13.05,-76.86,-990.76,175.0,-673.75,-341.25,1,94.308,
01/01/2000,01:43:45.23,13.05,-76.86,-990.88,131.25,-787.50,-315.0,1,94.312,
01/01/2000,01:43:45.24,13.18,-76.37,-990.88,105.0,-752.50,-437.50,1,94.258,
01/01/2000,01:43:45.25,13.18,-76.37,-990.76,113.75,-665.0,-376.25,1,94.319,
01/01/2000,01:43:45.26,13.18,-76.49,-990.76,96.25,-796.25,-385.0,1,94.265,
01/01/2000,01:43:45.27,13.18,-76.74,-990.88,245.0,-752.50,-358.75,1,94.268,
01/01/2000,01:43:45.28,13.18,-76.86,-990.88,245.0,-787.50,-315.0,1,94.272,
01/01/2000,01:43:45.29,13.18,-76.74,-990.76,157.50,-647.50,-402.50,1,94.275,
01/01/2000,01:43:45.30,13.05,-76.62,-990.76,192.50,-586.25,-367.50,1,94.279,
01/01/2000,01:43:45.31,12.93,-76.49,-990.64,122.50,-735.0,-358.75,1,94.282,
01/01/2000,01:43:45.32,12.93,-76.62,-990.76,122.50,-805.0,-297.50,1,94.286,
01/01/2000,01:43:45.33,13.05,-76.86,-990.88,70.0,-682.50,-350.0,1,94.289,
01/01/2000,01:43:45.34,13.18,-76.86,-990.88,183.75,-700.0,-463.75,1,94.293,
01/01/2000,01:43:45.35,13.18,-76.98,-990.76,192.50,-761.25,-402.50,1,94.296,
01/01/2000,01:43:45.36,12.93,-76.86,-990.76,78.75,-735.0,-306.25,1,94.300,
01/01/2000,01:43:45.38,12.93,-76.62,-990.76,288.75,-682.50,-358.75,1,94.303,
01/01/2000,01:43:45.39,13.05,-76.49,-991.01,236.25,-621.25,-288.75,1,94.306,
01/01/2000,01:43:45.40,13.05,-76.62,-990.88,113.75,-743.75,-323.75,1,94.310,
01/01/2000,01:43:45.41,12.93,-76.74,-990.76,166.25,-708.75,-376.25,1,94.313,
01/01/2000,01:43:45.42,12.93,-76.86,-990.40,201.25,-656.25,-411.25,1,94.317,
01/01/2000,01:43:45.43,13.05,-76.86,-990.52,148.75,-638.75,-323.75,1,94.320,
01/01/2000,01:43:45.44,13.05,-76.74,-990.76,201.25,-726.25,-376.25,1,94.324,
01/01/2000,01:43:45.45,12.93,-76.86,-990.88,157.50,-708.75,-376.25,1,94.327,
01/01/2000,01:43:45.46,12.81,-76.74,-990.76,140.0,-708.75,-332.50,1,94.331,
01/01/2000,01:43:45.47,12.69,-76.62,-990.52,236.25,-743.75,-332.50,1,94.277,
01/01/2000,01:43:45.48,12.69,-76.74,-990.40,192.50,-665.0,-323.75,1,94.337,
01/01/2000,01:43:45.49,12.44,-76.74,-990.40,262.50,-682.50,-367.50,1,94.284,
01/01/2000,01:43:45.50,12.57,-76.74,-990.64,245.0,-638.75,-358.75,1,94.287,
01/01/2000,01:43:45.51,12.57,-76.49,-990.88,227.50,-673.75,-350.0,1,94.291,
01/01/2000,01:43:45.53,12.81,-76.37,-990.88,105.0,-700.0,-271.25,1,94.294,
01/01/2000,01:43:45.54,12.93,-76.62,-990.52,227.50,-595.0,-358.75,1,94.298,
01/01/2000,01:43:45.55,12.81,-76.74,-990.40,157.50,-717.50,-280.0,1,94.301,
01/01/2000,01:43:45.56,12.93,-76.62,-990.52,105.0,-743.75,-376.25,1,94.305,
01/01/2000,01:43:45.57,13.05,-76.49,-990.76,157.50,-638.75,-253.75,1,94.308,
01/01/2000,01:43:45.58,13.18,-76.49,-990.88,35.0,-630.0,-262.50,1,94.311,
01/01/2000,01:43:45.59,12.93,-76.74,-990.88,175.0,-682.50,-280.0,1,94.315,
01/01/2000,01:43:45.60,12.93,-77.10,-990.76,262.50,-700.0,-350.0,1,94.318,
