rtcDate,rtcTime,aX,aY,aZ,gX,gY,gZ,dataRdy,output_Hz,
01/01/2000,01:34:05.98,14.40,-57.83,-862.30,78.75,-682.50,-341.25,1,0.0,
01/01/2000,01:34:06.00,14.64,-59.41,-885.48,175.0,-638.75,-315.0,1,100.0,
01/01/2000,01:34:06.01,15.13,-60.63,-904.51,140.0,-682.50,-297.50,1,100.0,
01/01/2000,01:34:06.02,15.37,-61.37,-915.12,175.0,-743.75,-411.25,1,100.0,
01/01/2000,01:34:06.03,15.49,-62.22,-924.27,61.25,-708.75,-358.75,1,100.0,
01/01/2000,01:34:06.04,15.37,-62.83,-932.57,166.25,-778.75,-323.75,1,100.0,
01/01/2000,01:34:06.05,15.62,-63.32,-943.55,192.50,-752.50,-420.0,1,100.0,
01/01/2000,01:34:06.06,15.86,-63.56,-949.65,306.25,-612.50,-262.50,1,100.0,
01/01/2000,01:34:06.07,15.98,-64.05,-954.77,148.75,-656.25,-315.0,1,100.0,
01/01/2000,01:34:06.08,15.98,-64.66,-961.36,148.75,-673.75,-376.25,1,100.0,
01/01/2000,01:34:06.09,16.10,-65.15,-965.26,192.50,-743.75,-428.75,1,100.0,
01/01/2000,01:34:06.10,16.23,-65.15,-968.68,166.25,-708.75,-393.75,1,100.0,
01/01/2000,01:34:06.11,16.35,-65.39,-971.97,166.25,-761.25,-385.0,1,100.0,
01/01/2000,01:34:06.12,16.10,-65.64,-975.63,236.25,-656.25,-350.0,1,100.0,
01/01/2000,01:34:06.13,16.10,-65.64,-977.71,87.50,-778.75,-323.75,1,100.0,
01/01/2000,01:34:06.14,16.23,-65.88,-979.54,192.50,-665.0,-297.50,1,100.0,
01/01/2000,01:34:06.15,16.23,-65.88,-981.12,78.75,-708.75,-420.0,1,100.0,
01/01/2000,01:34:06.16,16.35,-66.00,-983.08,70.0,-656.25,-280.0,1,100.0,
01/01/2000,01:34:06.17,16.35,-66.25,-984.30,262.50,-673.75,-350.0,1,100.0,
01/01/2000,01:34:06.18,16.35,-66.25,-985.52,175.0,-656.25,-306.25,1,100.0,
01/01/2000,01:34:06.19,16.35,-66.25,-986.74,236.25,-735.0,-420.0,1,100.0,
01/01/2000,01:34:06.20,16.47,-66.12,-987.59,148.75,-630.0,-288.75,1,100.0,
01/01/2000,01:34:06.21,16.59,-66.25,-988.44,43.75,-700.0,-306.25,1,100.0,
01/01/2000,01:34:06.22,16.84,-66.37,-988.93,175.0,-682.50,-315.0,1,96.0,
01/01/2000,01:34:06.23,16.84,-66.49,-989.54,122.50,-813.75,-376.25,1,100.0,
01/01/2000,01:34:06.24,16.71,-66.61,-990.03,105.0,-717.50,-271.25,1,96.296,
01/01/2000,01:34:06.25,16.71,-66.49,-990.15,140.0,-726.25,-393.75,1,96.429,
01/01/2000,01:34:06.27,16.71,-66.37,-990.40,218.75,-708.75,-358.75,1,96.552,
01/01/2000,01:34:06.28,16.84,-66.37,-990.76,201.25,-735.0,-367.50,1,96.667,
01/01/2000,01:34:06.29,16.84,-66.37,-991.13,323.75,-630.0,-201.25,1,96.774,
01/01/2000,01:34:06.30,16.59,-66.49,-991.25,210.0,-638.75,-350.0,1,96.875,
01/01/2000,01:34:06.31,16.71,-66.61,-991.37,210.0,-665.0,-350.0,1,96.970,
01/01/2000,01:34:06.32,16.71,-66.49,-991.74,253.75,-612.50,-481.25,1,97.059,
01/01/2000,01:34:06.33,16.84,-66.37,-992.10,-78.75,-682.50,-332.50,1,97.143,
01/01/2000,01:34:06.34,16.71,-66.49,-992.23,227.50,-665.0,-323.75,1,97.222,
01/01/2000,01:34:06.35,16.47,-66.49,-992.23,157.50,-586.25,-288.75,1,97.297,
01/01/2000,01:34:06.36,16.59,-66.73,-992.10,148.75,-761.25,-385.0,1,97.368,
01/01/2000,01:34:06.37,16.59,-66.61,-992.23,236.25,-673.75,-385.0,1,97.436,
01/01/2000,01:34:06.38,16.59,-66.61,-992.35,131.25,-682.50,-437.50,1,97.500,
01/01/2000,01:34:06.39,16.59,-66.73,-992.35,166.25,-708.75,-420.0,1,97.561,
01/01/2000,01:34:06.40,16.47,-66.86,-992.35,227.50,-647.50,-332.50,1,95.349,
01/01/2000,01:34:06.41,16.59,-66.86,-992.47,113.75,-726.25,-525.0,1,95.455,
01/01/2000,01:34:06.42,16.84,-66.73,-992.71,148.75,-621.25,-350.0,1,95.556,
01/01/2000,01:34:06.43,16.84,-66.61,-992.71,17.50,-726.25,-297.50,1,95.652,
01/01/2000,01:34:06.44,16.71,-66.73,-992.47,175.0,-708.75,-411.25,1,95.745,
01/01/2000,01:34:06.45,16.59,-66.73,-992.35,183.75,-761.25,-323.75,1,95.833,
01/01/2000,01:34:06.46,16.71,-66.61,-992.59,192.50,-691.25,-350.0,1,95.918,
01/01/2000,01:34:06.48,16.84,-66.61,-992.84,201.25,-700.0,-376.25,1,96.0,
01/01/2000,01:34:06.49,16.84,-66.73,-992.84,78.75,-708.75,-262.50,1,96.078,
01/01/2000,01:34:06.50,16.84,-66.86,-992.47,175.0,-665.0,-367.50,1,96.154,
01/01/2000,01:34:06.51,16.84,-66.73,-992.59,70.0,-586.25,-306.25,1,94.444,
01/01/2000,01:34:06.52,16.71,-66.73,-992.59,87.50,-630.0,-332.50,1,94.545,
01/01/2000,01:34:06.53,16.71,-66.73,-992.59,218.75,-743.75,-297.50,1,94.643,
01/01/2000,01:34:06.54,16.59,-66.73,-992.35,218.75,-761.25,-350.0,1,94.737,
01/01/2000,01:34:06.55,16.59,-66.86,-992.35,175.0,-761.25,-323.75,1,94.828,
01/01/2000,01:34:06.56,16.59,-66.73,-992.47,131.25,-822.50,-341.25,1,94.915,
01/01/2000,01:34:06.57,16.59,-66.86,-992.59,192.50,-761.25,-393.75,1,95.0,
01/01/2000,01:34:06.58,16.59,-66.61,-992.71,105.0,-770.0,-288.75,1,95.082,
01/01/2000,01:34:06.59,16.59,-66.61,-992.59,131.25,-673.75,-306.25,1,95.161,
01/01/2000,01:34:06.60,16.59,-66.61,-992.47,131.25,-665.0,-315.0,1,95.238,
01/01/2000,01:34:06.62,16.47,-66.61,-992.47,210.0,-638.75,-428.75,1,95.313,
01/01/2000,01:34:06.63,16.47,-66.61,-992.59,271.25,-700.0,-358.75,1,95.385,
01/01/2000,01:34:06.64,16.71,-66.61,-992.71,148.75,-638.75,-385.0,1,95.455,
01/01/2000,01:34:06.65,16.71,-66.73,-992.71,122.50,-708.75,-297.50,1,95.522,
01/01/2000,01:34:06.66,16.71,-66.86,-992.71,157.50,-673.75,-297.50,1,95.588,
01/01/2000,01:34:06.67,16.71,-66.86,-992.71,52.50,-586.25,-358.75,1,95.652,
01/01/2000,01:34:06.68,16.71,-66.86,-992.71,43.75,-656.25,-288.75,1,95.714,
01/01/2000,01:34:06.69,16.84,-66.61,-992.59,78.75,-700.0,-306.25,1,95.775,
01/01/2000,01:34:06.70,16.71,-66.73,-992.59,227.50,-708.75,-411.25,1,95.833,
01/01/2000,01:34:06.71,16.59,-66.73,-992.59,262.50,-595.0,-341.25,1,95.890,
01/01/2000,01:34:06.72,16.59,-66.61,-992.59,166.25,-665.0,-297.50,1,95.946,
01/01/2000,01:34:06.73,16.59,-66.49,-992.59,297.50,-621.25,-306.25,1,96.0,
01/01/2000,01:34:06.74,16.59,-66.37,-992.84,262.50,-717.50,-332.50,1,96.053,
01/01/2000,01:34:06.75,16.59,-66.37,-992.59,131.25,-638.75,-271.25,1,94.872,
01/01/2000,01:34:06.76,16.59,-66.37,-992.59,218.75,-700.0,-455.0,1,94.937,
01/01/2000,01:34:06.77,16.59,-66.37,-992.47,131.25,-621.25,-297.50,1,95.0,
01/01/2000,01:34:06.78,16.59,-66.37,-992.59,183.75,-735.0,-385.0,1,95.062,
01/01/2000,01:34:06.79,16.59,-66.37,-992.59,87.50,-743.75,-367.50,1,95.122,
01/01/2000,01:34:06.80,16.47,-66.37,-992.59,183.75,-682.50,-358.75,1,95.181,
01/01/2000,01:34:06.81,16.47,-66.49,-992.71,70.0,-638.75,-385.0,1,95.238,
01/01/2000,01:34:06.83,16.59,-66.61,-992.84,140.0,-708.75,-350.0,1,95.294,
01/01/2000,01:34:06.84,16.59,-66.61,-992.84,87.50,-761.25,-271.25,1,95.349,
01/01/2000,01:34:06.85,16.59,-66.61,-992.59,262.50,-752.50,-332.50,1,95.402,
01/01/2000,01:34:06.86,16.47,-66.61,-992.47,201.25,-787.50,-315.0,1,95.455,
01/01/2000,01:34:06.87,16.47,-66.61,-992.47,183.75,-848.75,-297.50,1,95.506,
01/01/2000,01:34:06.88,16.59,-66.49,-992.59,192.50,-735.0,-262.50,1,95.556,
01/01/2000,01:34:06.89,16.59,-66.49,-992.84,61.25,-595.0,-280.0,1,95.604,
01/01/2000,01:34:06.90,16.84,-66.49,-992.84,218.75,-595.0,-280.0,1,95.652,
01/01/2000,01:34:06.91,16.71,-66.61,-992.71,140.0,-621.25,-323.75,1,94.681,
01/01/2000,01:34:06.92,16.84,-66.37,-992.47,157.50,-743.75,-306.25,1,94.737,
01/01/2000,01:34:06.93,16.84,-66.37,-992.35,402.50,-673.75,-428.75,1,94.792,
01/01/2000,01:34:06.94,16.71,-66.37,-992.59,105.0,-831.25,-341.25,1,94.845,
01/01/2000,01:34:06.95,16.71,-66.49,-992.47,253.75,-691.25,-323.75,1,94.898,
01/01/2000,01:34:06.97,16.35,-66.61,-992.35,166.25,-586.25,-332.50,1,94.949,
01/01/2000,01:34:06.98,16.35,-66.61,-992.23,78.75,-647.50,-358.75,1,95.0,
01/01/2000,01:34:06.99,16.59,-66.61,-992.35,131.25,-630.0,-350.0,1,95.050,
01/01/2000,01:34:07.00,16.47,-66.61,-992.35,175.0,-813.75,-332.50,1,95.098,
01/01/2000,01:34:07.01,16.47,-66.61,-992.59,175.0,-682.50,-323.75,1,95.146,
01/01/2000,01:34:07.02,16.59,-66.49,-992.47,157.50,-726.25,-411.25,1,95.192,
01/01/2000,01:34:07.03,16.71,-66.49,-992.35,26.25,-752.50,-306.25,1,95.238,
01/01/2000,01:34:07.04,16.59,-66.49,-992.23,131.25,-770.0,-393.75,1,94.393,
01/01/2000,01:34:07.05,16.47,-66.61,-992.23,183.75,-770.0,-341.25,1,94.444,
01/01/2000,01:34:07.06,16.47,-66.61,-992.35,166.25,-595.0,-297.50,1,94.495,
01/01/2000,01:34:07.07,16.59,-66.61,-992.35,148.75,-673.75,-428.75,1,94.545,
01/01/2000,01:34:07.08,16.59,-66.49,-992.47,87.50,-673.75,-323.75,1,94.595,
01/01/2000,01:34:07.09,16.59,-66.49,-992.59,131.25,-752.50,-323.75,1,94.643,
01/01/2000,01:34:07.10,16.47,-66.61,-992.47,253.75,-542.50,-315.0,1,94.690,
01/01/2000,01:34:07.11,16.35,-66.61,-992.47,70.0,-691.25,-280.0,1,94.737,
01/01/2000,01:34:07.12,16.59,-66.61,-992.47,140.0,-752.50,-297.50,1,94.783,
01/01/2000,01:34:07.13,16.59,-66.37,-992.35,122.50,-665.0,-288.75,1,94.828,
01/01/2000,01:34:07.14,16.47,-66.37,-992.35,61.25,-647.50,-306.25,1,94.872,
01/01/2000,01:34:07.15,16.59,-66.37,-992.35,253.75,-726.25,-315.0,1,94.915,
01/01/2000,01:34:07.17,16.59,-66.25,-992.35,131.25,-778.75,-341.25,1,94.958,
01/01/2000,01:34:07.18,16.84,-66.37,-992.59,113.75,-656.25,-297.50,1,95.0,
01/01/2000,01:34:07.19,16.71,-66.49,-992.35,262.50,-665.0,-367.50,1,95.041,
01/01/2000,01:34:07.20,16.59,-66.37,-992.10,8.75,-735.0,-376.25,1,95.082,
01/01/2000,01:34:07.21,16.59,-66.37,-992.10,-17.50,-656.25,-280.0,1,95.122,
01/01/2000,01:34:07.22,16.59,-66.37,-992.23,183.75,-682.50,-332.50,1,95.161,
01/01/2000,01:34:07.23,16.47,-66.37,-992.35,192.50,-630.0,-245.0,1,95.200,
01/01/2000,01:34:07.24,16.47,-66.49,-992.59,122.50,-665.0,-358.75,1,95.238,
01/01/2000,01:34:07.25,16.47,-66.49,-992.35,96.25,-700.0,-376.25,1,94.531,
01/01/2000,01:34:07.26,16.47,-66.37,-992.23,166.25,-700.0,-341.25,1,94.574,
01/01/2000,01:34:07.27,16.59,-66.12,-992.35,253.75,-691.25,-420.0,1,94.615,
01/01/2000,01:34:07.28,16.47,-66.12,-992.47,201.25,-735.0,-341.25,1,94.656,
01/01/2000,01:34:07.29,16.59,-66.25,-992.23,52.50,-665.0,-332.50,1,94.697,
01/01/2000,01:34:07.30,16.71,-66.37,-991.98,105.0,-743.75,-350.0,1,94.737,
01/01/2000,01:34:07.31,16.84,-66.37,-992.10,245.0,-700.0,-271.25,1,94.776,
01/01/2000,01:34:07.33,16.96,-66.37,-992.47,236.25,-805.0,-297.50,1,94.815,
01/01/2000,01:34:07.34,16.84,-66.49,-992.59,210.0,-752.50,-341.25,1,94.853,
01/01/2000,01:34:07.35,16.71,-66.49,-992.35,140.0,-568.75,-393.75,1,94.891,
01/01/2000,01:34:07.36,16.59,-66.61,-992.10,306.25,-770.0,-306.25,1,94.928,
01/01/2000,01:34:07.37,16.84,-66.37,-992.10,96.25,-787.50,-262.50,1,94.964,
01/01/2000,01:34:07.38,16.84,-66.49,-992.23,78.75,-708.75,-411.25,1,95.0,
01/01/2000,01:34:07.39,16.59,-66.49,-992.23,105.0,-647.50,-367.50,1,95.035,
01/01/2000,01:34:07.40,16.59,-66.61,-992.10,43.75,-726.25,-297.50,1,95.070,
01/01/2000,01:34:07.41,16.59,-66.37,-992.10,157.50,-743.75,-297.50,1,95.105,
01/01/2000,01:34:07.42,16.71,-66.37,-992.23,-70.0,-656.25,-288.75,1,95.139,
01/01/2000,01:34:07.43,16.71,-66.37,-992.35,148.75,-682.50,-428.75,1,95.172,
01/01/2000,01:34:07.44,16.59,-66.49,-992.35,271.25,-691.25,-332.50,1,95.205,
01/01/2000,01:34:07.45,16.59,-66.49,-992.23,61.25,-656.25,-350.0,1,95.238,
01/01/2000,01:34:07.46,16.59,-66.61,-992.23,271.25,-665.0,-358.75,1,94.631,
01/01/2000,01:34:07.47,16.59,-66.37,-992.10,183.75,-787.50,-358.75,1,94.667,
01/01/2000,01:34:07.48,16.59,-66.49,-992.35,227.50,-656.25,-341.25,1,94.702,
01/01/2000,01:34:07.49,16.59,-66.61,-992.35,70.0,-735.0,-367.50,1,94.737,
01/01/2000,01:34:07.50,16.47,-66.73,-992.23,96.25,-682.50,-306.25,1,94.771,
01/01/2000,01:34:07.51,16.59,-66.73,-992.10,262.50,-638.75,-420.0,1,94.805,
01/01/2000,01:34:07.53,16.59,-66.49,-991.86,78.75,-761.25,-262.50,1,94.839,
01/01/2000,01:34:07.54,16.59,-66.61,-991.86,271.25,-647.50,-376.25,1,94.268,
01/01/2000,01:34:07.55,16.59,-66.61,-991.98,166.25,-603.75,-288.75,1,94.304,
01/01/2000,01:34:07.56,16.47,-66.61,-992.10,280.0,-665.0,-315.0,1,94.340,
01/01/2000,01:34:07.57,16.59,-66.61,-991.98,166.25,-656.25,-358.75,1,94.375,
01/01/2000,01:34:07.58,16.84,-66.61,-991.98,227.50,-735.0,-428.75,1,94.410,
01/01/2000,01:34:07.59,16.84,-66.49,-991.86,236.25,-691.25,-315.0,1,94.444,
01/01/2000,01:34:07.61,16.71,-66.73,-991.86,271.25,-665.0,-262.50,1,94.479,
01/01/2000,01:34:07.62,16.59,-66.61,-992.10,61.25,-691.25,-402.50,1,94.512,
01/01/2000,01:34:07.63,16.71,-66.61,-992.23,245.0,-656.25,-437.50,1,94.545,
01/01/2000,01:34:07.64,16.84,-66.49,-992.10,227.50,-647.50,-376.25,1,94.578,
01/01/2000,01:34:07.65,16.84,-66.61,-991.86,166.25,-647.50,-350.0,1,94.611,
01/01/2000,01:34:07.66,16.84,-66.73,-991.86,201.25,-726.25,-437.50,1,94.643,
01/01/2000,01:34:07.67,16.59,-66.73,-992.10,113.75,-691.25,-402.50,1,94.675,
01/01/2000,01:34:07.68,16.84,-66.49,-992.35,245.0,-717.50,-297.50,1,94.706,
01/01/2000,01:34:07.69,16.71,-66.37,-992.35,192.50,-840.0,-306.25,1,94.737,
01/01/2000,01:34:07.70,16.59,-66.25,-992.23,140.0,-665.0,-262.50,1,94.767,
01/01/2000,01:34:07.71,16.59,-66.25,-992.10,271.25,-778.75,-306.25,1,94.798,
01/01/2000,01:34:07.72,16.47,-66.37,-992.10,253.75,-647.50,-411.25,1,94.828,
01/01/2000,01:34:07.73,16.47,-66.49,-992.23,192.50,-726.25,-472.50,1,94.857,
01/01/2000,01:34:07.74,16.47,-66.61,-992.35,157.50,-656.25,-393.75,1,94.886,
01/01/2000,01:34:07.75,16.47,-66.37,-992.35,122.50,-708.75,-323.75,1,94.915,
01/01/2000,01:34:07.76,16.59,-66.49,-992.35,201.25,-726.25,-385.0,1,94.944,
01/01/2000,01:34:07.77,16.47,-66.37,-992.35,96.25,-700.0,-253.75,1,94.972,
01/01/2000,01:34:07.78,16.59,-66.61,-992.23,87.50,-700.0,-393.75,1,95.0,
01/01/2000,01:34:07.79,16.59,-66.61,-992.23,192.50,-568.75,-288.75,1,95.028,
01/01/2000,01:34:07.80,16.59,-66.61,-992.10,192.50,-691.25,-428.75,1,95.055,
01/01/2000,01:34:07.82,16.47,-66.37,-992.10,131.25,-708.75,-297.50,1,94.565,
01/01/2000,01:34:07.83,16.59,-66.49,-992.10,306.25,-752.50,-428.75,1,94.595,
01/01/2000,01:34:07.84,16.59,-66.49,-991.98,227.50,-691.25,-393.75,1,94.624,
01/01/2000,01:34:07.85,16.59,-66.61,-991.86,157.50,-682.50,-253.75,1,94.652,
01/01/2000,01:34:07.86,16.59,-66.37,-991.98,227.50,-735.0,-297.50,1,94.681,
01/01/2000,01:34:07.87,16.84,-66.37,-992.10,201.25,-700.0,-245.0,1,94.709,
01/01/2000,01:34:07.88,16.84,-66.37,-991.98,-26.25,-726.25,-367.50,1,94.737,
01/01/2000,01:34:07.89,16.71,-66.37,-991.98,87.50,-665.0,-323.75,1,94.764,
01/01/2000,01:34:07.90,16.59,-66.49,-991.98,87.50,-656.25,-332.50,1,94.792,
01/01/2000,01:34:07.91,16.59,-66.49,-991.86,245.0,-665.0,-385.0,1,94.819,
01/01/2000,01:34:07.92,16.59,-66.61,-991.74,183.75,-638.75,-288.75,1,94.845,
01/01/2000,01:34:07.93,16.59,-66.61,-991.74,96.25,-752.50,-376.25,1,94.872,
01/01/2000,01:34:07.94,16.59,-66.49,-991.74,140.0,-735.0,-393.75,1,94.898,
01/01/2000,01:34:07.95,16.47,-66.61,-991.74,113.75,-761.25,-367.50,1,94.444,
01/01/2000,01:34:07.96,16.47,-66.49,-991.86,210.0,-708.75,-253.75,1,94.472,
01/01/2000,01:34:07.97,16.47,-66.49,-991.86,192.50,-630.0,-297.50,1,94.500,
01/01/2000,01:34:07.98,16.47,-66.61,-991.86,166.25,-752.50,-323.75,1,94.527,
01/01/2000,01:34:07.99,16.35,-66.61,-991.98,192.50,-778.75,-393.75,1,94.554,
01/01/2000,01:34:08.00,16.23,-66.86,-992.10,166.25,-630.0,-402.50,1,94.581,
01/01/2000,01:34:08.01,16.35,-66.49,-991.98,105.0,-735.0,-253.75,1,94.608,
01/01/2000,01:34:08.03,16.47,-66.49,-991.86,271.25,-630.0,-358.75,1,94.634,
01/01/2000,01:34:08.04,16.35,-66.73,-991.98,183.75,-708.75,-280.0,1,94.203,
01/01/2000,01:34:08.05,16.47,-66.61,-992.10,201.25,-542.50,-358.75,1,94.231,
01/01/2000,01:34:08.06,16.35,-66.49,-992.10,166.25,-700.0,-376.25,1,94.258,
01/01/2000,01:34:08.07,16.59,-66.37,-991.86,113.75,-586.25,-227.50,1,94.286,
01/01/2000,01:34:08.08,16.59,-66.37,-991.86,288.75,-673.75,-358.75,1,94.313,
01/01/2000,01:34:08.09,16.59,-66.49,-991.86,113.75,-647.50,-280.0,1,94.340,
01/01/2000,01:34:08.10,16.84,-66.61,-992.10,87.50,-726.25,-402.50,1,94.366,
01/01/2000,01:34:08.11,16.71,-66.61,-992.35,245.0,-752.50,-437.50,1,94.393,
01/01/2000,01:34:08.12,16.84,-66.49,-992.23,105.0,-717.50,-341.25,1,94.419,
01/01/2000,01:34:08.13,16.71,-66.37,-992.10,157.50,-700.0,-385.0,1,94.444,
01/01/2000,01:34:08.15,16.84,-66.12,-991.98,140.0,-638.75,-245.0,1,94.470,
01/01/2000,01:34:08.15,16.96,-66.37,-991.86,157.50,-612.50,-341.25,1,94.495,
01/01/2000,01:34:08.17,16.84,-66.49,-992.23,175.0,-735.0,-332.50,1,94.521,
01/01/2000,01:34:08.18,16.84,-66.37,-992.35,210.0,-743.75,-428.75,1,94.545,
01/01/2000,01:34:08.19,16.84,-66.49,-992.23,122.50,-735.0,-341.25,1,94.570,
01/01/2000,01:34:08.20,16.71,-66.12,-991.86,122.50,-700.0,-262.50,1,94.595,
01/01/2000,01:34:08.21,16.71,-66.25,-991.86,166.25,-682.50,-367.50,1,94.619,
01/01/2000,01:34:08.22,16.84,-66.37,-992.10,201.25,-691.25,-358.75,1,94.643,
01/01/2000,01:34:08.23,16.84,-66.37,-992.23,87.50,-735.0,-385.0,1,94.667,
01/01/2000,01:34:08.24,16.59,-66.49,-992.23,236.25,-805.0,-367.50,1,94.690,
01/01/2000,01:34:08.25,16.47,-66.37,-992.23,17.50,-656.25,-236.25,1,94.714,
01/01/2000,01:34:08.26,16.47,-66.37,-992.10,131.25,-673.75,-280.0,1,94.737,
01/01/2000,01:34:08.27,16.59,-66.37,-992.10,61.25,-726.25,-288.75,1,94.760,
01/01/2000,01:34:08.28,16.47,-66.61,-992.23,52.50,-638.75,-402.50,1,94.783,
01/01/2000,01:34:08.29,16.59,-66.86,-992.23,227.50,-708.75,-315.0,1,94.805,
01/01/2000,01:34:08.30,16.47,-66.86,-992.10,201.25,-717.50,-350.0,1,94.828,
01/01/2000,01:34:08.31,16.59,-66.61,-991.86,183.75,-778.75,-280.0,1,94.850,
01/01/2000,01:34:08.32,16.47,-66.61,-991.86,183.75,-595.0,-236.25,1,94.872,
01/01/2000,01:34:08.33,16.35,-66.61,-991.98,201.25,-691.25,-245.0,1,94.894,
01/01/2000,01:34:08.34,16.35,-66.61,-992.10,166.25,-700.0,-341.25,1,94.515,
01/01/2000,01:34:08.35,16.47,-66.49,-992.10,245.0,-568.75,-393.75,1,94.937,
01/01/2000,01:34:08.36,16.71,-66.37,-992.10,183.75,-822.50,-376.25,1,94.561,
01/01/2000,01:34:08.38,16.47,-66.61,-991.86,210.0,-752.50,-411.25,1,94.583,
01/01/2000,01:34:08.39,16.35,-66.61,-991.86,78.75,-796.25,-411.25,1,94.606,
01/01/2000,01:34:08.40,16.35,-66.73,-992.23,227.50,-743.75,-350.0,1,94.628,
01/01/2000,01:34:08.41,16.35,-66.61,-992.35,201.25,-603.75,-367.50,1,94.650,
01/01/2000,01:34:08.42,16.35,-66.73,-992.10,166.25,-761.25,-358.75,1,94.672,
01/01/2000,01:34:08.43,16.47,-66.73,-992.10,218.75,-647.50,-367.50,1,94.694,
01/01/2000,01:34:08.44,16.59,-66.86,-992.10,218.75,-603.75,-271.25,1,94.715,
01/01/2000,01:34:08.45,16.59,-67.10,-992.23,105.0,-778.75,-332.50,1,94.737,
01/01/2000,01:34:08.46,16.59,-67.10,-992.23,43.75,-708.75,-367.50,1,94.758,
01/01/2000,01:34:08.47,16.59,-66.86,-992.10,183.75,-682.50,-332.50,1,94.779,
01/01/2000,01:34:08.48,16.47,-66.73,-991.86,245.0,-778.75,-376.25,1,94.800,
01/01/2000,01:34:08.49,16.35,-66.61,-991.86,157.50,-726.25,-472.50,1,94.821,
01/01/2000,01:34:08.50,16.35,-66.86,-991.98,43.75,-656.25,-341.25,1,94.841,
01/01/2000,01:34:08.51,16.35,-66.86,-991.98,87.50,-682.50,-332.50,1,94.488,
01/01/2000,01:34:08.52,16.35,-66.73,-992.10,87.50,-630.0,-350.0,1,94.510,
01/01/2000,01:34:08.53,16.23,-66.61,-992.10,157.50,-735.0,-341.25,1,94.531,
01/01/2000,01:34:08.55,16.23,-66.61,-992.10,245.0,-761.25,-306.25,1,94.553,
01/01/2000,01:34:08.56,16.10,-66.61,-991.98,157.50,-665.0,-288.75,1,94.574,
01/01/2000,01:34:08.57,16.35,-66.73,-992.10,131.25,-708.75,-411.25,1,94.595,
01/01/2000,01:34:08.58,16.35,-66.73,-991.98,26.25,-778.75,-341.25,1,94.615,
01/01/2000,01:34:08.59,16.35,-66.73,-991.86,218.75,-665.0,-428.75,1,94.636,
01/01/2000,01:34:08.60,16.23,-66.73,-991.74,140.0,-691.25,-367.50,1,94.656,
01/01/2000,01:34:08.61,16.23,-66.86,-991.62,122.50,-796.25,-341.25,1,94.677,
01/01/2000,01:34:08.62,16.35,-66.98,-991.74,148.75,-673.75,-323.75,1,94.697,
01/01/2000,01:34:08.63,16.35,-66.86,-991.86,157.50,-778.75,-376.25,1,94.717,
01/01/2000,01:34:08.64,16.35,-66.98,-991.86,227.50,-761.25,-297.50,1,94.737,
01/01/2000,01:34:08.65,16.35,-67.10,-991.74,113.75,-691.25,-385.0,1,94.757,
01/01/2000,01:34:08.66,16.23,-66.98,-991.74,227.50,-708.75,-411.25,1,94.424,
01/01/2000,01:34:08.67,16.35,-66.86,-992.10,148.75,-708.75,-376.25,1,94.444,
01/01/2000,01:34:08.68,16.23,-66.73,-992.35,210.0,-603.75,-288.75,1,94.465,
01/01/2000,01:34:08.69,16.35,-66.86,-992.35,245.0,-673.75,-245.0,1,94.485,
01/01/2000,01:34:08.70,16.35,-66.86,-992.23,175.0,-708.75,-411.25,1,94.505,
01/01/2000,01:34:08.71,16.35,-66.86,-992.23,236.25,-603.75,-323.75,1,94.526,
01/01/2000,01:34:08.73,16.47,-66.86,-992.23,96.25,-726.25,-341.25,1,94.545,
01/01/2000,01:34:08.74,16.47,-66.61,-992.10,245.0,-656.25,-393.75,1,94.565,
01/01/2000,01:34:08.75,16.35,-66.49,-992.10,43.75,-752.50,-350.0,1,94.585,
01/01/2000,01:34:08.76,16.35,-66.61,-992.10,166.25,-743.75,-236.25,1,94.604,
01/01/2000,01:34:08.77,16.35,-66.61,-992.10,157.50,-796.25,-358.75,1,94.624,
01/01/2000,01:34:08.78,16.35,-66.61,-992.10,148.75,-568.75,-271.25,1,94.643,
01/01/2000,01:34:08.79,16.59,-66.61,-992.10,245.0,-682.50,-358.75,1,94.662,
01/01/2000,01:34:08.80,16.59,-66.49,-992.23,157.50,-630.0,-402.50,1,94.681,
01/01/2000,01:34:08.81,16.71,-66.37,-992.10,122.50,-743.75,-402.50,1,94.700,
01/01/2000,01:34:08.82,16.59,-66.37,-992.10,280.0,-638.75,-376.25,1,94.718,
01/01/2000,01:34:08.83,16.59,-66.25,-992.23,192.50,-647.50,-385.0,1,94.737,
01/01/2000,01:34:08.84,16.59,-66.37,-992.23,192.50,-656.25,-323.75,1,94.755,
01/01/2000,01:34:08.85,16.71,-66.37,-992.23,201.25,-682.50,-341.25,1,94.774,
01/01/2000,01:34:08.86,16.71,-66.61,-992.23,166.25,-647.50,-323.75,1,94.792,
01/01/2000,01:34:08.87,16.59,-66.61,-992.35,157.50,-673.75,-271.25,1,94.483,
01/01/2000,01:34:08.88,16.59,-66.73,-992.35,297.50,-717.50,-402.50,1,94.502,
01/01/2000,01:34:08.90,16.59,-66.49,-992.35,157.50,-656.25,-350.0,1,94.521,
01/01/2000,01:34:08.90,16.35,-66.61,-992.10,122.50,-700.0,-358.75,1,94.539,
01/01/2000,01:34:08.92,16.59,-66.61,-992.10,140.0,-665.0,-332.50,1,94.558,
01/01/2000,01:34:08.93,16.47,-66.73,-991.98,78.75,-708.75,-323.75,1,94.576,
01/01/2000,01:34:08.94,16.35,-66.86,-992.10,61.25,-665.0,-262.50,1,94.595,
01/01/2000,01:34:08.95,16.35,-66.73,-992.10,140.0,-700.0,-350.0,1,94.613,
01/01/2000,01:34:08.96,16.35,-66.61,-991.98,192.50,-630.0,-350.0,1,94.631,
01/01/2000,01:34:08.97,16.35,-66.61,-992.10,192.50,-673.75,-393.75,1,94.649,
01/01/2000,01:34:08.98,16.47,-66.61,-992.10,210.0,-743.75,-358.75,1,94.667,
01/01/2000,01:34:08.99,16.59,-66.61,-992.10,61.25,-612.50,-358.75,1,94.684,
01/01/2000,01:34:09.00,16.47,-66.61,-991.98,157.50,-673.75,-437.50,1,94.702,
01/01/2000,01:34:09.01,16.35,-66.61,-991.86,175.0,-673.75,-385.0,1,94.408,
01/01/2000,01:34:09.02,16.47,-66.49,-991.98,183.75,-752.50,-367.50,1,94.426,
01/01/2000,01:34:09.03,16.59,-66.49,-992.10,105.0,-682.50,-341.25,1,94.444,
01/01/2000,01:34:09.04,16.59,-66.37,-992.10,148.75,-682.50,-332.50,1,94.463,
01/01/2000,01:34:09.06,16.71,-66.49,-991.98,105.0,-665.0,-411.25,1,94.481,
01/01/2000,01:34:09.07,16.59,-66.61,-991.86,131.25,-691.25,-358.75,1,94.498,
01/01/2000,01:34:09.08,16.59,-66.49,-991.98,96.25,-708.75,-253.75,1,94.516,
01/01/2000,01:34:09.09,16.59,-66.37,-992.10,280.0,-568.75,-332.50,1,94.534,
01/01/2000,01:34:09.10,16.59,-66.25,-991.98,52.50,-621.25,-341.25,1,94.551,
01/01/2000,01:34:09.11,16.47,-66.49,-991.86,227.50,-682.50,-402.50,1,94.569,
01/01/2000,01:34:09.12,16.47,-66.61,-991.74,140.0,-665.0,-385.0,1,94.586,
01/01/2000,01:34:09.13,16.71,-66.61,-991.74,96.25,-621.25,-306.25,1,94.603,
01/01/2000,01:34:09.14,16.96,-66.49,-991.86,192.50,-647.50,-350.0,1,94.620,
01/01/2000,01:34:09.15,16.71,-66.37,-991.86,113.75,-787.50,-315.0,1,94.637,
01/01/2000,01:34:09.16,16.59,-66.61,-991.74,148.75,-787.50,-315.0,1,94.654,
01/01/2000,01:34:09.17,16.59,-66.61,-991.62,271.25,-848.75,-420.0,1,94.671,
01/01/2000,01:34:09.18,16.84,-66.61,-991.86,218.75,-700.0,-175.0,1,94.688,
01/01/2000,01:34:09.19,16.71,-66.49,-991.86,245.0,-726.25,-341.25,1,94.704,
01/01/2000,01:34:09.20,16.84,-66.49,-991.74,78.75,-656.25,-385.0,1,94.720,
01/01/2000,01:34:09.21,16.84,-66.49,-991.74,210.0,-717.50,-350.0,1,94.737,
01/01/2000,01:34:09.23,16.84,-66.49,-991.86,175.0,-682.50,-385.0,1,94.462,
01/01/2000,01:34:09.24,16.84,-66.37,-991.98,-8.75,-796.25,-367.50,1,94.479,
01/01/2000,01:34:09.25,16.84,-66.37,-991.98,227.50,-840.0,-227.50,1,94.495,
01/01/2000,01:34:09.26,16.84,-66.49,-991.86,140.0,-708.75,-280.0,1,94.512,
01/01/2000,01:34:09.27,16.59,-66.49,-991.98,43.75,-796.25,-376.25,1,94.529,
01/01/2000,01:34:09.28,16.59,-66.49,-992.10,105.0,-656.25,-341.25,1,94.545,
01/01/2000,01:34:09.29,16.59,-66.49,-992.10,87.50,-595.0,-350.0,1,94.562,
01/01/2000,01:34:09.30,16.71,-66.49,-992.10,210.0,-743.75,-367.50,1,94.578,
01/01/2000,01:34:09.31,16.59,-66.61,-992.10,157.50,-665.0,-297.50,1,94.595,
01/01/2000,01:34:09.32,16.59,-66.61,-991.86,131.25,-726.25,-437.50,1,94.611,
01/01/2000,01:34:09.33,16.59,-66.73,-991.98,201.25,-568.75,-385.0,1,94.627,
01/01/2000,01:34:09.34,16.71,-66.61,-992.23,61.25,-691.25,-350.0,1,94.643,
01/01/2000,01:34:09.35,16.84,-66.61,-992.10,236.25,-673.75,-288.75,1,94.659,
01/01/2000,01:34:09.36,16.71,-66.61,-991.98,192.50,-647.50,-288.75,1,94.395,
01/01/2000,01:34:09.37,16.71,-66.61,-991.86,148.75,-665.0,-385.0,1,94.412,
01/01/2000,01:34:09.38,16.71,-66.49,-991.98,297.50,-735.0,-358.75,1,94.428,
01/01/2000,01:34:09.39,16.84,-66.49,-992.10,157.50,-796.25,-288.75,1,94.444,
01/01/2000,01:34:09.40,16.71,-66.49,-992.10,201.25,-516.25,-271.25,1,94.461,
01/01/2000,01:34:09.41,16.59,-66.73,-991.98,306.25,-743.75,-306.25,1,94.477,
01/01/2000,01:34:09.42,16.59,-66.73,-992.10,166.25,-603.75,-306.25,1,94.493,
01/01/2000,01:34:09.44,16.59,-66.73,-992.23,245.0,-735.0,-227.50,1,94.509,
01/01/2000,01:34:09.45,16.71,-66.86,-992.35,288.75,-656.25,-245.0,1,94.524,
01/01/2000,01:34:09.46,16.84,-66.73,-991.98,148.75,-743.75,-385.0,1,94.540,
01/01/2000,01:34:09.47,16.71,-66.86,-991.86,210.0,-691.25,-358.75,1,94.556,
01/01/2000,01:34:09.48,16.84,-66.73,-991.86,61.25,-717.50,-350.0,1,94.571,
01/01/2000,01:34:09.49,16.84,-66.49,-991.98,35.0,-743.75,-376.25,1,94.587,
01/01/2000,01:34:09.50,16.84,-66.61,-991.86,122.50,-630.0,-367.50,1,94.602,
01/01/2000,01:34:09.51,16.59,-66.37,-991.86,96.25,-761.25,-210.0,1,94.618,
01/01/2000,01:34:09.52,16.59,-66.61,-991.86,140.0,-691.25,-350.0,1,94.633,
01/01/2000,01:34:09.53,16.71,-66.49,-991.74,183.75,-708.75,-455.0,1,94.648,
01/01/2000,01:34:09.54,16.84,-66.61,-991.86,140.0,-691.25,-297.50,1,94.663,
01/01/2000,01:34:09.55,16.71,-66.49,-991.86,227.50,-700.0,-358.75,1,94.678,
01/01/2000,01:34:09.57,16.35,-66.61,-992.10,166.25,-726.25,-393.75,1,94.429,
01/01/2000,01:34:09.58,16.59,-66.25,-991.98,201.25,-621.25,-358.75,1,94.444,
01/01/2000,01:34:09.59,16.84,-66.37,-991.74,157.50,-638.75,-262.50,1,94.460,
01/01/2000,01:34:09.60,16.84,-66.61,-991.74,201.25,-700.0,-350.0,1,94.475,
01/01/2000,01:34:09.61,16.59,-66.61,-992.10,122.50,-726.25,-393.75,1,94.490,
01/01/2000,01:34:09.62,16.47,-66.61,-992.10,280.0,-656.25,-428.75,1,94.505,
01/01/2000,01:34:09.63,16.59,-66.00,-992.10,52.50,-621.25,-341.25,1,94.521,
01/01/2000,01:34:09.64,16.47,-66.12,-991.98,253.75,-752.50,-280.0,1,94.536,
01/01/2000,01:34:09.65,16.47,-66.37,-991.74,131.25,-673.75,-315.0,1,94.293,
01/01/2000,01:34:09.66,16.47,-66.61,-991.74,61.25,-665.0,-385.0,1,94.309,
01/01/2000,01:34:09.67,16.59,-66.61,-991.86,210.0,-691.25,-393.75,1,94.324,
01/01/2000,01:34:09.68,16.59,-66.37,-991.86,218.75,-542.50,-306.25,1,94.340,
01/01/2000,01:34:09.69,16.59,-66.25,-991.86,113.75,-665.0,-402.50,1,94.355,
01/01/2000,01:34:09.70,16.59,-66.00,-991.86,201.25,-682.50,-306.25,1,94.370,
01/01/2000,01:34:09.72,16.47,-66.25,-991.86,96.25,-761.25,-245.0,1,94.385,
01/01/2000,01:34:09.73,16.47,-66.49,-991.74,148.75,-638.75,-271.25,1,94.400,
01/01/2000,01:34:09.74,16.47,-66.49,-991.98,105.0,-700.0,-376.25,1,94.415,
01/01/2000,01:34:09.75,16.59,-66.49,-991.74,175.0,-708.75,-358.75,1,94.430,
01/01/2000,01:34:09.76,16.47,-66.25,-991.74,245.0,-656.25,-350.0,1,94.444,
01/01/2000,01:34:09.77,16.35,-66.37,-991.62,70.0,-673.75,-280.0,1,94.459,
01/01/2000,01:34:09.78,16.35,-66.37,-991.86,105.0,-700.0,-236.25,1,94.474,
01/01/2000,01:34:09.79,16.10,-66.49,-991.86,218.75,-621.25,-446.25,1,94.488,
01/01/2000,01:34:09.80,16.35,-66.37,-991.62,131.25,-665.0,-376.25,1,94.503,
01/01/2000,01:34:09.81,16.59,-66.37,-991.49,192.50,-673.75,-332.50,1,94.517,
01/01/2000,01:34:09.82,16.59,-66.37,-991.49,52.50,-673.75,-341.25,1,94.531,
01/01/2000,01:34:09.83,16.59,-66.61,-991.62,157.50,-726.25,-332.50,1,94.545,
01/01/2000,01:34:09.84,16.59,-66.61,-991.86,253.75,-691.25,-446.25,1,94.560,
01/01/2000,01:34:09.85,16.71,-66.49,-992.10,183.75,-551.25,-332.50,1,94.574,
01/01/2000,01:34:09.86,16.84,-66.37,-991.62,210.0,-717.50,-393.75,1,94.344,
01/01/2000,01:34:09.87,16.71,-66.49,-991.49,-52.50,-638.75,-306.25,1,94.359,
01/01/2000,01:34:09.88,16.71,-66.61,-991.37,87.50,-647.50,-411.25,1,94.373,
01/01/2000,01:34:09.90,16.71,-66.61,-991.74,271.25,-691.25,-350.0,1,94.388,
01/01/2000,01:34:09.90,16.84,-66.49,-991.86,271.25,-805.0,-218.75,1,94.402,
01/01/2000,01:34:09.92,16.71,-66.37,-991.74,227.50,-656.25,-280.0,1,94.416,
01/01/2000,01:34:09.93,16.59,-66.25,-991.62,78.75,-761.25,-227.50,1,94.430,
01/01/2000,01:34:09.94,16.71,-66.49,-991.62,105.0,-630.0,-385.0,1,94.444,
01/01/2000,01:34:09.95,16.71,-66.61,-991.74,17.50,-647.50,-385.0,1,94.458,
01/01/2000,01:34:09.96,16.84,-66.61,-992.10,183.75,-542.50,-358.75,1,94.472,
01/01/2000,01:34:09.97,16.84,-66.61,-992.10,297.50,-708.75,-428.75,1,94.486,
01/01/2000,01:34:09.98,16.59,-66.12,-991.98,122.50,-612.50,-315.0,1,94.500,
01/01/2000,01:34:09.99,16.59,-66.37,-991.86,157.50,-726.25,-332.50,1,94.514,
01/01/2000,01:34:10.00,16.59,-66.49,-991.98,122.50,-778.75,-420.0,1,94.293,
01/01/2000,01:34:10.01,16.59,-66.73,-992.10,166.25,-656.25,-332.50,1,94.307,
01/01/2000,01:34:10.02,16.59,-66.73,-991.98,218.75,-700.0,-385.0,1,94.321,
01/01/2000,01:34:10.03,16.47,-66.49,-991.86,131.25,-691.25,-253.75,1,94.335,
01/01/2000,01:34:10.04,16.47,-66.25,-991.86,105.0,-647.50,-210.0,1,94.349,
01/01/2000,01:34:10.05,16.59,-66.37,-991.86,183.75,-638.75,-315.0,1,94.363,
01/01/2000,01:34:10.06,16.47,-66.61,-991.98,140.0,-743.75,-315.0,1,94.377,
01/01/2000,01:34:10.08,16.59,-66.86,-991.86,35.0,-665.0,-288.75,1,94.390,
01/01/2000,01:34:10.09,16.59,-66.37,-991.62,61.25,-743.75,-350.0,1,94.175,
01/01/2000,01:34:10.10,16.47,-66.49,-991.62,280.0,-700.0,-280.0,1,94.189,
01/01/2000,01:34:10.11,16.59,-66.37,-991.86,70.0,-682.50,-236.25,1,94.203,
01/01/2000,01:34:10.12,16.47,-66.73,-991.98,148.75,-708.75,-376.25,1,94.217,
01/01/2000,01:34:10.13,16.35,-66.86,-992.10,166.25,-691.25,-402.50,1,94.231,
01/01/2000,01:34:10.14,16.35,-66.61,-992.10,105.0,-595.0,-385.0,1,94.245,
01/01/2000,01:34:10.15,16.35,-66.61,-991.86,245.0,-665.0,-236.25,1,94.258,
01/01/2000,01:34:10.16,16.35,-66.37,-991.86,218.75,-700.0,-271.25,1,94.272,
01/01/2000,01:34:10.17,16.23,-66.61,-992.10,227.50,-752.50,-437.50,1,94.286,
01/01/2000,01:34:10.18,16.23,-66.73,-992.10,-35.0,-717.50,-280.0,1,94.299,
01/01/2000,01:34:10.19,16.47,-66.49,-992.23,192.50,-560.0,-358.75,1,94.313,
01/01/2000,01:34:10.20,16.47,-66.25,-991.98,166.25,-700.0,-227.50,1,94.326,
01/01/2000,01:34:10.22,16.47,-66.25,-991.62,61.25,-743.75,-315.0,1,94.340,
01/01/2000,01:34:10.23,16.47,-66.37,-991.62,227.50,-647.50,-367.50,1,94.353,
01/01/2000,01:34:10.24,16.35,-66.37,-991.86,323.75,-665.0,-323.75,1,94.366,
01/01/2000,01:34:10.25,16.59,-66.37,-992.10,192.50,-630.0,-402.50,1,94.379,
01/01/2000,01:34:10.26,16.71,-66.12,-992.10,201.25,-673.75,-280.0,1,94.393,
01/01/2000,01:34:10.27,16.47,-66.37,-991.98,323.75,-717.50,-306.25,1,94.406,
01/01/2000,01:34:10.28,16.59,-66.37,-991.86,87.50,-665.0,-498.75,1,94.419,
01/01/2000,01:34:10.29,16.84,-66.49,-991.74,236.25,-840.0,-367.50,1,94.432,
01/01/2000,01:34:10.30,16.96,-66.37,-991.86,201.25,-682.50,-245.0,1,94.444,
01/01/2000,01:34:10.31,16.59,-66.61,-991.86,183.75,-761.25,-446.25,1,94.457,
01/01/2000,01:34:10.32,16.35,-66.61,-991.62,140.0,-726.25,-420.0,1,94.470,
01/01/2000,01:34:10.33,16.47,-66.37,-991.74,70.0,-656.25,-271.25,1,94.483,
01/01/2000,01:34:10.34,16.47,-66.37,-991.62,201.25,-665.0,-306.25,1,94.495,
01/01/2000,01:34:10.35,16.71,-66.61,-991.49,26.25,-656.25,-315.0,1,94.292,
01/01/2000,01:34:10.36,16.71,-66.73,-991.49,105.0,-673.75,-437.50,1,94.305,
01/01/2000,01:34:10.37,16.59,-66.86,-991.62,218.75,-770.0,-323.75,1,94.318,
01/01/2000,01:34:10.38,16.47,-66.61,-991.86,245.0,-691.25,-402.50,1,94.331,
01/01/2000,01:34:10.39,16.59,-66.61,-992.10,227.50,-682.50,-323.75,1,94.344,
01/01/2000,01:34:10.40,16.84,-66.49,-991.98,210.0,-700.0,-262.50,1,94.357,
01/01/2000,01:34:10.41,16.59,-66.49,-991.98,175.0,-638.75,-367.50,1,94.369,
01/01/2000,01:34:10.43,16.59,-66.61,-991.98,183.75,-647.50,-402.50,1,94.382,
01/01/2000,01:34:10.44,16.47,-66.37,-991.74,105.0,-682.50,-315.0,1,94.395,
01/01/2000,01:34:10.45,16.35,-66.37,-991.49,236.25,-717.50,-393.75,1,94.407,
01/01/2000,01:34:10.46,16.47,-66.37,-991.37,140.0,-770.0,-306.25,1,94.420,
01/01/2000,01:34:10.47,16.59,-66.73,-991.74,122.50,-805.0,-376.25,1,94.432,
01/01/2000,01:34:10.48,16.84,-66.86,-992.10,166.25,-665.0,-218.75,1,94.444,
01/01/2000,01:34:10.49,16.71,-66.86,-991.98,227.50,-682.50,-253.75,1,94.457,
01/01/2000,01:34:10.50,16.47,-66.61,-991.62,122.50,-857.50,-376.25,1,94.469,
01/01/2000,01:34:10.51,16.47,-66.37,-991.62,105.0,-708.75,-428.75,1,94.273,
01/01/2000,01:34:10.52,16.71,-66.37,-991.86,236.25,-735.0,-271.25,1,94.493,
01/01/2000,01:34:10.53,16.71,-66.61,-992.35,245.0,-778.75,-245.0,1,94.298,
01/01/2000,01:34:10.54,16.59,-66.73,-992.10,122.50,-612.50,-367.50,1,94.311,
01/01/2000,01:34:10.55,16.35,-66.86,-991.74,-8.75,-700.0,-455.0,1,94.323,
01/01/2000,01:34:10.57,16.35,-66.37,-991.74,183.75,-717.50,-402.50,1,94.336,
01/01/2000,01:34:10.58,16.59,-66.37,-991.98,87.50,-682.50,-376.25,1,94.348,
01/01/2000,01:34:10.59,16.47,-66.37,-992.35,157.50,-770.0,-367.50,1,94.156,
01/01/2000,01:34:10.60,16.23,-66.73,-992.10,271.25,-735.0,-437.50,1,94.168,
01/01/2000,01:34:10.61,16.35,-66.49,-991.74,122.50,-717.50,-367.50,1,94.181,
01/01/2000,01:34:10.62,16.59,-66.37,-991.74,175.0,-630.0,-262.50,1,94.194,
01/01/2000,01:34:10.63,16.59,-66.49,-991.98,122.50,-752.50,-332.50,1,94.206,
01/01/2000,01:34:10.65,16.47,-66.49,-991.98,113.75,-717.50,-385.0,1,94.218,
01/01/2000,01:34:10.66,16.35,-66.61,-991.86,157.50,-595.0,-341.25,1,94.231,
01/01/2000,01:34:10.67,16.35,-66.49,-991.62,122.50,-638.75,-315.0,1,94.243,
01/01/2000,01:34:10.68,16.47,-66.49,-991.62,113.75,-813.75,-271.25,1,94.255,
01/01/2000,01:34:10.69,16.71,-66.37,-991.49,288.75,-673.75,-280.0,1,94.268,
01/01/2000,01:34:10.70,16.71,-66.61,-991.62,78.75,-656.25,-341.25,1,94.280,
01/01/2000,01:34:10.71,16.59,-66.86,-991.62,122.50,-726.25,-376.25,1,94.292,
01/01/2000,01:34:10.72,16.47,-66.86,-991.74,183.75,-822.50,-455.0,1,94.304,
01/01/2000,01:34:10.73,16.84,-66.37,-991.62,61.25,-647.50,-323.75,1,94.316,
01/01/2000,01:34:10.74,16.84,-66.37,-991.62,201.25,-813.75,-367.50,1,94.328,
01/01/2000,01:34:10.75,16.71,-66.37,-991.62,166.25,-577.50,-367.50,1,94.340,
01/01/2000,01:34:10.76,16.59,-66.49,-991.74,210.0,-717.50,-411.25,1,94.351,
01/01/2000,01:34:10.77,16.71,-66.61,-991.86,140.0,-717.50,-376.25,1,94.363,
01/01/2000,01:34:10.78,16.71,-66.37,-991.86,113.75,-647.50,-297.50,1,94.375,
01/01/2000,01:34:10.79,16.71,-66.12,-991.98,122.50,-612.50,-393.75,1,94.387,
01/01/2000,01:34:10.80,16.84,-66.12,-991.86,175.0,-743.75,-332.50,1,94.398,
01/01/2000,01:34:10.81,16.84,-66.25,-991.86,175.0,-665.0,-323.75,1,94.410,
01/01/2000,01:34:10.82,16.96,-66.49,-991.86,210.0,-673.75,-446.25,1,94.421,
01/01/2000,01:34:10.83,16.84,-66.61,-991.98,236.25,-647.50,-393.75,1,94.433,
01/01/2000,01:34:10.84,16.84,-66.49,-992.10,236.25,-656.25,-271.25,1,94.444,
01/01/2000,01:34:10.86,16.59,-66.12,-991.74,113.75,-831.25,-350.0,1,94.262,
01/01/2000,01:34:10.87,16.71,-66.25,-991.62,166.25,-647.50,-358.75,1,94.274,
01/01/2000,01:34:10.88,16.71,-66.37,-991.86,297.50,-717.50,-385.0,1,94.286,
01/01/2000,01:34:10.89,16.84,-66.49,-991.98,140.0,-708.75,-393.75,1,94.297,
01/01/2000,01:34:10.90,16.71,-66.61,-991.86,43.75,-603.75,-411.25,1,94.309,
01/01/2000,01:34:10.91,16.47,-66.61,-991.74,175.0,-656.25,-350.0,1,94.320,
01/01/2000,01:34:10.92,16.59,-66.49,-991.98,210.0,-708.75,-402.50,1,94.332,
01/01/2000,01:34:10.93,16.71,-66.37,-991.98,315.0,-656.25,-350.0,1,94.343,
01/01/2000,01:34:10.94,16.71,-66.37,-991.98,113.75,-673.75,-411.25,1,94.355,
01/01/2000,01:34:10.95,16.47,-66.49,-991.86,227.50,-542.50,-367.50,1,94.366,
01/01/2000,01:34:10.96,16.35,-66.49,-991.62,236.25,-752.50,-376.25,1,94.378,
01/01/2000,01:34:10.97,16.47,-66.49,-991.37,122.50,-691.25,-437.50,1,94.389,
01/01/2000,01:34:10.98,16.59,-66.12,-991.49,148.75,-700.0,-288.75,1,94.400,
01/01/2000,01:34:10.99,16.84,-66.37,-991.62,157.50,-752.50,-271.25,1,94.223,
01/01/2000,01:34:11.00,16.59,-66.73,-991.86,87.50,-691.25,-297.50,1,94.235,
01/01/2000,01:34:11.01,16.35,-66.86,-991.86,192.50,-638.75,-385.0,1,94.246,
01/01/2000,01:34:11.02,16.47,-66.49,-991.74,297.50,-735.0,-455.0,1,94.257,
01/01/2000,01:34:11.03,16.59,-66.12,-991.74,17.50,-682.50,-297.50,1,94.269,
01/01/2000,01:34:11.04,16.59,-66.12,-991.74,148.75,-691.25,-350.0,1,94.280,
01/01/2000,01:34:11.05,16.71,-66.49,-991.62,262.50,-603.75,-280.0,1,94.291,
01/01/2000,01:34:11.07,16.59,-66.73,-991.62,236.25,-700.0,-306.25,1,94.303,
01/01/2000,01:34:11.08,16.59,-66.61,-991.62,253.75,-761.25,-463.75,1,94.314,
01/01/2000,01:34:11.09,16.59,-66.37,-991.62,96.25,-542.50,-350.0,1,94.325,
01/01/2000,01:34:11.10,16.59,-66.12,-991.74,87.50,-726.25,-183.75,1,94.152,
01/01/2000,01:34:11.12,16.47,-66.37,-991.86,131.25,-735.0,-367.50,1,94.163,
01/01/2000,01:34:11.13,16.35,-66.61,-991.74,157.50,-726.25,-393.75,1,94.175,
01/01/2000,01:34:11.14,16.47,-66.61,-991.49,96.25,-638.75,-367.50,1,94.186,
01/01/2000,01:34:11.15,16.47,-66.61,-991.25,218.75,-752.50,-341.25,1,94.197,
01/01/2000,01:34:11.16,16.47,-66.37,-991.37,210.0,-638.75,-297.50,1,94.208,
01/01/2000,01:34:11.17,16.47,-66.49,-991.62,157.50,-673.75,-446.25,1,94.220,
01/01/2000,01:34:11.18,16.59,-66.61,-991.74,131.25,-778.75,-393.75,1,94.231,
01/01/2000,01:34:11.19,16.59,-66.61,-991.74,131.25,-691.25,-315.0,1,94.242,
01/01/2000,01:34:11.20,16.71,-66.61,-991.62,306.25,-717.50,-376.25,1,94.253,
01/01/2000,01:34:11.21,16.84,-66.37,-991.49,122.50,-682.50,-350.0,1,94.264,
01/01/2000,01:34:11.22,16.71,-66.61,-991.37,192.50,-735.0,-341.25,1,94.275,
01/01/2000,01:34:11.23,16.59,-66.49,-991.37,148.75,-752.50,-341.25,1,94.286,
01/01/2000,01:34:11.24,16.35,-66.61,-991.62,61.25,-691.25,-376.25,1,94.297,
01/01/2000,01:34:11.25,16.47,-66.61,-991.74,140.0,-665.0,-341.25,1,94.307,
01/01/2000,01:34:11.26,16.59,-66.61,-991.62,105.0,-560.0,-411.25,1,94.318,
01/01/2000,01:34:11.27,16.59,-66.49,-991.49,105.0,-682.50,-306.25,1,94.329,
01/01/2000,01:34:11.28,16.35,-66.86,-991.62,43.75,-595.0,-376.25,1,94.162,
01/01/2000,01:34:11.29,16.35,-66.73,-991.86,262.50,-630.0,-402.50,1,94.173,
01/01/2000,01:34:11.30,16.35,-66.61,-991.86,157.50,-708.75,-446.25,1,94.184,
01/01/2000,01:34:11.31,16.47,-66.37,-991.62,131.25,-708.75,-385.0,1,94.195,
01/01/2000,01:34:11.32,16.35,-66.49,-991.49,122.50,-743.75,-245.0,1,94.206,
01/01/2000,01:34:11.33,16.47,-66.73,-991.62,210.0,-647.50,-472.50,1,94.216,
01/01/2000,01:34:11.35,16.59,-66.73,-991.62,218.75,-700.0,-393.75,1,94.227,
01/01/2000,01:34:11.36,16.59,-66.61,-991.62,192.50,-770.0,-350.0,1,94.238,
01/01/2000,01:34:11.37,16.35,-66.37,-991.62,253.75,-752.50,-315.0,1,94.249,
01/01/2000,01:34:11.38,16.35,-66.25,-991.37,140.0,-682.50,-218.75,1,94.259,
01/01/2000,01:34:11.39,16.35,-66.37,-991.37,236.25,-682.50,-385.0,1,94.270,
01/01/2000,01:34:11.40,16.47,-66.49,-991.62,113.75,-717.50,-420.0,1,94.280,
01/01/2000,01:34:11.41,16.59,-66.73,-991.86,140.0,-717.50,-358.75,1,94.291,
01/01/2000,01:34:11.42,16.59,-66.49,-991.86,157.50,-682.50,-350.0,1,94.301,
01/01/2000,01:34:11.43,16.59,-66.37,-991.74,122.50,-691.25,-367.50,1,94.312,
01/01/2000,01:34:11.44,16.71,-66.37,-991.74,288.75,-603.75,-306.25,1,94.322,
01/01/2000,01:34:11.45,16.71,-66.25,-991.98,192.50,-708.75,-315.0,1,94.333,
01/01/2000,01:34:11.46,16.84,-66.61,-992.10,122.50,-717.50,-455.0,1,94.343,
01/01/2000,01:34:11.47,16.84,-66.37,-991.98,201.25,-805.0,-393.75,1,94.353,
01/01/2000,01:34:11.48,16.71,-66.25,-991.62,61.25,-735.0,-323.75,1,94.364,
01/01/2000,01:34:11.50,16.59,-66.12,-991.37,87.50,-682.50,-350.0,1,94.203,
01/01/2000,01:34:11.50,16.59,-66.25,-991.86,157.50,-735.0,-253.75,1,94.213,
01/01/2000,01:34:11.52,16.84,-66.37,-992.10,-8.75,-647.50,-245.0,1,94.224,
01/01/2000,01:34:11.53,16.71,-66.61,-992.10,271.25,-551.25,-350.0,1,94.234,
01/01/2000,01:34:11.54,16.35,-66.49,-991.86,96.25,-630.0,-437.50,1,94.245,
01/01/2000,01:34:11.55,16.59,-66.61,-991.74,288.75,-630.0,-376.25,1,94.255,
01/01/2000,01:34:11.56,16.71,-66.37,-991.98,131.25,-647.50,-315.0,1,94.265,
01/01/2000,01:34:11.57,16.59,-66.49,-992.23,227.50,-708.75,-280.0,1,94.275,
01/01/2000,01:34:11.58,16.47,-66.61,-992.10,43.75,-638.75,-358.75,1,94.286,
01/01/2000,01:34:11.59,16.47,-66.61,-991.74,113.75,-735.0,-402.50,1,94.296,
01/01/2000,01:34:11.60,16.59,-66.61,-991.74,131.25,-516.25,-341.25,1,94.306,
01/01/2000,01:34:11.61,16.84,-66.37,-991.86,323.75,-665.0,-411.25,1,94.149,
01/01/2000,01:34:11.62,16.71,-66.49,-991.86,105.0,-752.50,-210.0,1,94.159,
01/01/2000,01:34:11.64,16.47,-66.61,-991.37,218.75,-866.25,-350.0,1,94.170,
01/01/2000,01:34:11.65,16.35,-66.49,-991.49,140.0,-691.25,-297.50,1,94.180,
01/01/2000,01:34:11.66,16.35,-66.37,-991.86,166.25,-726.25,-350.0,1,94.190,
01/01/2000,01:34:11.67,16.84,-66.61,-991.86,183.75,-743.75,-236.25,1,94.200,
01/01/2000,01:34:11.68,16.84,-66.37,-991.49,288.75,-647.50,-428.75,1,94.211,
01/01/2000,01:34:11.69,16.47,-66.73,-991.37,87.50,-717.50,-78.75,1,94.221,
01/01/2000,01:34:11.70,16.59,-66.98,-991.37,227.50,-691.25,-568.75,1,94.231,
01/01/2000,01:34:11.71,16.59,-66.61,-991.98,245.0,-700.0,-472.50,1,94.241,
01/01/2000,01:34:11.72,16.96,-66.37,-992.10,-17.50,-673.75,-402.50,1,94.251,
01/01/2000,01:34:11.73,16.96,-66.37,-991.86,315.0,-717.50,-262.50,1,94.261,
01/01/2000,01:34:11.74,16.47,-66.37,-991.62,271.25,-700.0,-262.50,1,94.271,
01/01/2000,01:34:11.75,16.71,-66.73,-991.37,192.50,-700.0,-463.75,1,94.281,
01/01/2000,01:34:11.76,16.47,-66.61,-991.74,262.50,-735.0,-288.75,1,94.291,
01/01/2000,01:34:11.77,16.71,-66.37,-991.86,201.25,-603.75,-175.0,1,94.301,
01/01/2000,01:34:11.78,16.59,-66.37,-991.74,218.75,-691.25,-385.0,1,94.148,
01/01/2000,01:34:11.79,16.10,-66.37,-991.62,140.0,-682.50,-245.0,1,94.320,
01/01/2000,01:34:11.80,16.47,-66.37,-991.62,52.50,-717.50,-411.25,1,94.168,
01/01/2000,01:34:11.81,16.59,-66.37,-991.98,280.0,-743.75,-271.25,1,94.178,
01/01/2000,01:34:11.82,16.71,-66.37,-992.10,-35.0,-682.50,-253.75,1,94.188,
01/01/2000,01:34:11.83,16.59,-66.73,-991.98,376.25,-665.0,-472.50,1,94.198,
01/01/2000,01:34:11.85,16.35,-66.25,-991.86,166.25,-525.0,-376.25,1,94.208,
01/01/2000,01:34:11.86,16.59,-66.12,-991.74,105.0,-752.50,-236.25,1,94.218,
01/01/2000,01:34:11.87,16.71,-66.25,-992.10,175.0,-673.75,-323.75,1,94.228,
01/01/2000,01:34:11.88,16.59,-66.25,-991.98,131.25,-673.75,-236.25,1,94.237,
01/01/2000,01:34:11.89,16.71,-66.61,-991.62,148.75,-700.0,-393.75,1,94.247,
01/01/2000,01:34:11.90,16.47,-66.61,-991.62,26.25,-682.50,-341.25,1,94.257,
01/01/2000,01:34:11.91,16.59,-66.37,-991.74,148.75,-647.50,-350.0,1,94.266,
01/01/2000,01:34:11.92,16.59,-66.00,-991.86,148.75,-691.25,-315.0,1,94.276,
01/01/2000,01:34:11.93,16.59,-66.25,-991.86,0.0,-787.50,-236.25,1,94.286,
01/01/2000,01:34:11.94,16.59,-66.49,-991.62,157.50,-787.50,-332.50,1,94.295,
01/01/2000,01:34:11.95,16.35,-66.61,-991.37,148.75,-752.50,-393.75,1,94.305,
01/01/2000,01:34:11.96,16.71,-66.49,-991.62,192.50,-691.25,-411.25,1,94.314,
01/01/2000,01:34:11.97,16.84,-66.25,-991.98,122.50,-542.50,-297.50,1,94.324,
01/01/2000,01:34:11.98,16.59,-66.37,-991.86,218.75,-665.0,-350.0,1,94.176,
01/01/2000,01:34:11.99,16.59,-66.37,-991.62,131.25,-603.75,-297.50,1,94.186,
01/01/2000,01:34:12.00,16.59,-66.25,-991.49,113.75,-647.50,-271.25,1,94.196,
01/01/2000,01:34:12.01,16.96,-66.37,-991.49,350.0,-673.75,-280.0,1,94.205,
01/01/2000,01:34:12.02,16.84,-66.37,-991.86,52.50,-831.25,-236.25,1,94.215,
01/01/2000,01:34:12.03,16.96,-66.49,-991.86,87.50,-708.75,-367.50,1,94.224,
01/01/2000,01:34:12.04,16.84,-66.73,-991.74,201.25,-726.25,-323.75,1,94.234,
01/01/2000,01:34:12.06,16.59,-66.37,-991.49,78.75,-726.25,-306.25,1,94.243,
01/01/2000,01:34:12.07,16.84,-66.49,-991.49,166.25,-612.50,-455.0,1,94.253,
01/01/2000,01:34:12.08,16.59,-66.12,-991.62,70.0,-726.25,-227.50,1,94.262,
01/01/2000,01:34:12.09,16.71,-66.61,-991.62,192.50,-752.50,-420.0,1,94.272,
01/01/2000,01:34:12.10,16.59,-66.98,-991.74,201.25,-700.0,-411.25,1,94.281,
01/01/2000,01:34:12.11,16.59,-66.61,-991.62,140.0,-595.0,-551.25,1,94.290,
01/01/2000,01:34:12.13,16.47,-66.61,-991.74,245.0,-665.0,-341.25,1,93.994,
01/01/2000,01:34:12.14,16.47,-66.49,-991.86,192.50,-700.0,-358.75,1,94.003,
01/01/2000,01:34:12.15,16.47,-66.73,-991.62,236.25,-805.0,-350.0,1,94.013,
01/01/2000,01:34:12.16,16.59,-66.61,-991.37,105.0,-682.50,-297.50,1,94.023,
01/01/2000,01:34:12.17,16.35,-66.73,-991.49,306.25,-621.25,-516.25,1,94.032,
01/01/2000,01:34:12.18,16.35,-66.86,-991.86,227.50,-752.50,-350.0,1,94.042,
01/01/2000,01:34:12.19,16.71,-66.49,-991.86,52.50,-621.25,-385.0,1,94.051,
01/01/2000,01:34:12.21,16.96,-66.37,-991.74,210.0,-630.0,-262.50,1,94.061,
01/01/2000,01:34:12.22,16.59,-66.73,-991.62,227.50,-717.50,-323.75,1,94.071,
01/01/2000,01:34:12.23,16.47,-66.73,-991.62,0.0,-778.75,-393.75,1,94.080,
01/01/2000,01:34:12.24,16.84,-66.73,-991.74,148.75,-700.0,-376.25,1,94.089,
01/01/2000,01:34:12.25,16.84,-66.37,-991.86,113.75,-708.75,-210.0,1,94.099,
01/01/2000,01:34:12.26,16.59,-66.12,-991.86,87.50,-726.25,-280.0,1,94.108,
01/01/2000,01:34:12.27,16.35,-66.37,-991.86,201.25,-638.75,-411.25,1,94.118,
01/01/2000,01:34:12.28,16.47,-66.12,-991.74,43.75,-595.0,-236.25,1,94.127,
01/01/2000,01:34:12.29,16.71,-66.61,-991.62,122.50,-665.0,-376.25,1,94.136,
01/01/2000,01:34:12.30,16.71,-66.61,-991.74,113.75,-700.0,-288.75,1,94.146,
01/01/2000,01:34:12.31,16.71,-66.49,-991.74,148.75,-761.25,-455.0,1,94.155,
01/01/2000,01:34:12.32,16.59,-66.61,-991.62,140.0,-691.25,-376.25,1,94.164,
01/01/2000,01:34:12.33,16.35,-66.37,-991.62,113.75,-726.25,-236.25,1,94.173,
01/01/2000,01:34:12.34,16.35,-66.61,-991.74,210.0,-708.75,-463.75,1,94.182,
01/01/2000,01:34:12.35,16.71,-66.49,-991.86,166.25,-656.25,-253.75,1,94.192,
01/01/2000,01:34:12.36,16.71,-66.73,-991.62,288.75,-752.50,-271.25,1,94.201,
01/01/2000,01:34:12.37,16.47,-66.86,-991.49,218.75,-752.50,-358.75,1,94.210,
01/01/2000,01:34:12.38,16.35,-66.86,-991.49,192.50,-778.75,-358.75,1,94.219,
01/01/2000,01:34:12.39,16.71,-66.61,-991.86,367.50,-700.0,-393.75,1,94.081,
01/01/2000,01:34:12.40,16.84,-66.37,-991.98,122.50,-673.75,-288.75,1,94.237,
01/01/2000,01:34:12.42,16.84,-66.61,-991.62,122.50,-787.50,-376.25,1,94.099,
01/01/2000,01:34:12.43,16.71,-66.86,-991.25,78.75,-708.75,-323.75,1,94.109,
01/01/2000,01:34:12.44,16.84,-66.86,-991.25,245.0,-805.0,-428.75,1,94.118,
01/01/2000,01:34:12.45,16.71,-66.86,-991.49,192.50,-848.75,-411.25,1,94.127,
01/01/2000,01:34:12.46,16.96,-66.49,-991.62,87.50,-743.75,-411.25,1,94.136,
01/01/2000,01:34:12.47,16.71,-66.49,-991.62,271.25,-630.0,-323.75,1,94.145,
01/01/2000,01:34:12.48,16.47,-66.73,-991.62,131.25,-603.75,-393.75,1,94.154,
01/01/2000,01:34:12.49,16.59,-66.73,-991.37,253.75,-665.0,-507.50,1,94.163,
01/01/2000,01:34:12.50,16.71,-66.61,-991.49,192.50,-691.25,-315.0,1,94.172,
01/01/2000,01:34:12.51,16.71,-66.49,-991.49,78.75,-796.25,-350.0,1,94.181,
01/01/2000,01:34:12.52,16.35,-66.49,-991.37,236.25,-665.0,-367.50,1,94.190,
01/01/2000,01:34:12.53,16.35,-66.37,-991.37,61.25,-848.75,-227.50,1,94.198,
01/01/2000,01:34:12.54,16.47,-66.49,-991.49,236.25,-612.50,-428.75,1,94.207,
01/01/2000,01:34:12.55,16.59,-66.37,-991.74,105.0,-673.75,-350.0,1,94.073,
01/01/2000,01:34:12.56,16.84,-66.61,-991.49,245.0,-770.0,-323.75,1,94.082,
01/01/2000,01:34:12.57,16.59,-66.61,-991.37,131.25,-682.50,-446.25,1,94.091,
01/01/2000,01:34:12.58,16.47,-66.61,-991.49,192.50,-743.75,-402.50,1,94.100,
01/01/2000,01:34:12.59,16.59,-66.49,-991.74,105.0,-700.0,-437.50,1,94.109,
01/01/2000,01:34:12.60,16.59,-66.25,-991.86,78.75,-682.50,-253.75,1,94.118,
01/01/2000,01:34:12.61,16.59,-66.37,-991.62,166.25,-647.50,-245.0,1,94.127,
01/01/2000,01:34:12.63,16.35,-66.61,-991.49,297.50,-665.0,-402.50,1,94.135,
01/01/2000,01:34:12.64,16.71,-66.86,-991.62,52.50,-726.25,-402.50,1,94.144,
01/01/2000,01:34:12.65,16.71,-66.61,-991.74,218.75,-691.25,-315.0,1,94.012,
01/01/2000,01:34:12.66,16.59,-66.61,-991.86,183.75,-743.75,-402.50,1,94.021,
01/01/2000,01:34:12.67,16.59,-66.49,-991.86,166.25,-700.0,-332.50,1,94.030,
01/01/2000,01:34:12.68,16.59,-66.37,-991.62,157.50,-673.75,-288.75,1,94.039,
01/01/2000,01:34:12.69,16.59,-66.61,-991.74,166.25,-673.75,-341.25,1,94.048,
01/01/2000,01:34:12.70,16.59,-66.86,-991.86,131.25,-673.75,-315.0,1,94.056,
01/01/2000,01:34:12.71,16.59,-66.61,-991.86,122.50,-665.0,-385.0,1,94.065,
01/01/2000,01:34:12.72,16.59,-66.61,-991.86,288.75,-726.25,-280.0,1,94.074,
01/01/2000,01:34:12.73,16.35,-66.61,-991.74,52.50,-647.50,-262.50,1,94.083,
01/01/2000,01:34:12.74,16.35,-66.86,-991.86,175.0,-621.25,-315.0,1,94.092,
01/01/2000,01:34:12.75,16.59,-66.86,-991.86,-17.50,-796.25,-315.0,1,94.100,
01/01/2000,01:34:12.77,16.84,-67.10,-991.86,271.25,-726.25,-446.25,1,94.109,
01/01/2000,01:34:12.78,16.71,-67.22,-991.86,227.50,-796.25,-323.75,1,94.118,
01/01/2000,01:34:12.79,16.47,-67.10,-991.74,105.0,-691.25,-367.50,1,94.126,
01/01/2000,01:34:12.80,16.59,-66.61,-991.86,236.25,-595.0,-376.25,1,94.135,
01/01/2000,01:34:12.81,16.59,-66.61,-991.98,113.75,-638.75,-350.0,1,94.143,
01/01/2000,01:34:12.82,16.59,-66.49,-991.98,148.75,-586.25,-358.75,1,94.152,
01/01/2000,01:34:12.83,16.59,-66.73,-991.86,175.0,-708.75,-367.50,1,94.161,
01/01/2000,01:34:12.84,16.47,-66.61,-991.49,96.25,-735.0,-358.75,1,94.169,
01/01/2000,01:34:12.85,16.35,-66.61,-991.49,236.25,-560.0,-393.75,1,94.178,
01/01/2000,01:34:12.86,16.35,-66.37,-991.62,131.25,-603.75,-393.75,1,94.186,
01/01/2000,01:34:12.87,16.47,-66.49,-991.62,70.0,-752.50,-306.25,1,94.194,
01/01/2000,01:34:12.88,16.35,-66.37,-991.74,175.0,-787.50,-411.25,1,94.203,
01/01/2000,01:34:12.89,16.35,-66.49,-991.62,236.25,-778.75,-332.50,1,94.211,
01/01/2000,01:34:12.90,16.35,-66.61,-991.62,192.50,-770.0,-385.0,1,94.220,
01/01/2000,01:34:12.91,16.47,-66.61,-991.62,236.25,-822.50,-271.25,1,94.228,
01/01/2000,01:34:12.92,16.47,-66.49,-991.49,262.50,-560.0,-358.75,1,94.236,
01/01/2000,01:34:12.93,16.35,-66.37,-991.37,140.0,-708.75,-315.0,1,94.245,
01/01/2000,01:34:12.94,16.10,-66.49,-991.37,201.25,-717.50,-376.25,1,94.253,
01/01/2000,01:34:12.95,16.35,-66.37,-991.49,218.75,-691.25,-306.25,1,94.261,
01/01/2000,01:34:12.96,16.47,-66.37,-991.62,148.75,-647.50,-411.25,1,94.269,
01/01/2000,01:34:12.98,16.59,-66.61,-991.37,271.25,-778.75,-358.75,1,94.143,
01/01/2000,01:34:12.99,16.47,-66.61,-991.13,105.0,-656.25,-288.75,1,94.151,
01/01/2000,01:34:13.00,15.98,-66.61,-991.37,113.75,-560.0,-376.25,1,94.160,
01/01/2000,01:34:13.01,15.74,-66.86,-991.62,367.50,-665.0,-525.0,1,94.168,
01/01/2000,01:34:13.02,16.96,-65.88,-991.49,-35.0,-638.75,-665.0,1,94.176,
01/01/2000,01:34:13.03,17.81,-66.00,-991.13,52.50,-848.75,96.25,1,94.184,
01/01/2000,01:34:13.04,16.47,-67.10,-991.01,236.25,-647.50,367.50,1,94.193,
01/01/2000,01:34:13.05,15.37,-67.34,-991.86,157.50,-586.25,-1032.50,1,94.201,
01/01/2000,01:34:13.06,16.59,-66.73,-992.35,367.50,-691.25,-1566.25,1,94.209,
01/01/2000,01:34:13.07,17.32,-65.51,-992.23,-166.25,-647.50,-560.0,1,94.217,
01/01/2000,01:34:13.08,17.08,-65.76,-991.62,201.25,-516.25,997.50,1,94.225,
01/01/2000,01:34:13.09,16.59,-66.25,-990.76,315.0,-700.0,-113.75,1,94.233,
01/01/2000,01:34:13.10,16.23,-66.98,-990.88,122.50,-743.75,-1365.0,1,94.242,
01/01/2000,01:34:13.11,16.47,-67.10,-992.35,271.25,-691.25,-411.25,1,94.118,
01/01/2000,01:34:13.12,16.71,-66.49,-992.59,43.75,-647.50,78.75,1,94.126,
01/01/2000,01:34:13.13,16.84,-66.00,-991.74,166.25,-630.0,-96.25,1,94.134,
01/01/2000,01:34:13.14,16.71,-65.88,-990.76,157.50,-682.50,-192.50,1,94.142,
01/01/2000,01:34:13.16,16.23,-66.37,-991.37,105.0,-673.75,-350.0,1,94.150,
01/01/2000,01:34:13.17,16.71,-67.10,-992.35,297.50,-647.50,-481.25,1,94.159,
01/01/2000,01:34:13.18,16.59,-66.86,-992.47,-175.0,-603.75,-367.50,1,94.167,
01/01/2000,01:34:13.19,16.23,-66.49,-991.37,166.25,-761.25,-297.50,1,94.175,
01/01/2000,01:34:13.20,16.10,-66.25,-990.88,288.75,-726.25,-358.75,1,94.183,
01/01/2000,01:34:13.21,16.47,-66.12,-991.01,-17.50,-726.25,-437.50,1,94.191,
01/01/2000,01:34:13.22,16.59,-66.61,-991.74,148.75,-656.25,-367.50,1,94.199,
01/01/2000,01:34:13.23,16.71,-66.86,-992.23,280.0,-726.25,-385.0,1,94.207,
01/01/2000,01:34:13.24,16.35,-66.73,-991.74,87.50,-796.25,-472.50,1,94.215,
01/01/2000,01:34:13.25,16.23,-66.73,-991.01,96.25,-638.75,-420.0,1,94.223,
01/01/2000,01:34:13.26,16.23,-66.25,-991.01,175.0,-700.0,-306.25,1,94.231,
01/01/2000,01:34:13.27,16.71,-66.37,-991.74,253.75,-717.50,-306.25,1,94.239,
01/01/2000,01:34:13.28,16.84,-66.49,-992.23,183.75,-656.25,-280.0,1,94.118,
01/01/2000,01:34:13.29,16.47,-66.98,-992.10,201.25,-656.25,-332.50,1,94.254,
01/01/2000,01:34:13.30,16.35,-66.98,-991.62,96.25,-673.75,-463.75,1,94.134,
01/01/2000,01:34:13.31,16.35,-66.73,-991.13,166.25,-778.75,-463.75,1,94.270,
01/01/2000,01:34:13.33,16.96,-66.25,-991.49,210.0,-717.50,-227.50,1,94.150,
01/01/2000,01:34:13.34,16.84,-66.49,-991.86,122.50,-726.25,-253.75,1,94.158,
01/01/2000,01:34:13.35,16.59,-66.86,-991.98,43.75,-735.0,-297.50,1,94.166,
01/01/2000,01:34:13.36,16.59,-66.98,-991.62,245.0,-647.50,-490.0,1,94.173,
01/01/2000,01:34:13.37,16.47,-66.86,-991.13,192.50,-682.50,-411.25,1,94.181,
01/01/2000,01:34:13.38,16.71,-66.49,-991.13,175.0,-796.25,-341.25,1,94.189,
01/01/2000,01:34:13.39,16.84,-66.49,-991.37,148.75,-621.25,-280.0,1,94.197,
01/01/2000,01:34:13.40,16.47,-66.98,-991.49,87.50,-595.0,-218.75,1,94.205,
01/01/2000,01:34:13.41,16.23,-67.22,-991.62,96.25,-708.75,-446.25,1,94.213,
01/01/2000,01:34:13.42,16.35,-66.98,-991.62,236.25,-735.0,-516.25,1,94.220,
01/01/2000,01:34:13.43,16.84,-66.61,-991.37,262.50,-761.25,-315.0,1,94.228,
01/01/2000,01:34:13.44,16.84,-66.61,-991.49,35.0,-726.25,-183.75,1,94.236,
01/01/2000,01:34:13.45,16.59,-66.86,-991.49,140.0,-682.50,-253.75,1,94.244,
01/01/2000,01:34:13.46,16.47,-66.98,-991.49,183.75,-691.25,-428.75,1,94.251,
01/01/2000,01:34:13.47,16.35,-66.98,-991.62,166.25,-612.50,-358.75,1,94.133,
01/01/2000,01:34:13.48,16.59,-66.37,-991.74,96.25,-735.0,-376.25,1,94.141,
01/01/2000,01:34:13.49,16.84,-66.37,-991.49,271.25,-726.25,-315.0,1,94.149,
01/01/2000,01:34:13.50,16.47,-66.37,-991.25,113.75,-673.75,-341.25,1,94.157,
01/01/2000,01:34:13.51,16.35,-66.61,-991.37,122.50,-665.0,-350.0,1,94.164,
01/01/2000,01:34:13.52,16.47,-67.10,-991.49,332.50,-761.25,-481.25,1,94.172,
01/01/2000,01:34:13.54,16.59,-66.61,-991.74,96.25,-673.75,-306.25,1,94.180,
01/01/2000,01:34:13.55,16.59,-66.49,-991.49,166.25,-647.50,-245.0,1,94.188,
01/01/2000,01:34:13.56,16.59,-66.49,-991.13,253.75,-638.75,-288.75,1,94.195,
01/01/2000,01:34:13.57,16.59,-66.49,-991.25,131.25,-700.0,-402.50,1,94.203,
01/01/2000,01:34:13.58,16.84,-66.86,-991.37,262.50,-665.0,-411.25,1,94.211,
01/01/2000,01:34:13.59,16.84,-66.73,-991.49,183.75,-568.75,-315.0,1,94.218,
01/01/2000,01:34:13.60,16.71,-66.61,-991.37,192.50,-682.50,-385.0,1,94.226,
01/01/2000,01:34:13.61,16.59,-66.49,-991.01,210.0,-708.75,-271.25,1,94.233,
01/01/2000,01:34:13.62,16.35,-66.49,-991.13,175.0,-612.50,-297.50,1,94.241,
01/01/2000,01:34:13.63,16.59,-66.61,-991.37,236.25,-630.0,-428.75,1,94.248,
01/01/2000,01:34:13.64,16.84,-66.73,-991.62,175.0,-717.50,-323.75,1,94.256,
01/01/2000,01:34:13.65,16.71,-66.61,-991.62,183.75,-603.75,-288.75,1,94.263,
01/01/2000,01:34:13.67,16.59,-66.49,-991.37,122.50,-647.50,-315.0,1,94.148,
01/01/2000,01:34:13.68,16.59,-66.49,-991.37,-8.75,-796.25,-280.0,1,94.156,
01/01/2000,01:34:13.69,16.71,-66.61,-991.62,17.50,-822.50,-358.75,1,94.163,
01/01/2000,01:34:13.70,16.35,-66.86,-991.62,131.25,-708.75,-411.25,1,94.171,
01/01/2000,01:34:13.71,16.47,-66.73,-991.62,148.75,-656.25,-393.75,1,94.179,
01/01/2000,01:34:13.72,16.59,-66.61,-991.25,148.75,-770.0,-367.50,1,94.186,
01/01/2000,01:34:13.73,16.47,-66.49,-991.25,105.0,-708.75,-323.75,1,94.194,
01/01/2000,01:34:13.74,16.47,-66.73,-991.62,35.0,-787.50,-385.0,1,94.201,
01/01/2000,01:34:13.75,16.47,-66.73,-991.86,288.75,-796.25,-367.50,1,94.208,
01/01/2000,01:34:13.76,16.47,-66.61,-991.62,245.0,-735.0,-358.75,1,94.216,
01/01/2000,01:34:13.77,16.59,-66.61,-991.37,78.75,-735.0,-411.25,1,94.223,
01/01/2000,01:34:13.78,16.59,-66.49,-991.37,201.25,-682.50,-323.75,1,94.231,
01/01/2000,01:34:13.79,16.59,-66.37,-991.37,140.0,-621.25,-341.25,1,94.238,
01/01/2000,01:34:13.80,16.59,-66.37,-991.49,183.75,-682.50,-297.50,1,94.246,
01/01/2000,01:34:13.81,16.59,-66.37,-991.62,61.25,-743.75,-350.0,1,94.253,
01/01/2000,01:34:13.82,16.59,-66.37,-991.49,253.75,-665.0,-393.75,1,94.140,
01/01/2000,01:34:13.83,16.71,-66.37,-991.37,0.0,-647.50,-323.75,1,94.148,
01/01/2000,01:34:13.84,16.71,-66.49,-991.62,148.75,-717.50,-262.50,1,94.155,
01/01/2000,01:34:13.85,16.71,-66.61,-991.62,43.75,-735.0,-271.25,1,94.162,
01/01/2000,01:34:13.86,16.59,-66.61,-991.62,175.0,-691.25,-428.75,1,94.170,
01/01/2000,01:34:13.87,16.35,-66.61,-991.62,376.25,-656.25,-428.75,1,94.177,
01/01/2000,01:34:13.89,16.23,-66.49,-991.98,148.75,-743.75,-280.0,1,94.185,
01/01/2000,01:34:13.90,16.84,-66.25,-991.86,148.75,-726.25,-253.75,1,94.192,
01/01/2000,01:34:13.91,16.96,-66.37,-991.62,70.0,-682.50,-201.25,1,94.199,
01/01/2000,01:34:13.92,16.84,-66.73,-991.13,61.25,-743.75,-297.50,1,94.207,
01/01/2000,01:34:13.93,16.35,-66.98,-991.25,192.50,-813.75,-472.50,1,94.214,
01/01/2000,01:34:13.94,16.59,-66.61,-991.98,332.50,-726.25,-481.25,1,94.221,
01/01/2000,01:34:13.95,16.96,-66.12,-992.10,210.0,-665.0,-446.25,1,94.228,
01/01/2000,01:34:13.96,16.84,-66.25,-991.74,183.75,-787.50,-227.50,1,94.236,
01/01/2000,01:34:13.97,16.59,-66.37,-991.37,26.25,-708.75,-227.50,1,94.243,
01/01/2000,01:34:13.98,16.47,-66.98,-991.25,288.75,-778.75,-367.50,1,94.250,
01/01/2000,01:34:13.99,16.59,-66.98,-991.37,245.0,-665.0,-420.0,1,94.140,
01/01/2000,01:34:14.00,16.71,-66.49,-991.86,271.25,-717.50,-411.25,1,94.264,
01/01/2000,01:34:14.01,16.71,-66.25,-991.86,87.50,-638.75,-245.0,1,94.154,
01/01/2000,01:34:14.02,16.59,-66.37,-991.62,280.0,-621.25,-253.75,1,94.161,
01/01/2000,01:34:14.04,16.23,-66.37,-991.62,157.50,-612.50,-411.25,1,94.169,
01/01/2000,01:34:14.05,16.59,-66.49,-991.86,26.25,-787.50,-367.50,1,94.176,
01/01/2000,01:34:14.06,16.84,-66.37,-992.10,122.50,-673.75,-367.50,1,94.183,
01/01/2000,01:34:14.07,16.59,-66.37,-991.74,78.75,-638.75,-306.25,1,94.190,
01/01/2000,01:34:14.08,16.59,-66.37,-991.25,201.25,-630.0,-315.0,1,94.198,
01/01/2000,01:34:14.09,16.35,-66.37,-991.13,236.25,-735.0,-358.75,1,94.205,
01/01/2000,01:34:14.10,16.59,-66.37,-991.49,175.0,-612.50,-332.50,1,94.212,
01/01/2000,01:34:14.11,16.59,-66.49,-991.74,52.50,-708.75,-402.50,1,94.219,
01/01/2000,01:34:14.12,16.59,-66.49,-991.62,52.50,-831.25,-350.0,1,94.226,
01/01/2000,01:34:14.13,16.35,-66.37,-991.37,148.75,-708.75,-341.25,1,94.233,
01/01/2000,01:34:14.14,16.23,-66.37,-991.25,245.0,-595.0,-341.25,1,94.240,
01/01/2000,01:34:14.15,16.35,-66.25,-991.62,315.0,-656.25,-367.50,1,94.247,
01/01/2000,01:34:14.16,16.59,-66.12,-991.86,236.25,-586.25,-332.50,1,94.254,
01/01/2000,01:34:14.18,16.59,-66.25,-991.86,201.25,-726.25,-323.75,1,94.146,
01/01/2000,01:34:14.19,16.35,-66.37,-991.62,227.50,-682.50,-306.25,1,94.153,
01/01/2000,01:34:14.20,16.59,-66.25,-991.62,183.75,-717.50,-455.0,1,94.161,
01/01/2000,01:34:14.21,16.71,-66.37,-991.98,131.25,-691.25,-332.50,1,94.168,
01/01/2000,01:34:14.22,16.71,-66.37,-992.10,113.75,-647.50,-350.0,1,94.175,
01/01/2000,01:34:14.23,16.47,-66.37,-991.98,157.50,-595.0,-341.25,1,94.182,
01/01/2000,01:34:14.24,16.47,-66.61,-991.74,271.25,-612.50,-350.0,1,94.189,
01/01/2000,01:34:14.25,16.47,-66.37,-991.74,262.50,-630.0,-306.25,1,94.196,
01/01/2000,01:34:14.26,16.71,-66.37,-992.10,315.0,-708.75,-245.0,1,94.203,
01/01/2000,01:34:14.27,16.59,-66.37,-992.10,166.25,-612.50,-245.0,1,94.210,
01/01/2000,01:34:14.28,16.47,-66.49,-991.86,210.0,-752.50,-358.75,1,94.217,
01/01/2000,01:34:14.29,16.23,-66.37,-991.86,113.75,-665.0,-358.75,1,94.224,
01/01/2000,01:34:14.30,16.35,-66.25,-991.98,236.25,-638.75,-358.75,1,94.231,
01/01/2000,01:34:14.31,16.84,-66.25,-991.98,148.75,-717.50,-201.25,1,94.125,
01/01/2000,01:34:14.32,17.08,-66.37,-992.10,253.75,-743.75,-323.75,1,94.132,
01/01/2000,01:34:14.33,16.59,-66.61,-991.98,122.50,-787.50,-402.50,1,94.139,
01/01/2000,01:34:14.34,16.47,-66.61,-992.10,113.75,-700.0,-367.50,1,94.146,
01/01/2000,01:34:14.35,16.59,-66.37,-992.10,245.0,-682.50,-315.0,1,94.153,
01/01/2000,01:34:14.36,16.84,-66.12,-992.10,210.0,-568.75,-297.50,1,94.160,
01/01/2000,01:34:14.37,16.84,-66.25,-991.86,140.0,-682.50,-271.25,1,94.167,
01/01/2000,01:34:14.38,16.84,-66.86,-991.74,61.25,-647.50,-323.75,1,94.174,
01/01/2000,01:34:14.39,16.84,-66.86,-991.74,245.0,-647.50,-472.50,1,94.181,
01/01/2000,01:34:14.40,16.84,-66.61,-991.74,105.0,-586.25,-446.25,1,94.187,
01/01/2000,01:34:14.41,16.96,-66.37,-991.74,183.75,-673.75,-280.0,1,94.194,
01/01/2000,01:34:14.42,16.84,-66.61,-991.62,166.25,-595.0,-315.0,1,94.201,
01/01/2000,01:34:14.43,16.71,-66.37,-991.74,96.25,-691.25,-332.50,1,94.208,
01/01/2000,01:34:14.44,16.71,-66.61,-991.62,262.50,-630.0,-350.0,1,94.215,
01/01/2000,01:34:14.46,16.71,-66.86,-991.74,201.25,-542.50,-376.25,1,94.222,
01/01/2000,01:34:14.47,16.59,-66.49,-991.62,26.25,-647.50,-376.25,1,94.229,
01/01/2000,01:34:14.48,16.84,-66.37,-991.13,236.25,-621.25,-393.75,1,94.235,
01/01/2000,01:34:14.49,16.71,-66.37,-991.13,192.50,-621.25,-315.0,1,94.242,
01/01/2000,01:34:14.50,16.59,-66.25,-991.37,131.25,-700.0,-315.0,1,94.249,
01/01/2000,01:34:14.51,16.84,-66.49,-991.62,140.0,-656.25,-437.50,1,94.256,
01/01/2000,01:34:14.52,16.84,-66.25,-991.62,175.0,-638.75,-271.25,1,94.262,
01/01/2000,01:34:14.53,16.71,-66.25,-991.49,210.0,-805.0,-262.50,1,94.269,
01/01/2000,01:34:14.54,16.71,-66.12,-991.25,131.25,-577.50,-350.0,1,94.276,
01/01/2000,01:34:14.55,16.71,-66.25,-991.37,227.50,-700.0,-271.25,1,94.282,
01/01/2000,01:34:14.56,16.84,-66.37,-991.62,17.50,-717.50,-402.50,1,94.289,
01/01/2000,01:34:14.57,16.84,-66.25,-991.74,201.25,-761.25,-350.0,1,94.186,
01/01/2000,01:34:14.58,16.59,-66.12,-991.37,297.50,-717.50,-253.75,1,94.302,
01/01/2000,01:34:14.60,16.47,-66.12,-991.37,166.25,-708.75,-253.75,1,94.200,
01/01/2000,01:34:14.61,16.47,-66.25,-991.37,271.25,-726.25,-306.25,1,94.206,
01/01/2000,01:34:14.62,16.59,-66.37,-991.62,166.25,-700.0,-358.75,1,94.213,
01/01/2000,01:34:14.63,16.59,-66.37,-991.62,140.0,-778.75,-385.0,1,94.220,
01/01/2000,01:34:14.64,16.47,-66.49,-991.49,175.0,-708.75,-315.0,1,94.226,
01/01/2000,01:34:14.65,16.35,-66.25,-991.13,201.25,-656.25,-367.50,1,94.233,
01/01/2000,01:34:14.66,16.47,-66.25,-991.13,175.0,-708.75,-315.0,1,94.240,
01/01/2000,01:34:14.67,16.59,-66.49,-991.25,166.25,-717.50,-253.75,1,94.246,
01/01/2000,01:34:14.68,16.59,-66.61,-991.37,201.25,-735.0,-315.0,1,94.145,
01/01/2000,01:34:14.69,16.47,-66.61,-991.37,166.25,-875.0,-446.25,1,94.151,
01/01/2000,01:34:14.71,16.59,-66.37,-991.13,96.25,-743.75,-393.75,1,94.158,
01/01/2000,01:34:14.71,16.84,-66.37,-991.25,166.25,-778.75,-253.75,1,94.165,
01/01/2000,01:34:14.73,16.59,-66.37,-991.49,113.75,-673.75,-332.50,1,94.171,
01/01/2000,01:34:14.74,16.59,-66.61,-991.62,175.0,-612.50,-358.75,1,94.178,
01/01/2000,01:34:14.75,16.59,-66.49,-991.62,140.0,-726.25,-437.50,1,94.185,
01/01/2000,01:34:14.76,16.47,-66.37,-991.49,262.50,-717.50,-367.50,1,94.191,
01/01/2000,01:34:14.77,16.47,-66.25,-991.49,227.50,-665.0,-341.25,1,94.198,
01/01/2000,01:34:14.78,16.59,-66.37,-991.62,148.75,-726.25,-341.25,1,94.205,
01/01/2000,01:34:14.79,16.84,-66.61,-991.62,236.25,-743.75,-332.50,1,94.211,
01/01/2000,01:34:14.80,16.84,-66.61,-991.62,148.75,-691.25,-280.0,1,94.218,
01/01/2000,01:34:14.81,16.84,-66.49,-991.49,166.25,-630.0,-358.75,1,94.224,
01/01/2000,01:34:14.82,16.96,-66.37,-991.37,227.50,-831.25,-350.0,1,94.231,
01/01/2000,01:34:14.83,16.84,-66.25,-991.49,52.50,-848.75,-341.25,1,94.237,
01/01/2000,01:34:14.84,16.84,-66.37,-991.49,175.0,-770.0,-262.50,1,94.244,
01/01/2000,01:34:14.85,16.59,-66.61,-991.49,113.75,-691.25,-393.75,1,94.250,
01/01/2000,01:34:14.86,16.71,-66.49,-991.37,61.25,-708.75,-306.25,1,94.257,
01/01/2000,01:34:14.87,16.84,-66.37,-991.37,183.75,-665.0,-393.75,1,94.263,
01/01/2000,01:34:14.88,16.71,-66.25,-991.62,175.0,-726.25,-358.75,1,94.164,
01/01/2000,01:34:14.89,16.71,-66.25,-991.49,140.0,-752.50,-175.0,1,94.170,
01/01/2000,01:34:14.90,16.71,-66.49,-991.37,201.25,-700.0,-332.50,1,94.177,
01/01/2000,01:34:14.91,16.59,-66.37,-991.37,61.25,-577.50,-332.50,1,94.183,
01/01/2000,01:34:14.92,16.59,-66.37,-991.49,227.50,-603.75,-411.25,1,94.190,
01/01/2000,01:34:14.93,16.84,-66.25,-991.49,78.75,-743.75,-271.25,1,94.196,
01/01/2000,01:34:14.95,16.59,-66.49,-991.25,78.75,-787.50,-420.0,1,94.203,
01/01/2000,01:34:14.96,16.47,-66.73,-991.13,271.25,-691.25,-393.75,1,94.209,
01/01/2000,01:34:14.97,16.59,-66.37,-991.01,8.75,-700.0,-385.0,1,94.216,
01/01/2000,01:34:14.98,16.71,-66.61,-991.25,218.75,-656.25,-490.0,1,94.222,
01/01/2000,01:34:14.99,16.71,-66.37,-991.62,131.25,-761.25,-271.25,1,94.229,
01/01/2000,01:34:15.00,16.59,-66.25,-991.49,96.25,-726.25,-288.75,1,94.235,
01/01/2000,01:34:15.01,16.59,-66.37,-991.25,157.50,-708.75,-245.0,1,94.241,
01/01/2000,01:34:15.02,16.35,-66.49,-991.25,52.50,-770.0,-350.0,1,94.248,
01/01/2000,01:34:15.03,16.47,-66.61,-991.49,183.75,-778.75,-463.75,1,94.254,
01/01/2000,01:34:15.04,16.71,-66.49,-991.62,96.25,-586.25,-253.75,1,94.260,
01/01/2000,01:34:15.05,16.59,-66.37,-991.62,96.25,-621.25,-341.25,1,94.267,
01/01/2000,01:34:15.06,16.47,-66.73,-991.49,192.50,-638.75,-262.50,1,94.273,
01/01/2000,01:34:15.07,16.47,-66.61,-991.37,148.75,-673.75,-385.0,1,94.279,
01/01/2000,01:34:15.08,16.71,-66.61,-991.74,218.75,-726.25,-297.50,1,94.182,
01/01/2000,01:34:15.09,16.84,-66.49,-991.86,306.25,-717.50,-315.0,1,94.189,
01/01/2000,01:34:15.10,16.59,-66.49,-991.62,236.25,-621.25,-306.25,1,94.195,
01/01/2000,01:34:15.11,16.47,-66.86,-991.62,227.50,-621.25,-393.75,1,94.201,
01/01/2000,01:34:15.12,16.59,-66.86,-991.74,236.25,-656.25,-323.75,1,94.208,
01/01/2000,01:34:15.13,16.59,-66.73,-991.86,157.50,-700.0,-385.0,1,94.214,
01/01/2000,01:34:15.14,16.84,-66.61,-991.98,140.0,-717.50,-192.50,1,94.220,
01/01/2000,01:34:15.16,16.59,-66.86,-991.86,148.75,-717.50,-315.0,1,94.227,
01/01/2000,01:34:15.17,16.35,-66.86,-991.62,245.0,-682.50,-358.75,1,94.233,
01/01/2000,01:34:15.18,16.47,-66.61,-991.62,236.25,-708.75,-341.25,1,94.239,
01/01/2000,01:34:15.19,16.84,-66.37,-991.86,157.50,-630.0,-376.25,1,94.143,
01/01/2000,01:34:15.21,16.59,-66.61,-991.62,17.50,-647.50,-271.25,1,94.150,
01/01/2000,01:34:15.22,16.47,-66.73,-991.37,218.75,-805.0,-297.50,1,94.156,
01/01/2000,01:34:15.23,16.35,-66.86,-991.37,131.25,-665.0,-280.0,1,94.162,
01/01/2000,01:34:15.24,16.59,-66.73,-991.62,131.25,-647.50,-341.25,1,94.168,
01/01/2000,01:34:15.25,16.84,-66.61,-991.86,201.25,-682.50,-367.50,1,94.175,
01/01/2000,01:34:15.26,16.59,-66.61,-991.86,245.0,-673.75,-227.50,1,94.181,
01/01/2000,01:34:15.27,16.35,-66.86,-991.49,131.25,-682.50,-306.25,1,94.187,
01/01/2000,01:34:15.28,16.35,-66.73,-991.49,183.75,-735.0,-341.25,1,94.194,
01/01/2000,01:34:15.29,16.59,-66.61,-991.62,175.0,-787.50,-280.0,1,94.200,
01/01/2000,01:34:15.30,16.71,-66.49,-991.62,210.0,-673.75,-341.25,1,94.206,
01/01/2000,01:34:15.31,16.59,-66.61,-991.62,26.25,-656.25,-358.75,1,94.212,
01/01/2000,01:34:15.32,16.35,-66.61,-991.49,227.50,-700.0,-350.0,1,94.218,
01/01/2000,01:34:15.33,16.35,-66.61,-991.62,192.50,-638.75,-350.0,1,94.225,
01/01/2000,01:34:15.34,16.59,-66.37,-991.74,192.50,-638.75,-315.0,1,94.231,
01/01/2000,01:34:15.35,16.59,-66.25,-991.86,131.25,-691.25,-323.75,1,94.237,
01/01/2000,01:34:15.36,16.59,-66.49,-991.62,122.50,-577.50,-402.50,1,94.243,
01/01/2000,01:34:15.37,16.35,-66.61,-991.49,166.25,-682.50,-341.25,1,94.249,
01/01/2000,01:34:15.38,16.35,-66.49,-991.62,105.0,-665.0,-341.25,1,94.255,
01/01/2000,01:34:15.39,16.59,-66.37,-991.74,157.50,-665.0,-341.25,1,94.261,
01/01/2000,01:34:15.40,16.71,-66.25,-991.62,148.75,-717.50,-262.50,1,94.268,
01/01/2000,01:34:15.41,16.47,-66.37,-991.37,166.25,-656.25,-420.0,1,94.274,
01/01/2000,01:34:15.42,16.23,-66.61,-991.13,288.75,-691.25,-323.75,1,94.280,
01/01/2000,01:34:15.43,16.35,-66.37,-991.49,70.0,-752.50,-341.25,1,94.186,
01/01/2000,01:34:15.44,16.59,-66.49,-991.62,175.0,-682.50,-402.50,1,94.192,
01/01/2000,01:34:15.45,16.35,-66.61,-991.37,210.0,-735.0,-262.50,1,94.198,
01/01/2000,01:34:15.46,16.10,-66.37,-991.13,61.25,-682.50,-367.50,1,94.204,
01/01/2000,01:34:15.47,16.35,-66.61,-991.13,183.75,-647.50,-446.25,1,94.211,
01/01/2000,01:34:15.48,16.47,-66.49,-991.74,122.50,-577.50,-332.50,1,94.217,
01/01/2000,01:34:15.50,16.35,-66.37,-991.98,17.50,-665.0,-280.0,1,94.223,
01/01/2000,01:34:15.51,16.59,-66.49,-991.74,227.50,-665.0,-420.0,1,94.229,
01/01/2000,01:34:15.52,16.35,-66.37,-991.62,157.50,-761.25,-350.0,1,94.235,
01/01/2000,01:34:15.53,16.35,-66.49,-991.62,201.25,-787.50,-262.50,1,94.241,
01/01/2000,01:34:15.54,16.59,-66.49,-991.62,113.75,-717.50,-385.0,1,94.247,
01/01/2000,01:34:15.55,16.84,-66.37,-991.49,175.0,-717.50,-227.50,1,94.253,
01/01/2000,01:34:15.56,16.71,-66.61,-991.37,78.75,-700.0,-420.0,1,94.259,
01/01/2000,01:34:15.57,16.47,-66.49,-991.13,131.25,-656.25,-350.0,1,94.265,
01/01/2000,01:34:15.58,16.59,-66.37,-991.13,166.25,-743.75,-367.50,1,94.271,
01/01/2000,01:34:15.59,16.71,-66.37,-991.13,271.25,-787.50,-262.50,1,94.179,
01/01/2000,01:34:15.60,16.59,-66.37,-991.37,192.50,-665.0,-341.25,1,94.185,
01/01/2000,01:34:15.61,16.59,-66.73,-991.49,262.50,-647.50,-446.25,1,94.191,
01/01/2000,01:34:15.62,16.59,-66.73,-991.49,175.0,-673.75,-350.0,1,94.197,
01/01/2000,01:34:15.63,16.59,-66.86,-991.62,157.50,-743.75,-358.75,1,94.203,
01/01/2000,01:34:15.65,16.71,-66.61,-991.74,175.0,-691.25,-393.75,1,94.209,
01/01/2000,01:34:15.66,16.84,-66.49,-991.62,122.50,-805.0,-175.0,1,94.215,
01/01/2000,01:34:15.67,16.71,-66.73,-991.62,245.0,-805.0,-341.25,1,94.221,
01/01/2000,01:34:15.68,16.47,-66.86,-991.49,113.75,-612.50,-367.50,1,94.227,
01/01/2000,01:34:15.69,16.59,-66.86,-991.62,297.50,-778.75,-323.75,1,94.233,
01/01/2000,01:34:15.70,16.71,-66.61,-991.86,122.50,-630.0,-332.50,1,94.239,
01/01/2000,01:34:15.71,16.47,-66.61,-991.98,157.50,-551.25,-306.25,1,94.245,
01/01/2000,01:34:15.72,16.23,-66.61,-991.86,253.75,-656.25,-376.25,1,94.154,
01/01/2000,01:34:15.73,16.23,-66.73,-991.74,148.75,-656.25,-376.25,1,94.160,
01/01/2000,01:34:15.74,16.35,-66.61,-991.86,122.50,-796.25,-262.50,1,94.166,
01/01/2000,01:34:15.75,16.59,-66.61,-991.86,43.75,-735.0,-306.25,1,94.172,
01/01/2000,01:34:15.76,16.59,-66.61,-991.86,148.75,-752.50,-210.0,1,94.178,
01/01/2000,01:34:15.77,16.47,-66.61,-991.74,122.50,-717.50,-350.0,1,94.184,
01/01/2000,01:34:15.78,16.35,-66.73,-991.74,96.25,-673.75,-288.75,1,94.190,
01/01/2000,01:34:15.79,16.47,-66.61,-991.86,201.25,-691.25,-288.75,1,94.196,
01/01/2000,01:34:15.80,16.59,-66.49,-991.62,113.75,-647.50,-262.50,1,94.201,
01/01/2000,01:34:15.81,16.59,-66.61,-991.49,166.25,-787.50,-376.25,1,94.207,
01/01/2000,01:34:15.82,16.47,-66.61,-991.49,227.50,-743.75,-350.0,1,94.213,
01/01/2000,01:34:15.83,16.47,-66.73,-991.62,0.0,-743.75,-297.50,1,94.219,
01/01/2000,01:34:15.85,16.59,-66.61,-991.74,218.75,-533.75,-385.0,1,94.225,
01/01/2000,01:34:15.86,16.59,-66.37,-991.62,227.50,-665.0,-280.0,1,94.231,
01/01/2000,01:34:15.87,16.59,-66.49,-991.62,175.0,-726.25,-393.75,1,94.237,
01/01/2000,01:34:15.88,16.59,-66.61,-991.62,201.25,-726.25,-306.25,1,94.242,
01/01/2000,01:34:15.89,16.59,-66.49,-991.74,96.25,-656.25,-358.75,1,94.248,
01/01/2000,01:34:15.90,16.59,-66.49,-991.86,183.75,-735.0,-420.0,1,94.254,
01/01/2000,01:34:15.91,16.71,-66.37,-991.62,61.25,-708.75,-341.25,1,94.260,
01/01/2000,01:34:15.92,16.59,-66.37,-991.62,87.50,-761.25,-367.50,1,94.266,
01/01/2000,01:34:15.93,16.59,-66.61,-991.86,70.0,-691.25,-402.50,1,94.177,
01/01/2000,01:34:15.94,16.59,-66.61,-991.74,105.0,-717.50,-350.0,1,94.183,
01/01/2000,01:34:15.95,16.84,-66.49,-991.62,140.0,-656.25,-341.25,1,94.188,
01/01/2000,01:34:15.96,16.59,-66.61,-991.49,227.50,-656.25,-385.0,1,94.194,
01/01/2000,01:34:15.97,16.71,-66.61,-991.62,245.0,-708.75,-227.50,1,94.200,
01/01/2000,01:34:15.98,16.84,-66.61,-991.86,271.25,-752.50,-323.75,1,94.206,
01/01/2000,01:34:15.99,16.84,-66.61,-992.10,26.25,-708.75,-271.25,1,94.212,
01/01/2000,01:34:16.01,16.59,-66.61,-992.10,131.25,-691.25,-332.50,1,94.217,
01/01/2000,01:34:16.02,16.71,-66.61,-991.98,87.50,-630.0,-411.25,1,94.223,
01/01/2000,01:34:16.03,16.84,-66.61,-991.86,192.50,-691.25,-315.0,1,94.229,
01/01/2000,01:34:16.04,16.84,-66.49,-991.86,70.0,-682.50,-315.0,1,94.235,
01/01/2000,01:34:16.05,16.71,-66.49,-991.98,87.50,-752.50,-350.0,1,94.240,
01/01/2000,01:34:16.06,16.71,-66.61,-992.10,148.75,-682.50,-288.75,1,94.246,
01/01/2000,01:34:16.07,16.71,-66.49,-991.86,201.25,-770.0,-358.75,1,94.252,
01/01/2000,01:34:16.08,16.71,-66.37,-991.74,157.50,-726.25,-393.75,1,94.257,
01/01/2000,01:34:16.09,16.71,-66.49,-991.62,148.75,-595.0,-367.50,1,94.263,
01/01/2000,01:34:16.10,16.84,-66.61,-991.62,78.75,-717.50,-306.25,1,94.269,
01/01/2000,01:34:16.11,16.84,-66.61,-991.86,105.0,-743.75,-323.75,1,94.274,
01/01/2000,01:34:16.12,16.84,-66.73,-991.86,192.50,-700.0,-297.50,1,94.280,
01/01/2000,01:34:16.13,16.96,-66.61,-991.86,306.25,-726.25,-332.50,1,94.286,
01/01/2000,01:34:16.14,16.84,-66.73,-991.62,148.75,-621.25,-297.50,1,94.199,
01/01/2000,01:34:16.15,17.08,-66.73,-991.49,262.50,-665.0,-323.75,1,94.204,
01/01/2000,01:34:16.16,16.84,-66.86,-991.49,140.0,-708.75,-367.50,1,94.210,
01/01/2000,01:34:16.17,16.84,-66.86,-991.86,218.75,-717.50,-367.50,1,94.216,
01/01/2000,01:34:16.18,16.96,-66.61,-991.86,192.50,-656.25,-358.75,1,94.221,
01/01/2000,01:34:16.19,16.84,-66.73,-991.62,113.75,-647.50,-323.75,1,94.227,
01/01/2000,01:34:16.20,16.59,-66.61,-991.37,253.75,-682.50,-341.25,1,94.233,
01/01/2000,01:34:16.22,16.71,-66.73,-991.62,35.0,-673.75,-385.0,1,94.146,
01/01/2000,01:34:16.23,16.71,-66.61,-991.86,245.0,-691.25,-393.75,1,94.152,
01/01/2000,01:34:16.24,16.59,-66.61,-991.86,131.25,-665.0,-376.25,1,94.158,
01/01/2000,01:34:16.25,16.47,-66.61,-991.62,175.0,-700.0,-306.25,1,94.163,
01/01/2000,01:34:16.26,16.47,-66.61,-991.37,148.75,-691.25,-288.75,1,94.169,
01/01/2000,01:34:16.27,16.59,-66.61,-991.62,315.0,-621.25,-306.25,1,94.175,
01/01/2000,01:34:16.29,16.59,-66.61,-991.86,148.75,-700.0,-332.50,1,94.180,
01/01/2000,01:34:16.29,16.59,-66.73,-991.86,140.0,-708.75,-262.50,1,94.186,
01/01/2000,01:34:16.31,16.47,-66.73,-991.74,105.0,-805.0,-350.0,1,94.192,
01/01/2000,01:34:16.32,16.47,-66.73,-991.86,78.75,-665.0,-341.25,1,94.197,
01/01/2000,01:34:16.33,16.59,-66.73,-991.86,157.50,-717.50,-288.75,1,94.203,
01/01/2000,01:34:16.34,16.47,-66.73,-991.86,148.75,-595.0,-332.50,1,94.208,
01/01/2000,01:34:16.35,16.47,-66.98,-991.74,166.25,-691.25,-402.50,1,94.214,
01/01/2000,01:34:16.36,16.59,-66.98,-991.62,183.75,-673.75,-332.50,1,94.220,
01/01/2000,01:34:16.37,16.59,-66.86,-991.62,210.0,-682.50,-367.50,1,94.225,
01/01/2000,01:34:16.38,16.59,-66.61,-991.74,166.25,-595.0,-367.50,1,94.231,
01/01/2000,01:34:16.39,16.71,-66.49,-991.62,61.25,-708.75,-323.75,1,94.236,
01/01/2000,01:34:16.40,16.84,-66.86,-991.49,253.75,-787.50,-358.75,1,94.242,
01/01/2000,01:34:16.41,16.84,-66.86,-991.62,140.0,-656.25,-358.75,1,94.247,
01/01/2000,01:34:16.42,16.84,-66.98,-991.62,96.25,-726.25,-350.0,1,94.253,
01/01/2000,01:34:16.43,16.96,-67.10,-991.74,253.75,-770.0,-376.25,1,94.258,
01/01/2000,01:34:16.44,16.84,-66.86,-991.74,17.50,-647.50,-385.0,1,94.264,
01/01/2000,01:34:16.45,16.96,-66.86,-991.62,253.75,-612.50,-341.25,1,94.269,
01/01/2000,01:34:16.46,16.84,-66.86,-991.74,201.25,-586.25,-358.75,1,94.275,
01/01/2000,01:34:16.47,16.96,-66.73,-991.86,-17.50,-743.75,-271.25,1,94.280,
01/01/2000,01:34:16.48,17.08,-66.86,-991.74,262.50,-673.75,-358.75,1,94.286,
01/01/2000,01:34:16.49,16.84,-66.86,-991.86,43.75,-621.25,-341.25,1,94.202,
01/01/2000,01:34:16.50,16.84,-66.86,-991.98,271.25,-691.25,-437.50,1,94.207,
01/01/2000,01:34:16.51,16.84,-66.61,-991.86,166.25,-831.25,-350.0,1,94.213,
01/01/2000,01:34:16.52,16.84,-66.61,-992.10,96.25,-700.0,-297.50,1,94.218,
01/01/2000,01:34:16.53,16.84,-66.73,-992.23,166.25,-630.0,-341.25,1,94.223,
01/01/2000,01:34:16.54,16.84,-66.86,-992.35,315.0,-726.25,-297.50,1,94.229,
01/01/2000,01:34:16.56,16.96,-66.86,-992.23,183.75,-647.50,-323.75,1,94.234,
01/01/2000,01:34:16.57,16.84,-66.86,-992.10,157.50,-691.25,-323.75,1,94.240,
01/01/2000,01:34:16.58,16.84,-66.73,-992.23,70.0,-700.0,-393.75,1,94.245,
01/01/2000,01:34:16.59,16.84,-66.86,-992.23,271.25,-691.25,-358.75,1,94.251,
01/01/2000,01:34:16.60,16.84,-66.86,-992.23,192.50,-656.25,-332.50,1,94.256,
01/01/2000,01:34:16.61,16.71,-66.98,-992.23,140.0,-682.50,-358.75,1,94.262,
01/01/2000,01:34:16.62,16.59,-66.98,-992.10,131.25,-682.50,-376.25,1,94.267,
01/01/2000,01:34:16.63,16.59,-66.86,-992.10,35.0,-665.0,-288.75,1,94.184,
01/01/2000,01:34:16.64,16.59,-66.61,-991.98,105.0,-770.0,-315.0,1,94.189,
01/01/2000,01:34:16.65,16.59,-66.61,-991.86,122.50,-708.75,-350.0,1,94.195,
01/01/2000,01:34:16.66,16.59,-66.61,-991.86,17.50,-682.50,-516.25,1,94.200,
01/01/2000,01:34:16.67,16.59,-66.73,-991.86,271.25,-822.50,-341.25,1,94.206,
01/01/2000,01:34:16.68,16.71,-66.61,-992.10,-131.25,-752.50,-280.0,1,94.211,
01/01/2000,01:34:16.69,16.84,-66.86,-992.10,218.75,-647.50,-385.0,1,94.216,
01/01/2000,01:34:16.71,16.59,-66.86,-991.86,131.25,-490.0,-350.0,1,94.222,
01/01/2000,01:34:16.72,16.71,-66.86,-991.86,218.75,-726.25,-481.25,1,94.227,
01/01/2000,01:34:16.73,16.59,-67.10,-991.98,218.75,-708.75,-393.75,1,94.233,
01/01/2000,01:34:16.74,16.71,-66.86,-991.86,61.25,-656.25,-280.0,1,94.150,
01/01/2000,01:34:16.75,16.84,-66.73,-991.74,113.75,-752.50,-472.50,1,94.243,
01/01/2000,01:34:16.76,16.84,-66.86,-991.49,201.25,-700.0,-218.75,1,94.161,
01/01/2000,01:34:16.77,16.84,-66.73,-991.62,35.0,-560.0,-385.0,1,94.167,
01/01/2000,01:34:16.78,16.71,-66.86,-991.74,175.0,-673.75,-271.25,1,94.172,
01/01/2000,01:34:16.79,16.84,-66.73,-991.62,87.50,-656.25,-428.75,1,94.177,
01/01/2000,01:34:16.80,16.59,-66.86,-991.62,297.50,-603.75,-481.25,1,94.183,
01/01/2000,01:34:16.81,16.71,-67.10,-991.62,113.75,-708.75,-315.0,1,94.188,
01/01/2000,01:34:16.82,16.59,-67.10,-991.86,201.25,-682.50,-437.50,1,94.194,
01/01/2000,01:34:16.83,16.71,-66.86,-991.98,70.0,-682.50,-315.0,1,94.199,
01/01/2000,01:34:16.84,16.84,-66.98,-991.86,175.0,-743.75,-428.75,1,94.204,
01/01/2000,01:34:16.85,16.59,-66.86,-991.86,87.50,-621.25,-271.25,1,94.210,
01/01/2000,01:34:16.86,16.59,-66.86,-991.86,201.25,-665.0,-446.25,1,94.215,
01/01/2000,01:34:16.87,16.71,-66.86,-991.74,253.75,-647.50,-411.25,1,94.220,
01/01/2000,01:34:16.88,16.59,-66.61,-991.62,52.50,-752.50,-236.25,1,94.225,
01/01/2000,01:34:16.90,16.59,-66.86,-991.49,52.50,-735.0,-315.0,1,94.231,
01/01/2000,01:34:16.91,16.35,-66.86,-991.62,157.50,-831.25,-332.50,1,94.236,
01/01/2000,01:34:16.92,16.59,-66.61,-991.86,17.50,-656.25,-358.75,1,94.241,
01/01/2000,01:34:16.93,16.71,-66.73,-992.10,297.50,-673.75,-271.25,1,94.247,
01/01/2000,01:34:16.94,16.59,-66.49,-992.10,148.75,-612.50,-341.25,1,94.252,
01/01/2000,01:34:16.95,16.47,-66.61,-991.86,70.0,-735.0,-323.75,1,94.257,
01/01/2000,01:34:16.96,16.59,-66.61,-991.74,148.75,-656.25,-402.50,1,94.262,
01/01/2000,01:34:16.97,16.47,-66.73,-991.86,87.50,-647.50,-288.75,1,94.268,
01/01/2000,01:34:16.98,16.71,-66.61,-991.98,70.0,-621.25,-367.50,1,94.273,
01/01/2000,01:34:16.99,16.84,-66.86,-991.74,-35.0,-726.25,-323.75,1,94.278,
01/01/2000,01:34:17.00,16.71,-66.73,-991.74,183.75,-726.25,-402.50,1,94.283,
01/01/2000,01:34:17.01,16.71,-66.86,-991.86,122.50,-805.0,-393.75,1,94.288,
01/01/2000,01:34:17.02,16.71,-66.73,-992.10,0.0,-717.50,-402.50,1,94.293,
01/01/2000,01:34:17.03,16.71,-66.86,-992.10,210.0,-717.50,-306.25,1,94.299,
01/01/2000,01:34:17.04,16.59,-66.73,-991.86,175.0,-752.50,-385.0,1,94.304,
01/01/2000,01:34:17.05,16.59,-66.73,-991.86,288.75,-770.0,-367.50,1,94.224,
01/01/2000,01:34:17.06,16.71,-66.61,-991.86,122.50,-691.25,-350.0,1,94.229,
01/01/2000,01:34:17.07,16.71,-66.61,-991.86,262.50,-752.50,-315.0,1,94.234,
01/01/2000,01:34:17.08,16.59,-66.37,-992.10,52.50,-673.75,-315.0,1,94.239,
01/01/2000,01:34:17.09,16.47,-66.61,-992.10,175.0,-787.50,-210.0,1,94.245,
01/01/2000,01:34:17.10,16.47,-66.49,-991.98,140.0,-726.25,-463.75,1,94.250,
01/01/2000,01:34:17.11,16.47,-66.61,-992.10,-17.50,-708.75,-350.0,1,94.255,
01/01/2000,01:34:17.13,16.59,-66.49,-992.10,227.50,-717.50,-332.50,1,94.260,
01/01/2000,01:34:17.14,16.59,-66.49,-992.23,43.75,-726.25,-376.25,1,94.265,
01/01/2000,01:34:17.15,16.59,-66.61,-992.10,201.25,-691.25,-332.50,1,94.270,
01/01/2000,01:34:17.16,16.59,-66.61,-992.10,218.75,-656.25,-332.50,1,94.275,
01/01/2000,01:34:17.17,16.59,-66.61,-991.98,43.75,-682.50,-367.50,1,94.281,
01/01/2000,01:34:17.18,16.59,-66.49,-991.86,262.50,-638.75,-341.25,1,94.286,
01/01/2000,01:34:17.19,16.59,-66.61,-991.86,236.25,-673.75,-367.50,1,94.291,
01/01/2000,01:34:17.20,16.59,-66.61,-991.98,78.75,-691.25,-341.25,1,94.212,
01/01/2000,01:34:17.21,16.59,-66.61,-991.98,140.0,-700.0,-402.50,1,94.301,
01/01/2000,01:34:17.22,16.71,-66.49,-992.10,218.75,-752.50,-271.25,1,94.222,
01/01/2000,01:34:17.23,16.84,-66.49,-992.10,183.75,-665.0,-236.25,1,94.227,
01/01/2000,01:34:17.25,16.47,-66.61,-991.86,148.75,-770.0,-332.50,1,94.232,
01/01/2000,01:34:17.26,16.59,-66.73,-992.10,210.0,-682.50,-411.25,1,94.238,
01/01/2000,01:34:17.27,16.71,-66.61,-992.23,236.25,-840.0,-245.0,1,94.243,
01/01/2000,01:34:17.28,16.71,-66.61,-992.23,148.75,-665.0,-323.75,1,94.248,
01/01/2000,01:34:17.29,16.71,-66.61,-992.10,87.50,-770.0,-288.75,1,94.253,
01/01/2000,01:34:17.30,16.59,-66.73,-991.86,140.0,-717.50,-393.75,1,94.258,
01/01/2000,01:34:17.31,16.59,-66.73,-991.74,157.50,-603.75,-358.75,1,94.263,
01/01/2000,01:34:17.32,16.71,-66.61,-991.86,262.50,-700.0,-341.25,1,94.268,
01/01/2000,01:34:17.33,16.71,-66.61,-991.98,113.75,-848.75,-341.25,1,94.273,
01/01/2000,01:34:17.34,16.59,-66.61,-991.62,183.75,-691.25,-385.0,1,94.278,
01/01/2000,01:34:17.35,16.47,-66.61,-991.62,131.25,-665.0,-280.0,1,94.283,
01/01/2000,01:34:17.36,16.59,-66.61,-991.86,113.75,-761.25,-341.25,1,94.288,
01/01/2000,01:34:17.37,16.71,-66.61,-991.98,105.0,-726.25,-332.50,1,94.293,
01/01/2000,01:34:17.38,16.84,-66.61,-992.10,43.75,-726.25,-437.50,1,94.298,
01/01/2000,01:34:17.39,16.84,-66.49,-992.10,175.0,-743.75,-385.0,1,94.303,
01/01/2000,01:34:17.40,16.71,-66.61,-991.86,122.50,-857.50,-358.75,1,94.308,
01/01/2000,01:34:17.41,16.84,-66.61,-992.10,52.50,-691.25,-376.25,1,94.231,
01/01/2000,01:34:17.42,16.84,-66.61,-992.10,122.50,-796.25,-358.75,1,94.236,
01/01/2000,01:34:17.43,16.84,-66.61,-991.86,148.75,-638.75,-367.50,1,94.241,
01/01/2000,01:34:17.44,16.96,-66.49,-991.62,52.50,-656.25,-280.0,1,94.246,
01/01/2000,01:34:17.45,16.84,-66.61,-991.62,148.75,-603.75,-358.75,1,94.251,
01/01/2000,01:34:17.46,16.84,-66.49,-991.74,96.25,-656.25,-385.0,1,94.256,
01/01/2000,01:34:17.48,16.84,-66.61,-991.74,96.25,-656.25,-358.75,1,94.261,
01/01/2000,01:34:17.49,16.84,-66.61,-991.86,70.0,-691.25,-437.50,1,94.266,
01/01/2000,01:34:17.50,16.71,-66.61,-991.74,183.75,-665.0,-288.75,1,94.271,
01/01/2000,01:34:17.51,16.84,-66.61,-991.74,131.25,-875.0,-288.75,1,94.276,
01/01/2000,01:34:17.52,16.84,-66.49,-991.74,140.0,-726.25,-262.50,1,94.281,
01/01/2000,01:34:17.53,16.71,-66.49,-991.86,43.75,-595.0,-271.25,1,94.286,
01/01/2000,01:34:17.54,16.59,-66.61,-991.98,262.50,-700.0,-350.0,1,94.291,
01/01/2000,01:34:17.55,16.59,-66.73,-991.86,245.0,-673.75,-288.75,1,94.214,
01/01/2000,01:34:17.56,16.84,-66.61,-991.74,113.75,-656.25,-306.25,1,94.219,
01/01/2000,01:34:17.57,16.71,-66.73,-991.86,175.0,-796.25,-367.50,1,94.224,
01/01/2000,01:34:17.58,16.84,-66.73,-991.86,157.50,-621.25,-350.0,1,94.229,
01/01/2000,01:34:17.59,16.71,-66.73,-991.86,26.25,-813.75,-376.25,1,94.234,
01/01/2000,01:34:17.60,16.59,-66.86,-991.62,131.25,-630.0,-446.25,1,94.239,
01/01/2000,01:34:17.61,16.47,-66.73,-991.62,315.0,-656.25,-350.0,1,94.244,
01/01/2000,01:34:17.63,16.71,-66.73,-991.62,236.25,-726.25,-297.50,1,94.249,
01/01/2000,01:34:17.64,16.71,-66.86,-991.74,113.75,-717.50,-402.50,1,94.254,
01/01/2000,01:34:17.65,16.59,-66.86,-991.74,183.75,-708.75,-306.25,1,94.259,
01/01/2000,01:34:17.66,16.59,-67.10,-991.62,122.50,-726.25,-280.0,1,94.264,
01/01/2000,01:34:17.67,16.71,-66.86,-991.74,183.75,-621.25,-420.0,1,94.269,
01/01/2000,01:34:17.68,16.84,-66.61,-991.74,140.0,-656.25,-306.25,1,94.274,
01/01/2000,01:34:17.69,16.71,-66.86,-991.62,175.0,-673.75,-262.50,1,94.278,
01/01/2000,01:34:17.70,16.71,-67.10,-991.62,148.75,-656.25,-411.25,1,94.283,
01/01/2000,01:34:17.71,16.59,-66.98,-991.62,148.75,-708.75,-306.25,1,94.288,
01/01/2000,01:34:17.72,16.59,-66.98,-991.74,183.75,-752.50,-323.75,1,94.293,
01/01/2000,01:34:17.73,16.84,-66.86,-991.86,210.0,-665.0,-341.25,1,94.298,
01/01/2000,01:34:17.74,16.71,-66.86,-991.62,192.50,-831.25,-332.50,1,94.303,
01/01/2000,01:34:17.76,16.59,-66.86,-991.62,192.50,-708.75,-315.0,1,94.228,
01/01/2000,01:34:17.77,16.84,-66.61,-991.74,253.75,-647.50,-332.50,1,94.232,
01/01/2000,01:34:17.78,16.84,-66.37,-991.86,245.0,-787.50,-332.50,1,94.237,
01/01/2000,01:34:17.79,16.71,-66.49,-991.62,52.50,-665.0,-367.50,1,94.242,
01/01/2000,01:34:17.80,16.59,-66.49,-991.49,157.50,-787.50,-402.50,1,94.247,
01/01/2000,01:34:17.81,16.71,-66.49,-991.37,96.25,-673.75,-376.25,1,94.252,
01/01/2000,01:34:17.82,16.84,-66.37,-991.62,166.25,-700.0,-428.75,1,94.257,
01/01/2000,01:34:17.83,16.84,-66.25,-991.62,166.25,-735.0,-253.75,1,94.262,
01/01/2000,01:34:17.84,16.71,-66.37,-991.62,280.0,-647.50,-315.0,1,94.266,
01/01/2000,01:34:17.85,16.59,-66.37,-991.74,192.50,-700.0,-306.25,1,94.271,
01/01/2000,01:34:17.86,16.59,-66.37,-991.74,323.75,-612.50,-323.75,1,94.276,
01/01/2000,01:34:17.87,16.59,-66.37,-991.86,78.75,-621.25,-306.25,1,94.281,
01/01/2000,01:34:17.88,16.71,-66.49,-991.98,43.75,-568.75,-376.25,1,94.286,
01/01/2000,01:34:17.89,16.59,-66.37,-991.86,96.25,-621.25,-367.50,1,94.291,
01/01/2000,01:34:17.90,16.59,-66.37,-991.86,297.50,-691.25,-358.75,1,94.216,
01/01/2000,01:34:17.91,16.71,-66.37,-991.86,245.0,-691.25,-332.50,1,94.221,
01/01/2000,01:34:17.92,16.59,-66.25,-991.86,183.75,-700.0,-376.25,1,94.226,
01/01/2000,01:34:17.93,16.59,-66.49,-991.86,131.25,-778.75,-420.0,1,94.231,
01/01/2000,01:34:17.94,16.71,-66.49,-991.74,140.0,-656.25,-271.25,1,94.236,
01/01/2000,01:34:17.95,16.71,-66.49,-991.62,131.25,-638.75,-516.25,1,94.240,
01/01/2000,01:34:17.96,16.84,-66.61,-991.74,175.0,-682.50,-402.50,1,94.245,
01/01/2000,01:34:17.98,16.71,-66.37,-991.86,157.50,-796.25,-271.25,1,94.250,
01/01/2000,01:34:17.99,16.84,-66.37,-991.62,131.25,-770.0,-358.75,1,94.255,
01/01/2000,01:34:18.00,16.84,-66.37,-991.62,61.25,-656.25,-306.25,1,94.260,
01/01/2000,01:34:18.01,16.84,-66.37,-991.62,183.75,-708.75,-376.25,1,94.264,
01/01/2000,01:34:18.02,16.84,-66.61,-991.62,175.0,-656.25,-376.25,1,94.269,
01/01/2000,01:34:18.03,16.84,-66.61,-991.62,157.50,-682.50,-288.75,1,94.274,
01/01/2000,01:34:18.04,16.96,-66.49,-991.62,70.0,-665.0,-271.25,1,94.279,
01/01/2000,01:34:18.05,16.96,-66.37,-991.49,201.25,-551.25,-288.75,1,94.283,
01/01/2000,01:34:18.06,16.71,-66.37,-991.49,87.50,-630.0,-245.0,1,94.288,
01/01/2000,01:34:18.07,16.71,-66.49,-991.37,96.25,-743.75,-437.50,1,94.293,
01/01/2000,01:34:18.08,16.59,-66.49,-991.62,52.50,-726.25,-385.0,1,94.298,
01/01/2000,01:34:18.09,16.71,-66.61,-991.62,280.0,-647.50,-288.75,1,94.302,
01/01/2000,01:34:18.10,16.59,-66.61,-991.49,210.0,-691.25,-385.0,1,94.307,
01/01/2000,01:34:18.11,16.59,-66.61,-991.37,0.0,-665.0,-385.0,1,94.234,
01/01/2000,01:34:18.12,16.47,-66.49,-991.49,61.25,-708.75,-253.75,1,94.239,
01/01/2000,01:34:18.13,16.59,-66.49,-991.62,52.50,-717.50,-306.25,1,94.243,
01/01/2000,01:34:18.14,16.59,-66.49,-991.62,140.0,-761.25,-385.0,1,94.248,
01/01/2000,01:34:18.15,16.59,-66.49,-991.37,148.75,-717.50,-332.50,1,94.253,
01/01/2000,01:34:18.16,16.59,-66.37,-991.37,105.0,-621.25,-350.0,1,94.258,
01/01/2000,01:34:18.17,16.59,-66.37,-991.37,253.75,-638.75,-393.75,1,94.262,
01/01/2000,01:34:18.19,16.71,-66.49,-991.74,61.25,-560.0,-525.0,1,94.267,
01/01/2000,01:34:18.20,16.59,-66.37,-991.62,70.0,-743.75,-332.50,1,94.272,
01/01/2000,01:34:18.21,16.59,-66.37,-991.62,192.50,-761.25,-288.75,1,94.276,
01/01/2000,01:34:18.22,16.59,-66.37,-991.62,271.25,-691.25,-393.75,1,94.281,
01/01/2000,01:34:18.23,16.59,-66.49,-991.37,175.0,-691.25,-385.0,1,94.286,
01/01/2000,01:34:18.24,16.59,-66.37,-991.49,96.25,-770.0,-315.0,1,94.290,
01/01/2000,01:34:18.25,16.59,-66.37,-991.74,78.75,-708.75,-315.0,1,94.295,
01/01/2000,01:34:18.27,16.59,-66.37,-991.86,157.50,-638.75,-350.0,1,94.223,
01/01/2000,01:34:18.28,16.71,-66.37,-991.74,227.50,-638.75,-350.0,1,94.228,
01/01/2000,01:34:18.29,16.59,-66.37,-991.62,140.0,-542.50,-402.50,1,94.232,
01/01/2000,01:34:18.30,16.59,-66.37,-991.37,157.50,-603.75,-385.0,1,94.237,
01/01/2000,01:34:18.31,16.71,-66.25,-991.62,131.25,-665.0,-332.50,1,94.242,
01/01/2000,01:34:18.32,16.71,-66.25,-991.74,210.0,-726.25,-306.25,1,94.246,
01/01/2000,01:34:18.33,16.84,-66.37,-991.74,122.50,-717.50,-446.25,1,94.251,
01/01/2000,01:34:18.34,16.84,-66.25,-991.86,17.50,-665.0,-367.50,1,94.256,
01/01/2000,01:34:18.35,16.84,-66.25,-991.86,113.75,-673.75,-411.25,1,94.260,
01/01/2000,01:34:18.36,16.84,-66.37,-991.74,280.0,-787.50,-411.25,1,94.265,
01/01/2000,01:34:18.37,16.59,-66.37,-991.62,157.50,-708.75,-367.50,1,94.270,
01/01/2000,01:34:18.38,16.59,-66.61,-991.62,236.25,-735.0,-411.25,1,94.274,
01/01/2000,01:34:18.39,16.59,-66.49,-991.74,122.50,-630.0,-376.25,1,94.279,
01/01/2000,01:34:18.40,16.59,-66.49,-991.74,192.50,-647.50,-350.0,1,94.283,
01/01/2000,01:34:18.41,16.47,-66.73,-991.62,210.0,-612.50,-350.0,1,94.288,
01/01/2000,01:34:18.42,16.23,-66.73,-991.37,175.0,-770.0,-446.25,1,94.293,
01/01/2000,01:34:18.43,16.23,-66.73,-991.49,131.25,-813.75,-367.50,1,94.297,
01/01/2000,01:34:18.44,16.35,-66.61,-991.62,157.50,-717.50,-402.50,1,94.302,
01/01/2000,01:34:18.45,16.47,-66.73,-991.86,157.50,-577.50,-280.0,1,94.306,
01/01/2000,01:34:18.46,16.35,-66.98,-991.62,166.25,-621.25,-367.50,1,94.235,
01/01/2000,01:34:18.47,16.35,-66.86,-991.37,157.50,-726.25,-350.0,1,94.240,
01/01/2000,01:34:18.48,16.47,-66.86,-991.49,96.25,-743.75,-306.25,1,94.245,
01/01/2000,01:34:18.49,16.47,-66.98,-991.49,323.75,-717.50,-297.50,1,94.249,
01/01/2000,01:34:18.50,16.35,-66.61,-991.62,70.0,-586.25,-358.75,1,94.254,
01/01/2000,01:34:18.51,16.47,-66.61,-991.49,271.25,-691.25,-323.75,1,94.258,
01/01/2000,01:34:18.52,16.35,-66.61,-991.62,87.50,-752.50,-393.75,1,94.263,
01/01/2000,01:34:18.54,16.35,-66.61,-991.62,175.0,-796.25,-323.75,1,94.268,
01/01/2000,01:34:18.55,16.47,-66.61,-991.62,306.25,-770.0,-385.0,1,94.272,
01/01/2000,01:34:18.56,16.59,-66.61,-991.62,245.0,-752.50,-393.75,1,94.277,
01/01/2000,01:34:18.57,16.59,-66.61,-991.74,96.25,-805.0,-350.0,1,94.281,
01/01/2000,01:34:18.58,16.35,-66.61,-991.74,245.0,-638.75,-288.75,1,94.286,
01/01/2000,01:34:18.59,16.35,-66.49,-991.62,-26.25,-691.25,-376.25,1,94.290,
01/01/2000,01:34:18.60,16.35,-66.61,-991.74,306.25,-691.25,-341.25,1,94.295,
01/01/2000,01:34:18.61,16.35,-66.49,-991.86,245.0,-630.0,-393.75,1,94.225,
01/01/2000,01:34:18.62,16.47,-66.49,-991.74,271.25,-577.50,-306.25,1,94.304,
01/01/2000,01:34:18.63,16.35,-66.49,-991.74,271.25,-647.50,-341.25,1,94.234,
01/01/2000,01:34:18.64,16.35,-66.61,-991.62,201.25,-752.50,-245.0,1,94.238,
01/01/2000,01:34:18.65,16.23,-66.61,-991.86,96.25,-735.0,-367.50,1,94.243,
01/01/2000,01:34:18.66,16.10,-66.61,-991.86,131.25,-665.0,-297.50,1,94.247,
01/01/2000,01:34:18.68,16.23,-66.49,-991.98,192.50,-665.0,-411.25,1,94.252,
01/01/2000,01:34:18.69,16.10,-66.37,-991.98,140.0,-673.75,-393.75,1,94.256,
01/01/2000,01:34:18.70,16.10,-66.73,-991.86,210.0,-673.75,-341.25,1,94.261,
01/01/2000,01:34:18.71,16.10,-66.61,-991.86,131.25,-673.75,-358.75,1,94.266,
01/01/2000,01:34:18.72,16.23,-66.61,-991.74,96.25,-708.75,-315.0,1,94.270,
01/01/2000,01:34:18.73,16.35,-66.61,-991.62,140.0,-612.50,-358.75,1,94.275,
01/01/2000,01:34:18.74,16.35,-66.37,-991.62,218.75,-700.0,-323.75,1,94.279,
01/01/2000,01:34:18.75,16.47,-66.37,-991.62,192.50,-691.25,-280.0,1,94.283,
01/01/2000,01:34:18.76,16.59,-66.49,-991.62,157.50,-717.50,-262.50,1,94.288,
01/01/2000,01:34:18.77,16.59,-66.61,-991.74,131.25,-691.25,-271.25,1,94.219,
01/01/2000,01:34:18.79,16.47,-66.49,-991.74,140.0,-665.0,-358.75,1,94.223,
01/01/2000,01:34:18.80,16.35,-66.61,-991.62,183.75,-770.0,-402.50,1,94.228,
01/01/2000,01:34:18.81,16.59,-66.61,-991.74,70.0,-743.75,-358.75,1,94.232,
01/01/2000,01:34:18.82,16.59,-66.73,-991.74,166.25,-612.50,-350.0,1,94.237,
01/01/2000,01:34:18.83,16.59,-66.86,-991.62,245.0,-778.75,-350.0,1,94.241,
01/01/2000,01:34:18.84,16.59,-66.98,-991.62,227.50,-726.25,-393.75,1,94.246,
01/01/2000,01:34:18.85,16.71,-66.86,-991.49,78.75,-665.0,-323.75,1,94.250,
01/01/2000,01:34:18.86,16.59,-66.86,-991.49,218.75,-726.25,-358.75,1,94.255,
01/01/2000,01:34:18.87,16.47,-66.73,-991.49,183.75,-700.0,-446.25,1,94.259,
01/01/2000,01:34:18.88,16.47,-66.86,-991.62,175.0,-805.0,-367.50,1,94.264,
01/01/2000,01:34:18.89,16.59,-66.86,-991.62,105.0,-743.75,-350.0,1,94.268,
01/01/2000,01:34:18.90,16.59,-66.86,-991.62,131.25,-568.75,-393.75,1,94.272,
01/01/2000,01:34:18.91,16.47,-66.73,-991.62,262.50,-708.75,-350.0,1,94.277,
01/01/2000,01:34:18.92,16.59,-66.61,-991.74,148.75,-577.50,-332.50,1,94.281,
01/01/2000,01:34:18.93,16.71,-66.61,-991.86,70.0,-656.25,-332.50,1,94.286,
01/01/2000,01:34:18.94,16.71,-66.86,-991.98,210.0,-603.75,-376.25,1,94.290,
01/01/2000,01:34:18.95,16.59,-66.98,-991.86,52.50,-638.75,-463.75,1,94.295,
01/01/2000,01:34:18.96,16.47,-66.86,-991.62,96.25,-708.75,-306.25,1,94.299,
01/01/2000,01:34:18.97,16.71,-66.73,-991.62,140.0,-560.0,-306.25,1,94.303,
01/01/2000,01:34:18.98,16.71,-66.61,-991.74,175.0,-621.25,-376.25,1,94.308,
01/01/2000,01:34:18.99,16.59,-66.61,-991.74,192.50,-726.25,-350.0,1,94.312,
01/01/2000,01:34:19.00,16.35,-66.61,-991.86,175.0,-647.50,-315.0,1,94.316,
01/01/2000,01:34:19.01,16.35,-66.37,-991.74,166.25,-647.50,-358.75,1,94.321,
01/01/2000,01:34:19.02,16.35,-66.49,-991.86,192.50,-673.75,-315.0,1,94.325,
01/01/2000,01:34:19.03,16.47,-66.37,-991.86,227.50,-691.25,-315.0,1,94.257,
01/01/2000,01:34:19.04,16.47,-66.61,-991.86,183.75,-848.75,-428.75,1,94.262,
01/01/2000,01:34:19.05,16.47,-66.73,-992.10,140.0,-630.0,-323.75,1,94.266,
01/01/2000,01:34:19.06,16.35,-66.73,-992.10,323.75,-612.50,-498.75,1,94.270,
01/01/2000,01:34:19.07,16.59,-66.49,-991.98,131.25,-691.25,-262.50,1,94.275,
01/01/2000,01:34:19.08,16.59,-66.49,-991.74,271.25,-743.75,-262.50,1,94.279,
01/01/2000,01:34:19.10,16.35,-66.73,-991.49,192.50,-743.75,-341.25,1,94.284,
01/01/2000,01:34:19.11,16.35,-66.73,-991.49,140.0,-787.50,-341.25,1,94.288,
01/01/2000,01:34:19.12,16.35,-66.61,-991.74,166.25,-595.0,-341.25,1,94.292,
01/01/2000,01:34:19.13,16.35,-66.61,-991.86,52.50,-691.25,-236.25,1,94.297,
01/01/2000,01:34:19.14,16.10,-66.61,-991.86,245.0,-630.0,-350.0,1,94.301,
01/01/2000,01:34:19.15,16.10,-66.61,-991.62,157.50,-638.75,-323.75,1,94.305,
01/01/2000,01:34:19.16,16.10,-66.61,-991.62,201.25,-603.75,-341.25,1,94.310,
01/01/2000,01:34:19.17,16.35,-66.73,-991.86,113.75,-647.50,-323.75,1,94.314,
01/01/2000,01:34:19.18,16.35,-66.73,-991.86,61.25,-700.0,-367.50,1,94.247,
01/01/2000,01:34:19.19,16.23,-66.61,-991.86,175.0,-752.50,-350.0,1,94.322,
01/01/2000,01:34:19.20,16.10,-66.61,-991.62,183.75,-735.0,-341.25,1,94.255,
01/01/2000,01:34:19.21,16.10,-66.61,-991.62,122.50,-682.50,-367.50,1,94.260,
01/01/2000,01:34:19.22,16.35,-66.61,-991.86,105.0,-673.75,-358.75,1,94.264,
01/01/2000,01:34:19.24,16.35,-66.73,-991.98,131.25,-726.25,-288.75,1,94.268,
01/01/2000,01:34:19.25,16.35,-66.86,-991.86,140.0,-595.0,-210.0,1,94.273,
01/01/2000,01:34:19.26,16.35,-66.86,-991.86,70.0,-717.50,-367.50,1,94.277,
01/01/2000,01:34:19.27,16.35,-66.73,-991.98,175.0,-726.25,-315.0,1,94.281,
01/01/2000,01:34:19.28,16.59,-66.61,-992.10,245.0,-691.25,-428.75,1,94.286,
01/01/2000,01:34:19.29,16.59,-66.86,-992.10,87.50,-673.75,-350.0,1,94.290,
01/01/2000,01:34:19.30,16.59,-66.86,-991.86,113.75,-717.50,-253.75,1,94.294,
01/01/2000,01:34:19.31,16.59,-66.73,-991.86,157.50,-691.25,-297.50,1,94.228,
01/01/2000,01:34:19.32,16.71,-66.73,-991.86,183.75,-656.25,-332.50,1,94.232,
01/01/2000,01:34:19.33,16.71,-66.73,-991.98,105.0,-717.50,-288.75,1,94.237,
01/01/2000,01:34:19.34,16.59,-66.86,-991.98,166.25,-673.75,-341.25,1,94.241,
01/01/2000,01:34:19.35,16.59,-66.86,-991.86,140.0,-857.50,-297.50,1,94.245,
01/01/2000,01:34:19.36,16.71,-66.86,-991.62,52.50,-612.50,-297.50,1,94.249,
01/01/2000,01:34:19.37,16.71,-66.86,-991.86,148.75,-717.50,-245.0,1,94.254,
01/01/2000,01:34:19.38,16.71,-66.86,-991.98,201.25,-691.25,-315.0,1,94.258,
01/01/2000,01:34:19.39,16.59,-66.61,-991.98,122.50,-630.0,-297.50,1,94.262,
01/01/2000,01:34:19.40,16.47,-66.86,-991.86,210.0,-735.0,-315.0,1,94.267,
01/01/2000,01:34:19.41,16.35,-66.86,-991.98,105.0,-805.0,-315.0,1,94.271,
01/01/2000,01:34:19.42,16.47,-66.86,-991.98,105.0,-673.75,-402.50,1,94.275,
01/01/2000,01:34:19.43,16.71,-66.86,-991.98,288.75,-708.75,-332.50,1,94.279,
01/01/2000,01:34:19.45,16.71,-66.86,-991.86,227.50,-717.50,-323.75,1,94.284,
01/01/2000,01:34:19.46,16.47,-66.73,-991.86,166.25,-577.50,-350.0,1,94.288,
01/01/2000,01:34:19.47,16.47,-66.73,-991.98,175.0,-761.25,-288.75,1,94.292,
01/01/2000,01:34:19.48,16.59,-66.61,-991.98,166.25,-665.0,-367.50,1,94.296,
01/01/2000,01:34:19.49,16.59,-66.86,-991.86,166.25,-638.75,-271.25,1,94.301,
01/01/2000,01:34:19.50,16.35,-66.86,-991.86,183.75,-787.50,-385.0,1,94.305,
01/01/2000,01:34:19.51,16.35,-66.86,-991.86,192.50,-656.25,-420.0,1,94.309,
01/01/2000,01:34:19.52,16.35,-66.73,-991.86,8.75,-778.75,-332.50,1,94.313,
01/01/2000,01:34:19.53,16.47,-66.61,-991.86,105.0,-726.25,-367.50,1,94.248,
01/01/2000,01:34:19.54,16.35,-66.73,-991.86,148.75,-726.25,-341.25,1,94.252,
01/01/2000,01:34:19.55,16.35,-66.86,-991.86,201.25,-717.50,-367.50,1,94.256,
01/01/2000,01:34:19.56,16.35,-66.86,-991.98,35.0,-682.50,-332.50,1,94.260,
01/01/2000,01:34:19.57,16.35,-66.86,-991.86,122.50,-691.25,-341.25,1,94.265,
01/01/2000,01:34:19.58,16.35,-66.86,-991.86,78.75,-752.50,-376.25,1,94.269,
01/01/2000,01:34:19.60,16.35,-66.86,-991.74,253.75,-638.75,-288.75,1,94.273,
01/01/2000,01:34:19.61,16.35,-66.98,-991.62,148.75,-647.50,-376.25,1,94.277,
01/01/2000,01:34:19.62,16.35,-66.86,-991.62,122.50,-726.25,-367.50,1,94.282,
01/01/2000,01:34:19.63,16.35,-67.10,-991.74,332.50,-752.50,-358.75,1,94.286,
01/01/2000,01:34:19.64,16.35,-66.86,-991.74,175.0,-735.0,-280.0,1,94.290,
01/01/2000,01:34:19.65,16.59,-66.98,-991.86,210.0,-638.75,-245.0,1,94.294,
01/01/2000,01:34:19.66,16.59,-66.98,-991.98,87.50,-638.75,-332.50,1,94.298,
01/01/2000,01:34:19.67,16.47,-66.98,-991.98,148.75,-700.0,-455.0,1,94.302,
01/01/2000,01:34:19.68,16.47,-66.86,-991.98,131.25,-673.75,-297.50,1,94.307,
01/01/2000,01:34:19.69,16.59,-66.86,-991.86,70.0,-717.50,-393.75,1,94.311,
01/01/2000,01:34:19.70,16.47,-66.98,-991.98,122.50,-813.75,-306.25,1,94.315,
01/01/2000,01:34:19.71,16.47,-66.86,-991.98,175.0,-787.50,-297.50,1,94.319,
01/01/2000,01:34:19.72,16.84,-66.61,-992.10,113.75,-665.0,-323.75,1,94.323,
01/01/2000,01:34:19.73,16.84,-66.86,-992.10,140.0,-708.75,-236.25,1,94.259,
01/01/2000,01:34:19.74,16.35,-67.22,-991.98,218.75,-638.75,-516.25,1,94.263,
01/01/2000,01:34:19.75,16.59,-67.10,-991.86,245.0,-717.50,-481.25,1,94.267,
01/01/2000,01:34:19.76,17.08,-66.73,-991.86,262.50,-700.0,-393.75,1,94.271,
01/01/2000,01:34:19.77,17.20,-66.61,-992.10,-8.75,-717.50,-183.75,1,94.275,
01/01/2000,01:34:19.78,16.71,-67.10,-992.35,192.50,-656.25,-332.50,1,94.280,
01/01/2000,01:34:19.80,16.71,-67.10,-992.23,166.25,-735.0,-437.50,1,94.215,
01/01/2000,01:34:19.82,16.84,-66.73,-992.35,183.75,-638.75,-315.0,1,94.220,
01/01/2000,01:34:19.83,16.84,-66.86,-992.23,61.25,-700.0,-288.75,1,94.224,
01/01/2000,01:34:19.84,16.59,-66.86,-992.10,253.75,-831.25,-358.75,1,94.228,
01/01/2000,01:34:19.85,16.35,-67.10,-992.10,96.25,-682.50,-376.25,1,94.232,
01/01/2000,01:34:19.86,16.35,-66.98,-992.23,227.50,-621.25,-367.50,1,94.236,
01/01/2000,01:34:19.87,16.47,-66.86,-992.35,210.0,-656.25,-332.50,1,94.240,
01/01/2000,01:34:19.88,16.71,-66.61,-992.23,148.75,-665.0,-201.25,1,94.245,
01/01/2000,01:34:19.89,16.59,-66.61,-991.86,227.50,-586.25,-253.75,1,94.249,
01/01/2000,01:34:19.90,16.35,-67.10,-991.86,96.25,-656.25,-350.0,1,94.253,
01/01/2000,01:34:19.91,16.47,-67.10,-992.10,105.0,-665.0,-385.0,1,94.257,
01/01/2000,01:34:19.92,16.71,-66.98,-992.23,157.50,-691.25,-411.25,1,94.261,
01/01/2000,01:34:19.93,16.71,-66.73,-991.98,105.0,-726.25,-280.0,1,94.265,
01/01/2000,01:34:19.94,16.47,-66.49,-991.74,131.25,-717.50,-350.0,1,94.269,
01/01/2000,01:34:19.95,16.35,-66.73,-991.86,166.25,-647.50,-306.25,1,94.273,
01/01/2000,01:34:19.96,16.47,-66.86,-992.10,280.0,-752.50,-428.75,1,94.278,
01/01/2000,01:34:19.97,16.84,-66.86,-992.47,113.75,-717.50,-332.50,1,94.282,
01/01/2000,01:34:19.98,16.84,-66.86,-992.35,166.25,-647.50,-253.75,1,94.286,
01/01/2000,01:34:19.99,16.59,-66.61,-992.23,227.50,-778.75,-323.75,1,94.290,
01/01/2000,01:34:20.00,16.35,-66.73,-992.10,122.50,-726.25,-463.75,1,94.294,
01/01/2000,01:34:20.01,16.35,-66.49,-992.10,183.75,-778.75,-315.0,1,94.298,
01/01/2000,01:34:20.02,16.84,-66.49,-992.59,201.25,-656.25,-306.25,1,94.235,
01/01/2000,01:34:20.03,16.84,-66.61,-992.35,122.50,-761.25,-297.50,1,94.239,
01/01/2000,01:34:20.04,16.35,-66.61,-992.10,192.50,-717.50,-428.75,1,94.243,
01/01/2000,01:34:20.05,16.23,-66.61,-991.98,70.0,-621.25,-393.75,1,94.247,
01/01/2000,01:34:20.06,16.35,-66.61,-992.10,192.50,-673.75,-288.75,1,94.251,
01/01/2000,01:34:20.07,16.47,-66.49,-992.35,192.50,-700.0,-210.0,1,94.255,
01/01/2000,01:34:20.09,16.47,-66.61,-992.71,148.75,-735.0,-332.50,1,94.259,
01/01/2000,01:34:20.10,16.35,-66.86,-992.35,43.75,-717.50,-428.75,1,94.263,
01/01/2000,01:34:20.11,16.35,-66.86,-992.10,148.75,-638.75,-411.25,1,94.268,
01/01/2000,01:34:20.12,16.47,-66.86,-992.10,262.50,-665.0,-315.0,1,94.272,
01/01/2000,01:34:20.13,16.59,-66.61,-992.10,183.75,-778.75,-218.75,1,94.276,
01/01/2000,01:34:20.14,16.59,-66.73,-992.10,140.0,-665.0,-297.50,1,94.280,
01/01/2000,01:34:20.15,16.59,-66.98,-991.98,78.75,-691.25,-411.25,1,94.284,
01/01/2000,01:34:20.16,16.59,-66.98,-991.86,-8.75,-700.0,-393.75,1,94.288,
01/01/2000,01:34:20.17,16.71,-66.86,-991.86,113.75,-708.75,-253.75,1,94.292,
01/01/2000,01:34:20.18,16.84,-66.73,-992.10,253.75,-770.0,-245.0,1,94.296,
01/01/2000,01:34:20.19,16.84,-66.73,-992.10,148.75,-717.50,-420.0,1,94.300,
01/01/2000,01:34:20.20,16.59,-66.73,-991.86,201.25,-638.75,-393.75,1,94.304,
01/01/2000,01:34:20.21,16.47,-66.73,-991.86,218.75,-761.25,-385.0,1,94.308,
01/01/2000,01:34:20.23,16.71,-66.61,-991.86,218.75,-761.25,-341.25,1,94.246,
01/01/2000,01:34:20.24,16.71,-66.73,-991.98,157.50,-665.0,-323.75,1,94.250,
01/01/2000,01:34:20.25,16.71,-66.73,-991.86,131.25,-787.50,-341.25,1,94.254,
01/01/2000,01:34:20.26,16.59,-66.86,-991.86,70.0,-708.75,-446.25,1,94.258,
01/01/2000,01:34:20.27,16.59,-66.73,-992.10,245.0,-682.50,-323.75,1,94.262,
01/01/2000,01:34:20.28,16.71,-66.61,-992.23,148.75,-726.25,-280.0,1,94.266,
01/01/2000,01:34:20.29,16.84,-66.61,-992.23,201.25,-778.75,-341.25,1,94.270,
01/01/2000,01:34:20.30,16.84,-66.86,-991.86,122.50,-735.0,-490.0,1,94.208,
01/01/2000,01:34:20.31,16.71,-66.86,-992.10,253.75,-665.0,-411.25,1,94.212,
01/01/2000,01:34:20.32,16.84,-66.61,-992.35,35.0,-682.50,-315.0,1,94.216,
01/01/2000,01:34:20.33,16.71,-66.61,-992.23,113.75,-656.25,-280.0,1,94.220,
01/01/2000,01:34:20.34,16.59,-66.61,-992.10,131.25,-708.75,-350.0,1,94.224,
01/01/2000,01:34:20.35,16.59,-66.73,-992.10,262.50,-630.0,-385.0,1,94.228,
01/01/2000,01:34:20.36,16.71,-66.73,-991.98,131.25,-673.75,-402.50,1,94.232,
01/01/2000,01:34:20.38,16.71,-66.73,-992.10,105.0,-822.50,-323.75,1,94.236,
01/01/2000,01:34:20.39,16.71,-66.61,-992.10,236.25,-586.25,-332.50,1,94.240,
01/01/2000,01:34:20.40,16.35,-66.73,-992.10,113.75,-673.75,-271.25,1,94.244,
01/01/2000,01:34:20.41,16.10,-66.61,-992.23,166.25,-665.0,-280.0,1,94.248,
01/01/2000,01:34:20.42,16.35,-66.61,-992.23,157.50,-603.75,-358.75,1,94.252,
01/01/2000,01:34:20.43,16.96,-66.37,-992.10,192.50,-761.25,-437.50,1,94.256,
01/01/2000,01:34:20.44,17.08,-66.86,-991.74,122.50,-761.25,-253.75,1,94.260,
01/01/2000,01:34:20.45,16.35,-66.98,-991.74,70.0,-778.75,-341.25,1,94.264,
01/01/2000,01:34:20.46,15.98,-66.86,-992.23,201.25,-656.25,-577.50,1,94.268,
01/01/2000,01:34:20.47,16.23,-66.37,-992.59,280.0,-638.75,-542.50,1,94.272,
01/01/2000,01:34:20.48,16.96,-65.88,-992.35,140.0,-612.50,-140.0,1,94.276,
01/01/2000,01:34:20.49,16.84,-66.25,-991.62,122.50,-778.75,-43.75,1,94.280,
01/01/2000,01:34:20.50,16.47,-66.86,-991.25,70.0,-717.50,-218.75,1,94.284,
01/01/2000,01:34:20.51,16.23,-67.59,-991.86,140.0,-647.50,-586.25,1,94.288,
01/01/2000,01:34:20.52,16.35,-67.34,-992.47,280.0,-743.75,-420.0,1,94.292,
01/01/2000,01:34:20.53,16.96,-66.49,-992.47,227.50,-638.75,-437.50,1,94.296,
01/01/2000,01:34:20.54,16.84,-66.25,-991.98,148.75,-717.50,-280.0,1,94.299,
01/01/2000,01:34:20.55,16.59,-66.25,-991.37,183.75,-560.0,-253.75,1,94.303,
01/01/2000,01:34:20.56,16.23,-67.10,-991.62,332.50,-586.25,-420.0,1,94.307,
01/01/2000,01:34:20.57,16.59,-67.10,-992.23,280.0,-490.0,-437.50,1,94.311,
01/01/2000,01:34:20.58,17.08,-66.73,-992.47,52.50,-516.25,-385.0,1,94.251,
01/01/2000,01:34:20.59,16.84,-66.61,-991.98,210.0,-717.50,-315.0,1,94.254,
01/01/2000,01:34:20.60,16.47,-66.49,-991.37,122.50,-647.50,-367.50,1,94.258,
01/01/2000,01:34:20.61,16.23,-66.49,-991.13,192.50,-673.75,-402.50,1,94.262,
01/01/2000,01:34:20.62,16.59,-66.86,-992.10,227.50,-621.25,-332.50,1,94.266,
01/01/2000,01:34:20.63,16.59,-66.98,-992.59,140.0,-612.50,-437.50,1,94.270,
01/01/2000,01:34:20.65,16.71,-66.86,-992.10,166.25,-638.75,-315.0,1,94.274,
01/01/2000,01:34:20.66,16.59,-66.49,-991.37,236.25,-665.0,-341.25,1,94.278,
01/01/2000,01:34:20.67,16.59,-66.37,-991.37,192.50,-717.50,-306.25,1,94.282,
01/01/2000,01:34:20.68,16.71,-66.61,-992.10,122.50,-726.25,-367.50,1,94.286,
01/01/2000,01:34:20.69,16.84,-66.86,-992.35,157.50,-691.25,-280.0,1,94.290,
01/01/2000,01:34:20.70,16.71,-66.86,-992.10,87.50,-726.25,-350.0,1,94.293,
01/01/2000,01:34:20.71,16.59,-66.86,-991.49,201.25,-735.0,-385.0,1,94.297,
01/01/2000,01:34:20.72,16.71,-66.61,-991.13,140.0,-691.25,-350.0,1,94.301,
01/01/2000,01:34:20.73,16.96,-66.61,-991.62,210.0,-647.50,-280.0,1,94.305,
01/01/2000,01:34:20.74,16.96,-67.10,-992.35,253.75,-726.25,-393.75,1,94.309,
01/01/2000,01:34:20.75,16.84,-67.22,-992.35,-52.50,-708.75,-376.25,1,94.313,
01/01/2000,01:34:20.76,16.71,-66.86,-991.98,122.50,-673.75,-437.50,1,94.317,
01/01/2000,01:34:20.77,16.59,-66.49,-991.74,105.0,-700.0,-385.0,1,94.320,
01/01/2000,01:34:20.78,16.96,-66.25,-991.98,218.75,-691.25,-280.0,1,94.324,
01/01/2000,01:34:20.80,16.96,-66.61,-992.35,201.25,-682.50,-280.0,1,94.265,
01/01/2000,01:34:20.81,16.59,-66.98,-992.23,157.50,-673.75,-481.25,1,94.268,
01/01/2000,01:34:20.82,16.59,-66.73,-991.98,52.50,-647.50,-350.0,1,94.272,
01/01/2000,01:34:20.83,16.84,-66.37,-991.86,17.50,-665.0,-306.25,1,94.276,
01/01/2000,01:34:20.84,16.84,-66.12,-991.98,227.50,-673.75,-175.0,1,94.280,
01/01/2000,01:34:20.85,16.59,-66.37,-991.98,87.50,-691.25,-280.0,1,94.284,
01/01/2000,01:34:20.86,16.35,-66.73,-992.10,192.50,-752.50,-280.0,1,94.288,
01/01/2000,01:34:20.87,16.59,-66.73,-991.98,253.75,-726.25,-393.75,1,94.291,
01/01/2000,01:34:20.88,16.84,-66.49,-991.74,157.50,-612.50,-350.0,1,94.232,
01/01/2000,01:34:20.89,16.84,-66.37,-991.62,192.50,-866.25,-288.75,1,94.236,
01/01/2000,01:34:20.90,16.59,-66.61,-991.62,245.0,-691.25,-271.25,1,94.240,
01/01/2000,01:34:20.91,16.47,-66.61,-991.74,105.0,-665.0,-315.0,1,94.244,
01/01/2000,01:34:20.92,16.59,-66.86,-991.86,35.0,-630.0,-411.25,1,94.247,
01/01/2000,01:34:20.93,16.84,-66.61,-991.86,131.25,-621.25,-315.0,1,94.251,
01/01/2000,01:34:20.94,16.84,-66.49,-991.62,148.75,-603.75,-393.75,1,94.255,
01/01/2000,01:34:20.95,16.84,-66.49,-991.49,227.50,-778.75,-332.50,1,94.259,
01/01/2000,01:34:20.96,16.71,-66.61,-991.62,148.75,-735.0,-297.50,1,94.263,
01/01/2000,01:34:20.97,16.59,-66.73,-991.86,35.0,-770.0,-332.50,1,94.267,
01/01/2000,01:34:20.98,16.71,-66.73,-992.10,131.25,-682.50,-385.0,1,94.270,
01/01/2000,01:34:20.99,16.71,-66.61,-992.10,236.25,-586.25,-341.25,1,94.274,
01/01/2000,01:34:21.01,16.59,-66.61,-991.98,157.50,-735.0,-420.0,1,94.278,
01/01/2000,01:34:21.02,16.71,-66.73,-991.86,201.25,-726.25,-358.75,1,94.282,
01/01/2000,01:34:21.03,16.59,-67.10,-991.98,280.0,-700.0,-376.25,1,94.286,
01/01/2000,01:34:21.04,16.59,-66.98,-992.10,70.0,-665.0,-262.50,1,94.290,
01/01/2000,01:34:21.05,16.59,-66.98,-992.10,148.75,-708.75,-297.50,1,94.293,
01/01/2000,01:34:21.06,16.59,-66.73,-992.10,96.25,-752.50,-227.50,1,94.297,
01/01/2000,01:34:21.07,16.71,-66.73,-991.86,262.50,-612.50,-437.50,1,94.301,
01/01/2000,01:34:21.08,16.71,-66.86,-991.98,131.25,-595.0,-402.50,1,94.305,
01/01/2000,01:34:21.09,16.84,-66.86,-992.10,183.75,-612.50,-437.50,1,94.308,
01/01/2000,01:34:21.10,16.84,-66.86,-992.23,192.50,-708.75,-367.50,1,94.312,
01/01/2000,01:34:21.11,16.59,-66.73,-992.23,183.75,-700.0,-402.50,1,94.316,
01/01/2000,01:34:21.12,16.59,-66.37,-992.10,183.75,-770.0,-341.25,1,94.320,
01/01/2000,01:34:21.13,16.71,-66.37,-992.10,52.50,-735.0,-288.75,1,94.323,
01/01/2000,01:34:21.15,16.84,-66.61,-991.98,43.75,-743.75,-367.50,1,94.265,
01/01/2000,01:34:21.16,16.59,-66.86,-991.98,175.0,-603.75,-262.50,1,94.269,
01/01/2000,01:34:21.17,16.71,-66.73,-991.86,131.25,-796.25,-533.75,1,94.273,
01/01/2000,01:34:21.18,16.59,-66.49,-991.86,105.0,-638.75,-350.0,1,94.276,
01/01/2000,01:34:21.19,16.59,-66.12,-992.10,113.75,-665.0,-341.25,1,94.280,
01/01/2000,01:34:21.20,16.59,-66.37,-992.10,96.25,-717.50,-341.25,1,94.284,
01/01/2000,01:34:21.21,16.59,-66.49,-991.98,245.0,-673.75,-350.0,1,94.288,
01/01/2000,01:34:21.22,16.59,-66.73,-991.86,131.25,-770.0,-393.75,1,94.291,
01/01/2000,01:34:21.23,16.59,-66.61,-991.86,43.75,-638.75,-315.0,1,94.295,
01/01/2000,01:34:21.24,16.59,-66.49,-991.74,271.25,-708.75,-288.75,1,94.299,
01/01/2000,01:34:21.25,16.59,-66.37,-991.74,122.50,-656.25,-358.75,1,94.303,
01/01/2000,01:34:21.26,16.47,-66.49,-991.74,245.0,-621.25,-367.50,1,94.306,
01/01/2000,01:34:21.27,16.59,-66.61,-991.86,131.25,-682.50,-306.25,1,94.310,
01/01/2000,01:34:21.28,16.84,-66.73,-991.74,210.0,-700.0,-350.0,1,94.252,
01/01/2000,01:34:21.29,16.84,-66.73,-991.74,192.50,-708.75,-323.75,1,94.256,
01/01/2000,01:34:21.30,16.59,-66.61,-991.62,218.75,-717.50,-402.50,1,94.260,
01/01/2000,01:34:21.31,16.59,-66.61,-991.74,280.0,-717.50,-437.50,1,94.263,
01/01/2000,01:34:21.33,16.84,-66.61,-991.86,96.25,-673.75,-271.25,1,94.267,
01/01/2000,01:34:21.34,16.96,-66.61,-991.86,87.50,-700.0,-323.75,1,94.271,
01/01/2000,01:34:21.35,16.96,-66.86,-991.86,210.0,-665.0,-367.50,1,94.275,
01/01/2000,01:34:21.36,16.84,-66.86,-991.86,175.0,-691.25,-297.50,1,94.278,
01/01/2000,01:34:21.37,16.84,-66.86,-991.98,245.0,-691.25,-420.0,1,94.282,
01/01/2000,01:34:21.38,16.84,-66.73,-992.23,192.50,-726.25,-385.0,1,94.286,
01/01/2000,01:34:21.39,16.96,-66.61,-992.23,157.50,-770.0,-350.0,1,94.289,
01/01/2000,01:34:21.40,16.84,-66.61,-992.35,157.50,-743.75,-341.25,1,94.293,
01/01/2000,01:34:21.41,16.84,-66.73,-992.10,323.75,-612.50,-297.50,1,94.297,
01/01/2000,01:34:21.42,16.84,-66.73,-992.10,148.75,-743.75,-385.0,1,94.301,
01/01/2000,01:34:21.43,16.96,-66.73,-991.98,157.50,-691.25,-367.50,1,94.304,
01/01/2000,01:34:21.44,16.84,-66.61,-991.98,183.75,-700.0,-323.75,1,94.308,
01/01/2000,01:34:21.45,16.59,-66.73,-991.98,210.0,-665.0,-288.75,1,94.312,
01/01/2000,01:34:21.46,16.59,-66.73,-992.10,201.25,-682.50,-367.50,1,94.315,
01/01/2000,01:34:21.47,16.47,-66.61,-992.23,175.0,-726.25,-280.0,1,94.319,
01/01/2000,01:34:21.48,16.59,-66.61,-992.23,192.50,-673.75,-385.0,1,94.323,
01/01/2000,01:34:21.50,16.47,-66.61,-991.86,26.25,-638.75,-350.0,1,94.265,
01/01/2000,01:34:21.51,16.35,-66.61,-991.86,105.0,-691.25,-411.25,1,94.269,
01/01/2000,01:34:21.52,16.35,-66.61,-991.86,227.50,-630.0,-253.75,1,94.273,
01/01/2000,01:34:21.53,16.47,-66.49,-991.86,140.0,-708.75,-315.0,1,94.277,
01/01/2000,01:34:21.54,16.47,-66.49,-991.86,70.0,-717.50,-332.50,1,94.280,
01/01/2000,01:34:21.55,16.47,-66.61,-991.86,140.0,-682.50,-306.25,1,94.284,
01/01/2000,01:34:21.56,16.35,-66.61,-991.62,148.75,-778.75,-350.0,1,94.288,
01/01/2000,01:34:21.57,16.35,-66.49,-991.62,78.75,-743.75,-428.75,1,94.291,
01/01/2000,01:34:21.58,16.35,-66.49,-991.74,218.75,-805.0,-332.50,1,94.295,
01/01/2000,01:34:21.59,16.35,-66.37,-991.62,105.0,-647.50,-350.0,1,94.299,
01/01/2000,01:34:21.60,16.23,-66.37,-991.74,315.0,-717.50,-367.50,1,94.302,
01/01/2000,01:34:21.61,16.35,-66.49,-991.74,288.75,-630.0,-437.50,1,94.306,
01/01/2000,01:34:21.62,16.35,-66.49,-991.74,105.0,-735.0,-411.25,1,94.309,
01/01/2000,01:34:21.63,16.59,-66.49,-991.86,157.50,-682.50,-315.0,1,94.313,
01/01/2000,01:34:21.64,16.59,-66.61,-991.86,201.25,-656.25,-341.25,1,94.257,
01/01/2000,01:34:21.65,16.47,-66.61,-991.74,122.50,-630.0,-420.0,1,94.260,
01/01/2000,01:34:21.66,16.47,-66.61,-991.86,271.25,-656.25,-393.75,1,94.264,
01/01/2000,01:34:21.67,16.47,-66.61,-991.86,105.0,-638.75,-332.50,1,94.268,
01/01/2000,01:34:21.68,16.59,-66.61,-991.62,131.25,-656.25,-358.75,1,94.271,
01/01/2000,01:34:21.69,16.47,-66.61,-991.62,157.50,-673.75,-323.75,1,94.275,
01/01/2000,01:34:21.71,16.47,-66.86,-991.49,245.0,-691.25,-350.0,1,94.278,
01/01/2000,01:34:21.72,16.59,-66.73,-991.49,192.50,-743.75,-341.25,1,94.282,
01/01/2000,01:34:21.73,16.71,-66.61,-991.49,192.50,-752.50,-323.75,1,94.286,
01/01/2000,01:34:21.74,16.71,-66.61,-991.74,96.25,-761.25,-341.25,1,94.289,
01/01/2000,01:34:21.75,16.59,-66.73,-991.74,218.75,-726.25,-446.25,1,94.293,
01/01/2000,01:34:21.76,16.59,-66.73,-991.86,157.50,-752.50,-358.75,1,94.297,
01/01/2000,01:34:21.77,16.84,-66.61,-991.86,157.50,-665.0,-376.25,1,94.300,
01/01/2000,01:34:21.78,16.84,-66.25,-991.98,175.0,-673.75,-315.0,1,94.304,
01/01/2000,01:34:21.79,16.84,-66.37,-991.86,113.75,-673.75,-315.0,1,94.307,
01/01/2000,01:34:21.80,16.71,-66.37,-991.74,166.25,-630.0,-341.25,1,94.311,
01/01/2000,01:34:21.81,16.59,-66.37,-991.86,271.25,-673.75,-315.0,1,94.315,
01/01/2000,01:34:21.82,16.71,-66.49,-992.10,96.25,-533.75,-446.25,1,94.318,
01/01/2000,01:34:21.84,16.71,-66.49,-991.86,131.25,-787.50,-446.25,1,94.262,
01/01/2000,01:34:21.85,16.47,-66.61,-991.49,245.0,-752.50,-201.25,1,94.266,
01/01/2000,01:34:21.86,16.84,-66.37,-991.37,201.25,-700.0,-446.25,1,94.270,
01/01/2000,01:34:21.87,16.35,-66.86,-991.62,157.50,-708.75,-140.0,1,94.273,
01/01/2000,01:34:21.88,16.59,-66.49,-991.86,-70.0,-682.50,-516.25,1,94.277,
01/01/2000,01:34:21.89,16.59,-66.86,-992.10,280.0,-603.75,-280.0,1,94.280,
01/01/2000,01:34:21.90,16.96,-66.37,-991.86,131.25,-621.25,-306.25,1,94.284,
01/01/2000,01:34:21.91,16.84,-66.73,-991.62,297.50,-735.0,-297.50,1,94.288,
01/01/2000,01:34:21.92,16.71,-66.49,-991.49,201.25,-647.50,-210.0,1,94.291,
01/01/2000,01:34:21.93,16.71,-66.73,-991.86,122.50,-673.75,-638.75,1,94.295,
01/01/2000,01:34:21.94,16.71,-66.61,-991.98,105.0,-735.0,-323.75,1,94.298,
01/01/2000,01:34:21.95,16.84,-66.61,-991.98,166.25,-700.0,-463.75,1,94.302,
01/01/2000,01:34:21.96,16.71,-66.61,-991.74,148.75,-700.0,-262.50,1,94.305,
01/01/2000,01:34:21.97,16.59,-66.73,-991.62,140.0,-673.75,-463.75,1,94.309,
01/01/2000,01:34:21.98,16.59,-66.86,-991.62,218.75,-673.75,-297.50,1,94.313,
01/01/2000,01:34:21.99,16.71,-66.86,-991.86,140.0,-621.25,-210.0,1,94.257,
01/01/2000,01:34:22.00,16.59,-66.73,-991.62,105.0,-752.50,-437.50,1,94.261,
01/01/2000,01:34:22.01,16.47,-66.86,-991.37,131.25,-778.75,-288.75,1,94.264,
01/01/2000,01:34:22.02,16.35,-66.73,-991.37,201.25,-743.75,-393.75,1,94.268,
01/01/2000,01:34:22.03,16.35,-67.10,-991.25,96.25,-682.50,-323.75,1,94.271,
01/01/2000,01:34:22.04,16.59,-66.98,-991.25,175.0,-665.0,-367.50,1,94.275,
01/01/2000,01:34:22.06,16.71,-66.86,-991.37,140.0,-752.50,-315.0,1,94.279,
01/01/2000,01:34:22.07,16.59,-66.98,-991.25,113.75,-630.0,-271.25,1,94.282,
01/01/2000,01:34:22.08,16.59,-66.86,-991.25,210.0,-612.50,-280.0,1,94.286,
01/01/2000,01:34:22.09,16.59,-66.86,-991.37,78.75,-761.25,-315.0,1,94.289,
01/01/2000,01:34:22.10,16.71,-66.86,-991.37,306.25,-700.0,-437.50,1,94.293,
01/01/2000,01:34:22.11,16.47,-66.86,-991.37,105.0,-691.25,-288.75,1,94.296,
01/01/2000,01:34:22.12,16.59,-66.98,-991.25,43.75,-700.0,-323.75,1,94.300,
01/01/2000,01:34:22.13,16.59,-66.86,-991.37,218.75,-735.0,-332.50,1,94.303,
01/01/2000,01:34:22.14,16.47,-66.86,-991.37,245.0,-673.75,-367.50,1,94.249,
01/01/2000,01:34:22.15,16.59,-66.98,-991.49,236.25,-533.75,-306.25,1,94.310,
01/01/2000,01:34:22.16,16.59,-66.86,-991.49,140.0,-717.50,-385.0,1,94.256,
01/01/2000,01:34:22.17,16.71,-66.61,-991.37,131.25,-647.50,-367.50,1,94.259,
01/01/2000,01:34:22.18,16.84,-66.61,-991.37,245.0,-577.50,-288.75,1,94.263,
01/01/2000,01:34:22.19,16.71,-66.73,-991.62,166.25,-761.25,-402.50,1,94.266,
01/01/2000,01:34:22.21,16.71,-66.86,-991.62,148.75,-708.75,-367.50,1,94.270,
01/01/2000,01:34:22.22,16.59,-66.86,-991.62,166.25,-778.75,-350.0,1,94.273,
01/01/2000,01:34:22.23,16.59,-66.86,-991.62,131.25,-656.25,-280.0,1,94.277,
01/01/2000,01:34:22.24,16.59,-66.86,-991.62,183.75,-673.75,-376.25,1,94.280,
01/01/2000,01:34:22.25,16.59,-66.86,-991.62,148.75,-612.50,-385.0,1,94.284,
01/01/2000,01:34:22.26,16.84,-66.86,-991.62,183.75,-743.75,-210.0,1,94.287,
01/01/2000,01:34:22.27,16.71,-66.86,-991.62,218.75,-752.50,-315.0,1,94.291,
01/01/2000,01:34:22.28,16.71,-66.86,-991.62,218.75,-647.50,-332.50,1,94.294,
01/01/2000,01:34:22.29,16.59,-66.86,-991.62,271.25,-743.75,-358.75,1,94.298,
01/01/2000,01:34:22.30,16.84,-66.86,-991.86,192.50,-682.50,-306.25,1,94.301,
01/01/2000,01:34:22.31,16.71,-66.73,-991.86,288.75,-752.50,-367.50,1,94.305,
01/01/2000,01:34:22.32,16.71,-66.73,-991.86,148.75,-638.75,-332.50,1,94.308,
01/01/2000,01:34:22.33,16.71,-66.61,-991.74,192.50,-743.75,-315.0,1,94.312,
01/01/2000,01:34:22.35,16.84,-66.86,-991.86,148.75,-603.75,-350.0,1,94.258,
01/01/2000,01:34:22.36,16.84,-66.86,-991.74,157.50,-595.0,-350.0,1,94.261,
01/01/2000,01:34:22.37,16.84,-66.61,-991.62,210.0,-665.0,-253.75,1,94.265,
01/01/2000,01:34:22.38,16.59,-66.61,-991.49,245.0,-682.50,-306.25,1,94.268,
01/01/2000,01:34:22.39,16.71,-66.61,-991.62,140.0,-735.0,-428.75,1,94.272,
01/01/2000,01:34:22.40,16.71,-66.73,-991.74,280.0,-770.0,-420.0,1,94.275,
01/01/2000,01:34:22.41,16.84,-66.73,-991.74,175.0,-665.0,-306.25,1,94.279,
01/01/2000,01:34:22.42,16.71,-66.73,-991.62,201.25,-700.0,-227.50,1,94.282,
01/01/2000,01:34:22.43,16.59,-66.61,-991.49,166.25,-691.25,-306.25,1,94.286,
01/01/2000,01:34:22.44,16.59,-66.49,-991.37,87.50,-735.0,-332.50,1,94.289,
01/01/2000,01:34:22.45,16.71,-66.37,-991.62,280.0,-700.0,-350.0,1,94.293,
01/01/2000,01:34:22.46,16.71,-66.37,-991.74,210.0,-682.50,-306.25,1,94.296,
01/01/2000,01:34:22.47,16.84,-66.37,-991.62,280.0,-673.75,-367.50,1,94.300,
01/01/2000,01:34:22.48,16.59,-66.49,-991.62,157.50,-717.50,-245.0,1,94.303,
01/01/2000,01:34:22.49,16.84,-66.61,-991.62,113.75,-586.25,-323.75,1,94.306,
01/01/2000,01:34:22.50,16.96,-66.49,-991.49,26.25,-831.25,-210.0,1,94.310,
01/01/2000,01:34:22.51,17.20,-66.61,-991.62,96.25,-621.25,-393.75,1,94.313,
01/01/2000,01:34:22.52,16.84,-66.61,-991.74,43.75,-673.75,-323.75,1,94.317,
01/01/2000,01:34:22.53,16.71,-66.73,-991.62,218.75,-726.25,-315.0,1,94.320,
01/01/2000,01:34:22.54,16.71,-66.49,-991.62,183.75,-726.25,-350.0,1,94.324,
01/01/2000,01:34:22.55,16.84,-66.37,-991.49,-43.75,-647.50,-253.75,1,94.327,
01/01/2000,01:34:22.56,16.84,-66.61,-991.37,245.0,-717.50,-350.0,1,94.331,
01/01/2000,01:34:22.57,16.84,-66.61,-991.25,87.50,-638.75,-280.0,1,94.277,
01/01/2000,01:34:22.58,16.84,-66.73,-991.37,87.50,-603.75,-323.75,1,94.337,
01/01/2000,01:34:22.59,16.71,-66.61,-991.37,70.0,-743.75,-341.25,1,94.284,
01/01/2000,01:34:22.60,16.71,-66.37,-991.37,183.75,-673.75,-428.75,1,94.344,
01/01/2000,01:34:22.61,16.59,-66.49,-991.49,122.50,-700.0,-262.50,1,94.291,
01/01/2000,01:34:22.63,17.08,-66.25,-991.13,96.25,-595.0,-446.25,1,94.294,
01/01/2000,01:34:22.64,16.84,-66.86,-991.13,385.0,-761.25,-367.50,1,94.298,
01/01/2000,01:34:22.65,16.84,-66.86,-991.37,131.25,-481.25,-271.25,1,94.301,
01/01/2000,01:34:22.66,16.59,-66.73,-991.49,166.25,-761.25,-595.0,1,94.305,
01/01/2000,01:34:22.67,16.59,-66.49,-991.62,70.0,-612.50,-210.0,1,94.308,
01/01/2000,01:34:22.68,16.59,-66.12,-991.74,253.75,-612.50,-376.25,1,94.311,
01/01/2000,01:34:22.69,16.84,-66.37,-991.62,253.75,-542.50,-367.50,1,94.315,
01/01/2000,01:34:22.70,16.96,-66.61,-991.37,210.0,-682.50,-271.25,1,94.318,
