rtcDate,rtcTime,aX,aY,aZ,gX,gY,gZ,dataRdy,output_Hz,
01/01/2000,01:24:54.92,16.84,-53.44,-862.91,262.50,-647.50,-350.0,1,0.0,
01/01/2000,01:24:54.93,17.32,-54.66,-885.72,183.75,-691.25,-376.25,1,200.0,
01/01/2000,01:24:54.94,17.81,-55.63,-904.75,131.25,-717.50,-288.75,1,100.0,
01/01/2000,01:24:54.95,18.06,-56.36,-915.61,288.75,-682.50,-341.25,1,100.0,
01/01/2000,01:24:54.96,18.18,-57.10,-925.00,52.50,-673.75,-297.50,1,100.0,
01/01/2000,01:24:54.97,18.30,-57.71,-933.30,166.25,-638.75,-420.0,1,100.0,
01/01/2000,01:24:54.98,18.42,-58.32,-944.16,105.0,-752.50,-288.75,1,100.0,
01/01/2000,01:24:54.99,18.79,-58.56,-950.14,166.25,-708.75,-315.0,1,100.0,
01/01/2000,01:24:55.00,18.79,-59.05,-955.38,166.25,-673.75,-350.0,1,100.0,
01/01/2000,01:24:55.01,18.67,-59.41,-961.97,183.75,-717.50,-288.75,1,100.0,
01/01/2000,01:24:55.02,18.79,-59.66,-965.87,131.25,-726.25,-411.25,1,100.0,
01/01/2000,01:24:55.03,18.91,-59.90,-969.29,192.50,-656.25,-245.0,1,100.0,
01/01/2000,01:24:55.04,19.28,-60.02,-972.10,288.75,-735.0,-306.25,1,100.0,
01/01/2000,01:24:55.06,19.15,-60.27,-975.63,218.75,-866.25,-306.25,1,100.0,
01/01/2000,01:24:55.07,19.15,-60.51,-977.71,253.75,-708.75,-262.50,1,100.0,
01/01/2000,01:24:55.08,19.15,-60.63,-979.90,175.0,-770.0,-376.25,1,100.0,
01/01/2000,01:24:55.09,19.28,-60.63,-981.61,148.75,-630.0,-306.25,1,100.0,
01/01/2000,01:24:55.10,19.52,-60.76,-983.56,140.0,-691.25,-297.50,1,100.0,
01/01/2000,01:24:55.11,19.28,-60.76,-984.54,140.0,-647.50,-385.0,1,100.0,
01/01/2000,01:24:55.12,19.15,-60.76,-985.52,175.0,-708.75,-323.75,1,100.0,
01/01/2000,01:24:55.13,19.28,-61.0,-986.49,175.0,-638.75,-385.0,1,100.0,
01/01/2000,01:24:55.14,19.52,-61.0,-987.71,166.25,-647.50,-402.50,1,100.0,
01/01/2000,01:24:55.15,19.52,-61.0,-988.44,52.50,-778.75,-315.0,1,100.0,
01/01/2000,01:24:55.16,19.52,-61.0,-988.81,70.0,-621.25,-323.75,1,100.0,
01/01/2000,01:24:55.17,19.40,-60.88,-989.18,175.0,-691.25,-358.75,1,100.0,
01/01/2000,01:24:55.18,19.40,-61.0,-989.91,166.25,-656.25,-350.0,1,100.0,
01/01/2000,01:24:55.19,19.40,-61.24,-990.52,297.50,-691.25,-218.75,1,100.0,
01/01/2000,01:24:55.20,19.40,-61.24,-991.01,192.50,-726.25,-297.50,1,100.0,
01/01/2000,01:24:55.21,19.52,-61.24,-991.13,96.25,-717.50,-306.25,1,100.0,
01/01/2000,01:24:55.22,19.28,-61.24,-991.25,280.0,-612.50,-262.50,1,100.0,
01/01/2000,01:24:55.23,19.15,-60.88,-991.49,-17.50,-796.25,-271.25,1,100.0,
01/01/2000,01:24:55.24,19.52,-61.12,-991.74,376.25,-612.50,-367.50,1,100.0,
01/01/2000,01:24:55.25,19.40,-61.0,-991.86,122.50,-673.75,-306.25,1,100.0,
01/01/2000,01:24:55.27,19.40,-61.12,-991.98,113.75,-691.25,-411.25,1,97.143,
01/01/2000,01:24:55.27,19.40,-61.24,-992.23,70.0,-691.25,-210.0,1,97.222,
01/01/2000,01:24:55.29,19.40,-61.0,-992.35,8.75,-726.25,-315.0,1,97.297,
01/01/2000,01:24:55.30,19.40,-61.12,-992.35,175.0,-700.0,-455.0,1,97.368,
01/01/2000,01:24:55.31,19.40,-61.24,-992.35,192.50,-612.50,-367.50,1,97.436,
01/01/2000,01:24:55.32,19.28,-61.24,-992.35,192.50,-595.0,-297.50,1,97.500,
01/01/2000,01:24:55.33,19.40,-61.24,-992.35,271.25,-796.25,-341.25,1,97.561,
01/01/2000,01:24:55.34,19.52,-61.0,-992.35,175.0,-630.0,-297.50,1,97.619,
01/01/2000,01:24:55.35,19.52,-61.12,-992.47,227.50,-665.0,-332.50,1,97.674,
01/01/2000,01:24:55.36,19.64,-61.0,-992.59,96.25,-700.0,-288.75,1,97.727,
01/01/2000,01:24:55.37,19.52,-61.24,-992.47,148.75,-647.50,-315.0,1,97.778,
01/01/2000,01:24:55.38,19.52,-61.12,-992.47,166.25,-743.75,-323.75,1,97.826,
01/01/2000,01:24:55.39,19.52,-61.12,-992.59,192.50,-665.0,-385.0,1,97.872,
01/01/2000,01:24:55.40,19.52,-61.12,-992.84,323.75,-621.25,-341.25,1,97.917,
01/01/2000,01:24:55.41,19.52,-61.0,-992.84,8.75,-743.75,-315.0,1,96.0,
01/01/2000,01:24:55.42,19.28,-61.37,-992.84,262.50,-708.75,-315.0,1,96.078,
01/01/2000,01:24:55.44,19.40,-61.24,-993.20,35.0,-700.0,-358.75,1,96.154,
01/01/2000,01:24:55.45,19.52,-61.24,-993.32,183.75,-682.50,-446.25,1,96.226,
01/01/2000,01:24:55.46,19.40,-61.12,-993.08,253.75,-700.0,-306.25,1,96.296,
01/01/2000,01:24:55.47,19.28,-61.24,-993.08,52.50,-691.25,-385.0,1,96.364,
01/01/2000,01:24:55.48,19.40,-61.24,-993.08,236.25,-726.25,-376.25,1,96.429,
01/01/2000,01:24:55.49,19.40,-61.24,-993.08,148.75,-682.50,-280.0,1,96.491,
01/01/2000,01:24:55.50,19.28,-61.49,-992.84,280.0,-700.0,-385.0,1,96.552,
01/01/2000,01:24:55.51,19.28,-61.49,-992.59,245.0,-691.25,-297.50,1,96.610,
01/01/2000,01:24:55.52,19.28,-61.24,-992.59,87.50,-691.25,-323.75,1,96.667,
01/01/2000,01:24:55.53,19.52,-61.37,-992.71,341.25,-665.0,-297.50,1,96.721,
01/01/2000,01:24:55.54,19.28,-61.37,-992.84,113.75,-551.25,-350.0,1,96.774,
01/01/2000,01:24:55.55,19.28,-61.61,-992.71,297.50,-656.25,-411.25,1,96.825,
01/01/2000,01:24:55.56,19.28,-61.49,-992.71,131.25,-577.50,-411.25,1,96.875,
01/01/2000,01:24:55.57,19.28,-61.49,-992.84,245.0,-673.75,-350.0,1,96.923,
01/01/2000,01:24:55.58,19.40,-61.24,-992.84,140.0,-673.75,-315.0,1,96.970,
01/01/2000,01:24:55.59,19.28,-61.24,-992.84,157.50,-638.75,-262.50,1,97.015,
01/01/2000,01:24:55.60,19.28,-61.24,-992.96,131.25,-638.75,-446.25,1,97.059,
01/01/2000,01:24:55.61,19.28,-61.24,-993.08,210.0,-708.75,-393.75,1,97.101,
01/01/2000,01:24:55.62,19.40,-61.0,-992.96,52.50,-708.75,-350.0,1,95.775,
01/01/2000,01:24:55.63,19.40,-61.12,-992.84,262.50,-638.75,-245.0,1,95.833,
01/01/2000,01:24:55.64,19.28,-61.0,-992.84,192.50,-796.25,-350.0,1,95.890,
01/01/2000,01:24:55.65,19.03,-61.37,-992.84,157.50,-796.25,-358.75,1,95.946,
01/01/2000,01:24:55.66,19.40,-61.37,-992.96,131.25,-778.75,-402.50,1,96.0,
01/01/2000,01:24:55.67,19.40,-61.37,-992.96,131.25,-787.50,-367.50,1,96.053,
01/01/2000,01:24:55.68,19.28,-61.24,-992.84,35.0,-700.0,-367.50,1,96.104,
01/01/2000,01:24:55.70,19.28,-61.24,-992.84,113.75,-726.25,-428.75,1,96.154,
01/01/2000,01:24:55.71,19.52,-61.0,-992.96,52.50,-752.50,-341.25,1,96.203,
01/01/2000,01:24:55.72,19.64,-61.24,-993.08,157.50,-708.75,-323.75,1,96.250,
01/01/2000,01:24:55.73,19.03,-61.37,-992.96,210.0,-700.0,-315.0,1,96.296,
01/01/2000,01:24:55.74,18.91,-61.12,-992.84,192.50,-682.50,-446.25,1,96.341,
01/01/2000,01:24:55.75,19.03,-61.12,-992.84,218.75,-665.0,-481.25,1,96.386,
01/01/2000,01:24:55.76,19.15,-61.0,-992.96,26.25,-726.25,-210.0,1,96.429,
01/01/2000,01:24:55.77,19.15,-61.12,-992.96,43.75,-726.25,-402.50,1,96.471,
01/01/2000,01:24:55.78,19.28,-61.37,-992.71,332.50,-665.0,-437.50,1,96.512,
01/01/2000,01:24:55.79,19.28,-61.24,-992.71,236.25,-796.25,-350.0,1,96.552,
01/01/2000,01:24:55.80,19.28,-61.12,-992.84,358.75,-656.25,-455.0,1,96.591,
01/01/2000,01:24:55.81,19.40,-61.0,-992.84,140.0,-752.50,-236.25,1,96.629,
01/01/2000,01:24:55.82,19.40,-61.0,-992.84,105.0,-612.50,-332.50,1,96.667,
01/01/2000,01:24:55.83,19.15,-61.0,-992.84,70.0,-665.0,-350.0,1,95.652,
01/01/2000,01:24:55.84,19.28,-61.24,-992.71,315.0,-735.0,-262.50,1,95.699,
01/01/2000,01:24:55.85,19.52,-61.12,-992.71,122.50,-743.75,-385.0,1,95.745,
01/01/2000,01:24:55.86,19.40,-61.12,-992.59,148.75,-656.25,-253.75,1,95.789,
01/01/2000,01:24:55.87,19.15,-61.0,-992.59,122.50,-682.50,-350.0,1,95.833,
01/01/2000,01:24:55.89,19.03,-61.0,-992.59,288.75,-717.50,-350.0,1,95.876,
01/01/2000,01:24:55.90,19.28,-61.0,-992.84,61.25,-647.50,-385.0,1,95.918,
01/01/2000,01:24:55.91,19.40,-61.0,-992.84,166.25,-630.0,-332.50,1,95.960,
01/01/2000,01:24:55.92,19.40,-60.88,-992.71,131.25,-700.0,-367.50,1,96.0,
01/01/2000,01:24:55.93,19.40,-61.0,-992.59,131.25,-577.50,-393.75,1,96.040,
01/01/2000,01:24:55.94,19.52,-60.76,-992.59,122.50,-726.25,-262.50,1,95.146,
01/01/2000,01:24:55.95,19.52,-60.51,-992.71,218.75,-665.0,-315.0,1,95.192,
01/01/2000,01:24:55.96,19.52,-60.51,-992.59,61.25,-682.50,-297.50,1,95.238,
01/01/2000,01:24:55.98,19.40,-60.63,-992.59,210.0,-700.0,-288.75,1,95.283,
01/01/2000,01:24:55.99,19.28,-60.76,-992.35,183.75,-708.75,-323.75,1,95.327,
01/01/2000,01:24:56.00,19.28,-60.88,-992.59,227.50,-717.50,-428.75,1,95.370,
01/01/2000,01:24:56.01,19.76,-60.63,-992.59,105.0,-691.25,-323.75,1,95.413,
01/01/2000,01:24:56.02,19.89,-60.63,-992.47,262.50,-770.0,-350.0,1,95.455,
01/01/2000,01:24:56.03,19.76,-60.88,-992.59,201.25,-586.25,-227.50,1,95.495,
01/01/2000,01:24:56.04,19.40,-60.88,-992.47,131.25,-708.75,-367.50,1,95.536,
01/01/2000,01:24:56.05,19.52,-60.76,-992.59,113.75,-726.25,-341.25,1,95.575,
01/01/2000,01:24:56.06,19.52,-60.76,-992.71,78.75,-735.0,-253.75,1,95.614,
01/01/2000,01:24:56.07,19.52,-60.76,-992.59,122.50,-700.0,-315.0,1,95.652,
01/01/2000,01:24:56.08,19.52,-60.88,-992.23,175.0,-735.0,-350.0,1,95.690,
01/01/2000,01:24:56.09,19.52,-61.0,-992.10,227.50,-796.25,-411.25,1,95.726,
01/01/2000,01:24:56.10,19.52,-61.24,-992.35,166.25,-691.25,-306.25,1,95.763,
01/01/2000,01:24:56.11,19.76,-61.0,-992.59,-43.75,-673.75,-358.75,1,95.798,
01/01/2000,01:24:56.12,19.89,-60.88,-992.47,96.25,-717.50,-245.0,1,95.833,
01/01/2000,01:24:56.13,19.76,-61.0,-992.47,140.0,-700.0,-367.50,1,95.868,
01/01/2000,01:24:56.14,19.40,-61.12,-992.47,218.75,-717.50,-341.25,1,95.902,
01/01/2000,01:24:56.15,19.40,-61.0,-992.71,175.0,-726.25,-323.75,1,95.935,
01/01/2000,01:24:56.16,19.52,-61.0,-992.84,122.50,-682.50,-376.25,1,95.968,
01/01/2000,01:24:56.17,19.52,-60.88,-992.59,78.75,-656.25,-306.25,1,96.0,
01/01/2000,01:24:56.19,19.28,-61.12,-992.23,210.0,-735.0,-323.75,1,95.276,
01/01/2000,01:24:56.19,19.28,-61.0,-992.35,227.50,-691.25,-350.0,1,95.313,
01/01/2000,01:24:56.21,19.40,-60.88,-992.59,262.50,-752.50,-402.50,1,95.349,
01/01/2000,01:24:56.21,19.52,-60.76,-992.84,-26.25,-726.25,-288.75,1,95.385,
01/01/2000,01:24:56.23,19.64,-60.76,-992.59,157.50,-682.50,-306.25,1,95.420,
01/01/2000,01:24:56.24,19.52,-60.76,-992.23,262.50,-665.0,-315.0,1,95.455,
01/01/2000,01:24:56.25,19.40,-60.76,-992.23,105.0,-682.50,-420.0,1,95.489,
01/01/2000,01:24:56.26,19.52,-61.0,-992.35,148.75,-630.0,-323.75,1,95.522,
01/01/2000,01:24:56.27,19.52,-61.0,-992.35,192.50,-787.50,-201.25,1,95.556,
01/01/2000,01:24:56.28,19.40,-60.88,-992.23,175.0,-586.25,-297.50,1,95.588,
01/01/2000,01:24:56.29,19.15,-61.0,-992.10,148.75,-752.50,-411.25,1,95.620,
01/01/2000,01:24:56.30,19.28,-60.88,-992.23,175.0,-665.0,-323.75,1,95.652,
01/01/2000,01:24:56.31,19.52,-60.88,-992.35,227.50,-778.75,-385.0,1,95.683,
01/01/2000,01:24:56.32,19.52,-60.88,-992.35,210.0,-796.25,-315.0,1,95.714,
01/01/2000,01:24:56.33,19.28,-61.0,-992.35,166.25,-647.50,-420.0,1,95.070,
01/01/2000,01:24:56.34,19.40,-60.88,-992.23,262.50,-665.0,-341.25,1,95.105,
01/01/2000,01:24:56.35,19.52,-60.88,-992.35,96.25,-752.50,-306.25,1,95.139,
01/01/2000,01:24:56.36,19.52,-60.88,-992.10,43.75,-673.75,-306.25,1,95.172,
01/01/2000,01:24:56.37,19.52,-61.0,-992.10,280.0,-638.75,-315.0,1,95.205,
01/01/2000,01:24:56.38,19.52,-61.0,-991.98,113.75,-638.75,-367.50,1,95.238,
01/01/2000,01:24:56.40,19.40,-61.0,-992.23,201.25,-726.25,-385.0,1,95.270,
01/01/2000,01:24:56.41,19.40,-60.88,-992.23,166.25,-595.0,-350.0,1,95.302,
01/01/2000,01:24:56.42,19.52,-60.88,-992.23,253.75,-708.75,-323.75,1,95.333,
01/01/2000,01:24:56.43,19.40,-60.88,-992.23,245.0,-673.75,-323.75,1,95.364,
01/01/2000,01:24:56.44,19.40,-61.0,-992.23,166.25,-638.75,-332.50,1,95.395,
01/01/2000,01:24:56.45,19.28,-61.0,-992.35,183.75,-630.0,-341.25,1,95.425,
01/01/2000,01:24:56.46,19.28,-61.0,-992.35,288.75,-656.25,-358.75,1,95.455,
01/01/2000,01:24:56.47,19.40,-61.0,-992.23,183.75,-717.50,-315.0,1,94.872,
01/01/2000,01:24:56.48,19.40,-60.88,-992.10,113.75,-647.50,-297.50,1,94.904,
01/01/2000,01:24:56.49,19.28,-61.12,-992.10,157.50,-717.50,-376.25,1,94.937,
01/01/2000,01:24:56.50,19.28,-61.24,-992.10,157.50,-595.0,-297.50,1,94.969,
01/01/2000,01:24:56.51,19.40,-61.12,-992.10,166.25,-805.0,-341.25,1,95.0,
01/01/2000,01:24:56.52,19.52,-61.24,-992.10,210.0,-682.50,-323.75,1,95.031,
01/01/2000,01:24:56.53,19.52,-61.24,-992.10,61.25,-743.75,-350.0,1,95.062,
01/01/2000,01:24:56.54,19.40,-61.24,-992.10,131.25,-656.25,-376.25,1,95.092,
01/01/2000,01:24:56.55,19.40,-61.24,-992.10,43.75,-717.50,-358.75,1,95.122,
01/01/2000,01:24:56.56,19.40,-61.24,-992.23,271.25,-691.25,-376.25,1,95.152,
01/01/2000,01:24:56.58,19.52,-61.0,-992.35,17.50,-647.50,-367.50,1,95.181,
01/01/2000,01:24:56.58,19.52,-61.0,-992.35,8.75,-682.50,-358.75,1,95.210,
01/01/2000,01:24:56.60,19.52,-61.0,-992.35,140.0,-700.0,-402.50,1,95.238,
01/01/2000,01:24:56.61,19.40,-61.0,-992.35,192.50,-656.25,-288.75,1,95.266,
01/01/2000,01:24:56.62,19.40,-61.12,-992.35,140.0,-691.25,-350.0,1,95.294,
01/01/2000,01:24:56.63,19.52,-61.0,-992.10,183.75,-796.25,-280.0,1,95.322,
01/01/2000,01:24:56.64,19.52,-61.0,-992.10,70.0,-630.0,-350.0,1,95.349,
01/01/2000,01:24:56.65,19.40,-61.0,-991.98,201.25,-700.0,-411.25,1,95.376,
01/01/2000,01:24:56.66,19.28,-61.0,-992.10,105.0,-656.25,-358.75,1,95.402,
01/01/2000,01:24:56.67,19.15,-61.12,-992.23,140.0,-665.0,-376.25,1,95.429,
01/01/2000,01:24:56.68,19.15,-61.12,-992.35,236.25,-700.0,-315.0,1,94.915,
01/01/2000,01:24:56.69,19.28,-61.0,-991.98,96.25,-603.75,-236.25,1,94.944,
01/01/2000,01:24:56.70,19.28,-61.12,-991.86,175.0,-665.0,-341.25,1,94.972,
01/01/2000,01:24:56.71,19.40,-61.12,-991.86,192.50,-665.0,-297.50,1,95.0,
01/01/2000,01:24:56.72,19.28,-61.12,-992.10,148.75,-691.25,-402.50,1,95.028,
01/01/2000,01:24:56.73,19.28,-61.12,-992.10,245.0,-761.25,-358.75,1,95.055,
01/01/2000,01:24:56.74,19.40,-60.88,-992.10,262.50,-603.75,-358.75,1,95.082,
01/01/2000,01:24:56.76,19.40,-60.76,-991.86,105.0,-708.75,-341.25,1,95.109,
01/01/2000,01:24:56.77,19.28,-61.0,-991.86,218.75,-796.25,-376.25,1,95.135,
01/01/2000,01:24:56.78,19.28,-61.12,-992.23,148.75,-708.75,-332.50,1,95.161,
01/01/2000,01:24:56.79,19.40,-61.0,-992.35,96.25,-717.50,-428.75,1,95.187,
01/01/2000,01:24:56.80,19.64,-60.88,-992.23,140.0,-673.75,-288.75,1,95.213,
01/01/2000,01:24:56.81,19.64,-61.0,-992.23,113.75,-630.0,-297.50,1,95.238,
01/01/2000,01:24:56.82,19.52,-61.0,-992.10,105.0,-682.50,-367.50,1,95.263,
01/01/2000,01:24:56.83,19.52,-61.12,-992.23,262.50,-708.75,-393.75,1,95.288,
01/01/2000,01:24:56.84,19.52,-61.24,-992.35,70.0,-665.0,-350.0,1,95.313,
01/01/2000,01:24:56.85,19.40,-61.24,-992.23,140.0,-735.0,-507.50,1,95.337,
01/01/2000,01:24:56.86,19.28,-61.12,-992.10,183.75,-656.25,-332.50,1,95.361,
01/01/2000,01:24:56.87,19.40,-61.0,-992.10,105.0,-787.50,-297.50,1,95.385,
01/01/2000,01:24:56.88,19.52,-61.12,-992.23,-8.75,-682.50,-332.50,1,95.408,
01/01/2000,01:24:56.89,19.52,-61.24,-992.35,175.0,-700.0,-306.25,1,94.949,
01/01/2000,01:24:56.90,19.52,-61.24,-992.23,192.50,-691.25,-367.50,1,94.975,
01/01/2000,01:24:56.91,19.28,-61.24,-991.98,140.0,-761.25,-385.0,1,95.0,
01/01/2000,01:24:56.92,19.28,-60.88,-991.86,140.0,-621.25,-376.25,1,95.025,
01/01/2000,01:24:56.93,19.52,-60.88,-992.23,131.25,-656.25,-297.50,1,95.050,
01/01/2000,01:24:56.94,19.52,-61.0,-992.35,96.25,-673.75,-218.75,1,95.074,
01/01/2000,01:24:56.96,19.52,-61.12,-992.47,148.75,-761.25,-271.25,1,95.098,
01/01/2000,01:24:56.97,19.40,-61.12,-992.23,227.50,-691.25,-323.75,1,94.660,
01/01/2000,01:24:56.98,19.52,-61.0,-992.10,175.0,-778.75,-332.50,1,94.686,
01/01/2000,01:24:56.99,19.64,-60.88,-992.35,105.0,-595.0,-341.25,1,94.712,
01/01/2000,01:24:57.00,19.76,-61.0,-992.35,245.0,-647.50,-297.50,1,94.737,
01/01/2000,01:24:57.01,19.52,-61.12,-992.23,253.75,-691.25,-323.75,1,94.762,
01/01/2000,01:24:57.02,19.52,-61.12,-991.98,297.50,-630.0,-306.25,1,94.787,
01/01/2000,01:24:57.03,19.64,-61.0,-991.98,157.50,-682.50,-271.25,1,94.811,
01/01/2000,01:24:57.05,19.76,-60.88,-991.98,122.50,-612.50,-218.75,1,94.836,
01/01/2000,01:24:57.06,19.76,-61.0,-992.10,157.50,-700.0,-271.25,1,94.860,
01/01/2000,01:24:57.07,19.64,-61.12,-992.10,140.0,-630.0,-350.0,1,94.884,
01/01/2000,01:24:57.08,19.52,-61.24,-991.98,271.25,-682.50,-350.0,1,94.907,
01/01/2000,01:24:57.09,19.52,-61.12,-992.10,175.0,-595.0,-236.25,1,94.931,
01/01/2000,01:24:57.10,19.52,-61.12,-992.10,61.25,-647.50,-350.0,1,94.954,
01/01/2000,01:24:57.11,19.40,-61.24,-991.98,280.0,-621.25,-323.75,1,94.977,
01/01/2000,01:24:57.12,19.40,-61.24,-991.98,140.0,-621.25,-376.25,1,95.0,
01/01/2000,01:24:57.13,19.40,-61.24,-992.10,201.25,-603.75,-472.50,1,95.023,
01/01/2000,01:24:57.14,19.52,-61.12,-991.98,166.25,-630.0,-376.25,1,95.045,
01/01/2000,01:24:57.15,19.64,-61.0,-992.10,122.50,-778.75,-350.0,1,95.067,
01/01/2000,01:24:57.16,19.76,-61.24,-992.10,192.50,-761.25,-315.0,1,95.089,
01/01/2000,01:24:57.17,19.52,-61.24,-992.10,253.75,-700.0,-393.75,1,95.111,
01/01/2000,01:24:57.18,19.28,-61.49,-991.86,166.25,-673.75,-306.25,1,95.133,
01/01/2000,01:24:57.19,19.28,-61.37,-991.86,140.0,-656.25,-315.0,1,95.154,
01/01/2000,01:24:57.20,19.28,-61.12,-991.86,271.25,-630.0,-385.0,1,95.175,
01/01/2000,01:24:57.21,19.52,-60.76,-991.86,183.75,-778.75,-253.75,1,95.197,
01/01/2000,01:24:57.22,19.52,-61.0,-991.86,96.25,-770.0,-376.25,1,95.217,
01/01/2000,01:24:57.23,19.28,-61.24,-991.98,140.0,-700.0,-323.75,1,95.238,
01/01/2000,01:24:57.24,19.03,-61.24,-991.98,175.0,-638.75,-393.75,1,95.259,
01/01/2000,01:24:57.25,19.28,-61.0,-991.86,26.25,-796.25,-341.25,1,94.872,
01/01/2000,01:24:57.26,19.52,-60.88,-991.86,78.75,-761.25,-306.25,1,94.894,
01/01/2000,01:24:57.27,19.52,-61.0,-991.86,183.75,-603.75,-280.0,1,94.915,
01/01/2000,01:24:57.28,19.15,-61.12,-991.98,105.0,-630.0,-428.75,1,94.937,
01/01/2000,01:24:57.29,19.15,-61.24,-992.35,166.25,-717.50,-341.25,1,94.958,
01/01/2000,01:24:57.30,19.28,-61.24,-992.47,87.50,-673.75,-420.0,1,94.979,
01/01/2000,01:24:57.32,19.40,-61.12,-992.23,140.0,-673.75,-218.75,1,95.0,
01/01/2000,01:24:57.33,19.28,-61.0,-991.86,183.75,-717.50,-253.75,1,95.021,
01/01/2000,01:24:57.34,19.15,-61.12,-991.98,210.0,-612.50,-315.0,1,95.041,
01/01/2000,01:24:57.35,19.03,-61.12,-992.23,210.0,-735.0,-385.0,1,95.062,
01/01/2000,01:24:57.36,19.03,-61.24,-992.59,183.75,-673.75,-428.75,1,95.082,
01/01/2000,01:24:57.37,19.28,-61.0,-992.59,-26.25,-682.50,-367.50,1,95.102,
01/01/2000,01:24:57.38,19.28,-60.88,-992.35,113.75,-638.75,-350.0,1,95.122,
01/01/2000,01:24:57.39,19.28,-61.0,-992.10,218.75,-708.75,-306.25,1,95.142,
01/01/2000,01:24:57.40,19.28,-61.12,-992.23,227.50,-735.0,-358.75,1,95.161,
01/01/2000,01:24:57.41,19.28,-61.12,-992.23,35.0,-682.50,-332.50,1,95.181,
01/01/2000,01:24:57.42,19.28,-61.0,-992.23,245.0,-787.50,-402.50,1,95.200,
01/01/2000,01:24:57.43,19.15,-60.88,-991.98,201.25,-778.75,-271.25,1,95.219,
01/01/2000,01:24:57.44,19.15,-60.76,-991.74,105.0,-726.25,-227.50,1,95.238,
01/01/2000,01:24:57.45,19.28,-61.0,-991.98,157.50,-813.75,-350.0,1,95.257,
01/01/2000,01:24:57.46,19.52,-61.24,-992.47,87.50,-691.25,-376.25,1,94.902,
01/01/2000,01:24:57.47,19.52,-61.37,-992.47,78.75,-743.75,-315.0,1,94.922,
01/01/2000,01:24:57.49,19.28,-61.12,-992.10,113.75,-656.25,-332.50,1,94.942,
01/01/2000,01:24:57.50,19.15,-61.0,-992.35,148.75,-787.50,-323.75,1,94.961,
01/01/2000,01:24:57.51,19.28,-60.88,-992.47,131.25,-700.0,-315.0,1,94.981,
01/01/2000,01:24:57.52,19.28,-61.0,-992.59,148.75,-717.50,-341.25,1,95.0,
01/01/2000,01:24:57.53,19.28,-61.12,-992.47,113.75,-717.50,-411.25,1,95.019,
01/01/2000,01:24:57.54,19.28,-61.24,-992.23,148.75,-603.75,-341.25,1,95.038,
01/01/2000,01:24:57.55,19.28,-61.37,-992.10,87.50,-708.75,-332.50,1,95.057,
01/01/2000,01:24:57.56,19.28,-61.24,-992.10,61.25,-691.25,-411.25,1,95.076,
01/01/2000,01:24:57.57,19.28,-61.24,-992.35,140.0,-630.0,-262.50,1,95.094,
01/01/2000,01:24:57.58,19.28,-61.24,-992.47,218.75,-691.25,-393.75,1,95.113,
01/01/2000,01:24:57.59,19.28,-61.37,-992.47,122.50,-717.50,-428.75,1,95.131,
01/01/2000,01:24:57.60,19.28,-61.24,-992.35,140.0,-665.0,-376.25,1,94.796,
01/01/2000,01:24:57.61,19.52,-61.37,-992.35,192.50,-656.25,-402.50,1,94.815,
01/01/2000,01:24:57.62,19.40,-61.37,-992.35,192.50,-708.75,-297.50,1,94.834,
01/01/2000,01:24:57.63,19.40,-61.37,-992.35,253.75,-726.25,-280.0,1,94.853,
01/01/2000,01:24:57.64,19.40,-61.37,-992.23,253.75,-682.50,-402.50,1,94.872,
01/01/2000,01:24:57.65,19.28,-61.24,-992.35,315.0,-770.0,-315.0,1,94.891,
01/01/2000,01:24:57.66,19.64,-61.24,-992.23,218.75,-665.0,-367.50,1,94.909,
01/01/2000,01:24:57.68,19.52,-61.37,-992.10,227.50,-682.50,-367.50,1,94.928,
01/01/2000,01:24:57.69,19.28,-61.24,-992.10,140.0,-700.0,-288.75,1,94.946,
01/01/2000,01:24:57.70,19.28,-61.24,-992.23,157.50,-726.25,-315.0,1,94.964,
01/01/2000,01:24:57.71,19.28,-61.24,-992.35,183.75,-708.75,-315.0,1,94.982,
01/01/2000,01:24:57.72,19.28,-61.0,-992.10,17.50,-717.50,-227.50,1,95.0,
01/01/2000,01:24:57.73,19.40,-61.12,-992.10,288.75,-603.75,-385.0,1,95.018,
01/01/2000,01:24:57.74,19.40,-61.37,-991.98,253.75,-621.25,-358.75,1,95.035,
01/01/2000,01:24:57.75,19.28,-61.24,-992.10,175.0,-840.0,-376.25,1,95.053,
01/01/2000,01:24:57.76,19.28,-61.24,-992.35,183.75,-630.0,-271.25,1,95.070,
01/01/2000,01:24:57.77,19.52,-61.0,-992.35,183.75,-638.75,-280.0,1,95.088,
01/01/2000,01:24:57.78,19.40,-61.24,-992.23,148.75,-682.50,-393.75,1,95.105,
01/01/2000,01:24:57.79,19.40,-61.24,-992.10,131.25,-691.25,-262.50,1,95.122,
01/01/2000,01:24:57.80,19.28,-61.49,-991.98,183.75,-603.75,-350.0,1,95.139,
01/01/2000,01:24:57.81,19.40,-61.49,-991.98,245.0,-691.25,-402.50,1,94.828,
01/01/2000,01:24:57.82,19.28,-61.37,-992.10,131.25,-560.0,-376.25,1,94.845,
01/01/2000,01:24:57.83,19.28,-61.24,-992.10,192.50,-630.0,-350.0,1,94.863,
01/01/2000,01:24:57.84,19.28,-61.24,-992.10,288.75,-717.50,-358.75,1,94.881,
01/01/2000,01:24:57.85,19.40,-61.0,-992.10,166.25,-787.50,-315.0,1,94.898,
01/01/2000,01:24:57.86,19.28,-61.24,-992.10,26.25,-665.0,-288.75,1,94.915,
01/01/2000,01:24:57.87,19.28,-61.37,-992.35,70.0,-691.25,-358.75,1,94.932,
01/01/2000,01:24:57.89,19.40,-61.24,-992.35,140.0,-691.25,-323.75,1,94.949,
01/01/2000,01:24:57.90,19.40,-61.0,-992.23,70.0,-700.0,-420.0,1,94.966,
01/01/2000,01:24:57.91,19.40,-60.88,-992.10,131.25,-743.75,-341.25,1,94.983,
01/01/2000,01:24:57.92,19.40,-60.88,-992.10,288.75,-665.0,-402.50,1,95.0,
01/01/2000,01:24:57.93,19.52,-61.0,-991.98,105.0,-603.75,-393.75,1,95.017,
01/01/2000,01:24:57.94,19.40,-61.24,-991.86,236.25,-630.0,-280.0,1,95.033,
01/01/2000,01:24:57.95,19.28,-61.24,-991.86,43.75,-700.0,-288.75,1,94.737,
01/01/2000,01:24:57.96,19.40,-61.0,-991.98,105.0,-638.75,-218.75,1,94.754,
01/01/2000,01:24:57.97,19.52,-61.0,-992.10,218.75,-743.75,-192.50,1,94.771,
01/01/2000,01:24:57.98,19.40,-61.12,-992.10,157.50,-621.25,-280.0,1,94.788,
01/01/2000,01:24:58.00,19.52,-61.37,-992.10,131.25,-612.50,-323.75,1,94.805,
01/01/2000,01:24:58.01,19.52,-61.37,-992.10,61.25,-708.75,-297.50,1,94.822,
01/01/2000,01:24:58.02,19.76,-61.24,-991.98,218.75,-647.50,-376.25,1,94.839,
01/01/2000,01:24:58.03,19.52,-61.12,-992.10,122.50,-726.25,-192.50,1,94.855,
01/01/2000,01:24:58.04,19.28,-61.24,-992.35,140.0,-595.0,-332.50,1,94.872,
01/01/2000,01:24:58.05,19.28,-61.24,-992.59,87.50,-673.75,-315.0,1,94.888,
01/01/2000,01:24:58.06,19.52,-61.0,-992.59,201.25,-647.50,-350.0,1,94.904,
01/01/2000,01:24:58.07,19.64,-60.88,-992.23,105.0,-682.50,-236.25,1,94.921,
01/01/2000,01:24:58.08,19.64,-61.0,-991.98,87.50,-717.50,-218.75,1,94.937,
01/01/2000,01:24:58.09,19.40,-61.49,-991.86,157.50,-673.75,-358.75,1,94.953,
01/01/2000,01:24:58.10,19.40,-61.24,-991.98,175.0,-752.50,-332.50,1,94.969,
01/01/2000,01:24:58.11,19.52,-61.12,-992.23,96.25,-796.25,-315.0,1,94.984,
01/01/2000,01:24:58.12,19.76,-60.88,-992.10,236.25,-682.50,-227.50,1,95.0,
01/01/2000,01:24:58.13,19.52,-61.0,-991.74,148.75,-708.75,-420.0,1,95.016,
01/01/2000,01:24:58.14,19.40,-61.24,-991.62,183.75,-761.25,-227.50,1,95.031,
01/01/2000,01:24:58.15,19.28,-61.37,-991.74,131.25,-700.0,-507.50,1,95.046,
01/01/2000,01:24:58.17,19.52,-61.37,-992.35,105.0,-691.25,-332.50,1,94.769,
01/01/2000,01:24:58.17,19.52,-61.0,-992.35,122.50,-726.25,-341.25,1,94.785,
01/01/2000,01:24:58.19,19.40,-61.0,-991.98,332.50,-665.0,-323.75,1,94.801,
01/01/2000,01:24:58.20,19.28,-61.12,-991.86,192.50,-708.75,-341.25,1,94.817,
01/01/2000,01:24:58.21,19.28,-61.37,-992.23,210.0,-778.75,-367.50,1,94.833,
01/01/2000,01:24:58.22,19.52,-61.37,-992.47,253.75,-682.50,-297.50,1,94.848,
01/01/2000,01:24:58.23,19.52,-61.49,-992.35,148.75,-770.0,-323.75,1,94.864,
01/01/2000,01:24:58.24,19.40,-61.24,-991.98,52.50,-682.50,-367.50,1,94.880,
01/01/2000,01:24:58.25,19.40,-61.24,-991.86,122.50,-708.75,-315.0,1,94.895,
01/01/2000,01:24:58.26,19.52,-61.12,-992.10,61.25,-770.0,-306.25,1,94.910,
01/01/2000,01:24:58.27,19.64,-61.24,-992.23,183.75,-656.25,-376.25,1,94.925,
01/01/2000,01:24:58.28,19.76,-61.24,-992.10,113.75,-726.25,-297.50,1,94.940,
01/01/2000,01:24:58.29,19.64,-61.24,-991.74,192.50,-665.0,-376.25,1,94.955,
01/01/2000,01:24:58.30,19.64,-61.12,-991.62,26.25,-743.75,-428.75,1,94.970,
01/01/2000,01:24:58.31,19.52,-61.24,-992.10,157.50,-673.75,-323.75,1,94.706,
01/01/2000,01:24:58.32,19.64,-61.0,-992.47,148.75,-735.0,-323.75,1,94.721,
01/01/2000,01:24:58.33,19.52,-61.12,-992.35,280.0,-656.25,-367.50,1,94.737,
01/01/2000,01:24:58.34,19.40,-61.0,-991.86,113.75,-682.50,-358.75,1,94.752,
01/01/2000,01:24:58.35,19.28,-61.12,-991.74,175.0,-717.50,-236.25,1,94.767,
01/01/2000,01:24:58.36,19.40,-61.0,-991.86,218.75,-656.25,-350.0,1,94.783,
01/01/2000,01:24:58.38,19.52,-61.0,-992.35,52.50,-770.0,-271.25,1,94.798,
01/01/2000,01:24:58.39,19.28,-61.0,-992.23,78.75,-612.50,-350.0,1,94.813,
01/01/2000,01:24:58.40,19.03,-61.0,-992.10,131.25,-700.0,-350.0,1,94.828,
01/01/2000,01:24:58.41,19.15,-61.0,-991.98,315.0,-778.75,-376.25,1,94.842,
01/01/2000,01:24:58.42,19.15,-61.0,-992.23,175.0,-665.0,-288.75,1,94.857,
01/01/2000,01:24:58.43,19.40,-61.24,-992.47,166.25,-691.25,-315.0,1,94.872,
01/01/2000,01:24:58.44,19.28,-61.37,-992.35,166.25,-831.25,-437.50,1,94.886,
01/01/2000,01:24:58.45,19.28,-61.24,-992.23,192.50,-691.25,-411.25,1,94.901,
01/01/2000,01:24:58.46,19.28,-61.0,-992.10,148.75,-665.0,-385.0,1,94.915,
01/01/2000,01:24:58.47,19.52,-61.0,-992.23,166.25,-673.75,-341.25,1,94.930,
01/01/2000,01:24:58.48,19.76,-61.0,-992.35,140.0,-726.25,-280.0,1,94.944,
01/01/2000,01:24:58.49,19.52,-61.24,-992.23,236.25,-647.50,-315.0,1,94.958,
01/01/2000,01:24:58.51,19.40,-61.12,-992.10,113.75,-612.50,-402.50,1,94.708,
01/01/2000,01:24:58.52,19.64,-60.88,-992.23,175.0,-551.25,-323.75,1,94.722,
01/01/2000,01:24:58.53,19.76,-60.76,-992.23,148.75,-682.50,-236.25,1,94.737,
01/01/2000,01:24:58.54,19.76,-60.88,-992.10,113.75,-665.0,-306.25,1,94.751,
01/01/2000,01:24:58.55,19.52,-61.12,-991.98,148.75,-743.75,-350.0,1,94.766,
01/01/2000,01:24:58.56,19.52,-61.12,-991.98,245.0,-735.0,-385.0,1,94.780,
01/01/2000,01:24:58.57,19.52,-61.0,-991.98,245.0,-595.0,-367.50,1,94.795,
01/01/2000,01:24:58.58,19.52,-60.76,-992.10,140.0,-735.0,-341.25,1,94.809,
01/01/2000,01:24:58.59,19.52,-60.76,-991.86,236.25,-840.0,-315.0,1,94.823,
01/01/2000,01:24:58.60,19.52,-60.88,-991.86,201.25,-778.75,-393.75,1,94.837,
01/01/2000,01:24:58.61,19.52,-61.0,-991.74,236.25,-726.25,-402.50,1,94.851,
01/01/2000,01:24:58.62,19.64,-61.12,-991.86,210.0,-735.0,-315.0,1,94.865,
01/01/2000,01:24:58.63,19.64,-61.24,-991.98,43.75,-770.0,-341.25,1,94.879,
01/01/2000,01:24:58.64,19.64,-61.0,-991.98,43.75,-682.50,-376.25,1,94.892,
01/01/2000,01:24:58.65,19.64,-61.12,-992.10,70.0,-691.25,-297.50,1,94.906,
01/01/2000,01:24:58.66,19.64,-61.0,-992.10,113.75,-717.50,-262.50,1,94.667,
01/01/2000,01:24:58.67,19.64,-61.0,-992.35,288.75,-752.50,-385.0,1,94.681,
01/01/2000,01:24:58.68,19.64,-61.12,-992.35,236.25,-656.25,-315.0,1,94.695,
01/01/2000,01:24:58.69,19.76,-61.0,-992.23,201.25,-717.50,-332.50,1,94.709,
01/01/2000,01:24:58.70,19.64,-61.12,-992.10,253.75,-700.0,-341.25,1,94.723,
01/01/2000,01:24:58.71,19.52,-61.12,-991.86,87.50,-673.75,-323.75,1,94.737,
01/01/2000,01:24:58.72,19.40,-61.24,-992.10,140.0,-708.75,-358.75,1,94.751,
01/01/2000,01:24:58.74,19.28,-61.37,-992.35,201.25,-612.50,-437.50,1,94.764,
01/01/2000,01:24:58.75,19.28,-61.24,-992.23,105.0,-700.0,-332.50,1,94.778,
01/01/2000,01:24:58.76,19.52,-61.24,-992.10,271.25,-647.50,-306.25,1,94.792,
01/01/2000,01:24:58.77,19.52,-61.37,-992.10,280.0,-691.25,-332.50,1,94.805,
01/01/2000,01:24:58.78,19.52,-61.49,-992.35,183.75,-647.50,-402.50,1,94.819,
01/01/2000,01:24:58.79,19.52,-61.37,-992.47,122.50,-700.0,-385.0,1,94.832,
01/01/2000,01:24:58.80,19.52,-61.24,-992.47,43.75,-673.75,-358.75,1,94.845,
01/01/2000,01:24:58.81,19.28,-61.24,-992.23,201.25,-805.0,-280.0,1,94.859,
01/01/2000,01:24:58.82,19.89,-60.88,-991.98,0.0,-603.75,-586.25,1,94.872,
01/01/2000,01:24:58.83,20.01,-61.49,-992.10,280.0,-805.0,-157.50,1,94.885,
01/01/2000,01:24:58.84,20.01,-61.0,-992.23,105.0,-752.50,-218.75,1,94.898,
01/01/2000,01:24:58.85,19.52,-61.24,-992.59,175.0,-673.75,-586.25,1,94.911,
01/01/2000,01:24:58.86,19.52,-61.24,-992.59,245.0,-665.0,-402.50,1,94.924,
01/01/2000,01:24:58.87,19.76,-60.76,-992.35,17.50,-778.75,-323.75,1,94.697,
01/01/2000,01:24:58.88,19.76,-61.0,-992.23,245.0,-700.0,-315.0,1,94.710,
01/01/2000,01:24:58.90,19.64,-61.12,-992.23,-26.25,-708.75,-306.25,1,94.724,
01/01/2000,01:24:58.91,19.40,-61.73,-992.47,113.75,-770.0,-455.0,1,94.737,
01/01/2000,01:24:58.92,19.52,-61.49,-992.71,166.25,-586.25,-420.0,1,94.750,
01/01/2000,01:24:58.93,19.76,-61.0,-992.71,96.25,-726.25,-393.75,1,94.763,
01/01/2000,01:24:58.94,19.76,-61.0,-992.35,227.50,-682.50,-253.75,1,94.776,
01/01/2000,01:24:58.95,19.52,-61.0,-991.98,96.25,-691.25,-262.50,1,94.789,
01/01/2000,01:24:58.96,19.40,-61.49,-992.23,271.25,-700.0,-455.0,1,94.802,
01/01/2000,01:24:58.97,19.64,-61.37,-992.59,113.75,-700.0,-350.0,1,94.815,
01/01/2000,01:24:58.98,19.76,-61.24,-992.71,78.75,-682.50,-437.50,1,94.828,
01/01/2000,01:24:58.99,19.64,-61.24,-992.35,105.0,-638.75,-288.75,1,94.840,
01/01/2000,01:24:59.00,19.64,-60.88,-992.10,122.50,-778.75,-446.25,1,94.853,
01/01/2000,01:24:59.02,19.76,-61.12,-992.23,157.50,-673.75,-437.50,1,94.634,
01/01/2000,01:24:59.03,19.76,-61.37,-992.59,113.75,-612.50,-420.0,1,94.647,
01/01/2000,01:24:59.04,19.64,-61.24,-992.35,218.75,-673.75,-323.75,1,94.660,
01/01/2000,01:24:59.05,19.64,-61.12,-991.98,210.0,-717.50,-341.25,1,94.673,
01/01/2000,01:24:59.06,19.52,-61.0,-991.86,0.0,-630.0,-323.75,1,94.686,
01/01/2000,01:24:59.07,19.52,-61.0,-991.86,175.0,-612.50,-315.0,1,94.699,
01/01/2000,01:24:59.08,19.64,-61.24,-992.35,166.25,-717.50,-385.0,1,94.712,
01/01/2000,01:24:59.09,19.52,-61.37,-992.47,218.75,-761.25,-402.50,1,94.724,
01/01/2000,01:24:59.10,19.40,-61.49,-992.23,175.0,-726.25,-437.50,1,94.737,
01/01/2000,01:24:59.11,19.40,-61.37,-991.86,78.75,-560.0,-332.50,1,94.749,
01/01/2000,01:24:59.12,19.52,-61.49,-991.98,245.0,-673.75,-297.50,1,94.762,
01/01/2000,01:24:59.13,19.52,-61.37,-992.35,175.0,-735.0,-297.50,1,94.774,
01/01/2000,01:24:59.14,19.40,-61.73,-992.59,183.75,-787.50,-358.75,1,94.787,
01/01/2000,01:24:59.15,19.40,-61.73,-992.23,122.50,-787.50,-315.0,1,94.799,
01/01/2000,01:24:59.16,19.52,-61.49,-992.10,201.25,-691.25,-323.75,1,94.811,
01/01/2000,01:24:59.17,19.40,-61.49,-992.10,227.50,-551.25,-332.50,1,94.824,
01/01/2000,01:24:59.18,19.28,-61.49,-992.10,175.0,-647.50,-306.25,1,94.836,
01/01/2000,01:24:59.19,19.40,-61.61,-992.47,201.25,-700.0,-297.50,1,94.848,
01/01/2000,01:24:59.20,19.28,-61.73,-992.35,140.0,-656.25,-218.75,1,94.639,
01/01/2000,01:24:59.21,19.15,-61.61,-992.23,61.25,-822.50,-420.0,1,94.872,
01/01/2000,01:24:59.22,19.28,-61.61,-992.10,201.25,-743.75,-358.75,1,94.664,
01/01/2000,01:24:59.24,19.40,-61.49,-992.35,227.50,-787.50,-315.0,1,94.676,
01/01/2000,01:24:59.25,19.40,-61.61,-992.59,218.75,-647.50,-323.75,1,94.688,
01/01/2000,01:24:59.26,19.03,-61.73,-992.47,218.75,-638.75,-385.0,1,94.700,
01/01/2000,01:24:59.27,19.15,-61.61,-992.47,192.50,-673.75,-376.25,1,94.713,
01/01/2000,01:24:59.28,19.28,-61.49,-992.47,113.75,-656.25,-315.0,1,94.725,
01/01/2000,01:24:59.29,19.40,-61.37,-992.59,201.25,-761.25,-280.0,1,94.737,
01/01/2000,01:24:59.30,19.40,-61.49,-992.84,148.75,-700.0,-437.50,1,94.749,
01/01/2000,01:24:59.31,19.15,-61.61,-992.84,52.50,-743.75,-402.50,1,94.761,
01/01/2000,01:24:59.32,19.28,-61.61,-992.84,122.50,-673.75,-463.75,1,94.773,
01/01/2000,01:24:59.33,19.40,-61.37,-992.84,192.50,-665.0,-262.50,1,94.785,
01/01/2000,01:24:59.34,19.52,-61.37,-992.96,140.0,-586.25,-297.50,1,94.796,
01/01/2000,01:24:59.35,19.52,-61.37,-992.84,175.0,-682.50,-183.75,1,94.808,
01/01/2000,01:24:59.36,19.28,-61.61,-992.84,183.75,-551.25,-271.25,1,94.820,
01/01/2000,01:24:59.37,19.28,-61.49,-992.84,113.75,-691.25,-402.50,1,94.619,
01/01/2000,01:24:59.38,19.52,-61.49,-992.84,271.25,-735.0,-428.75,1,94.631,
01/01/2000,01:24:59.39,19.52,-61.12,-992.71,157.50,-700.0,-323.75,1,94.643,
01/01/2000,01:24:59.40,19.52,-61.24,-992.59,227.50,-805.0,-323.75,1,94.655,
01/01/2000,01:24:59.41,19.28,-61.49,-992.47,35.0,-691.25,-367.50,1,94.667,
01/01/2000,01:24:59.42,19.40,-61.49,-992.59,183.75,-682.50,-428.75,1,94.678,
01/01/2000,01:24:59.44,19.52,-61.37,-992.84,166.25,-612.50,-332.50,1,94.690,
01/01/2000,01:24:59.45,19.64,-61.37,-992.59,218.75,-647.50,-315.0,1,94.702,
01/01/2000,01:24:59.46,19.40,-61.49,-992.59,87.50,-761.25,-367.50,1,94.714,
01/01/2000,01:24:59.47,19.28,-61.49,-992.71,148.75,-673.75,-350.0,1,94.725,
01/01/2000,01:24:59.48,19.52,-61.49,-992.71,166.25,-761.25,-463.75,1,94.737,
01/01/2000,01:24:59.49,19.76,-61.49,-992.84,105.0,-761.25,-271.25,1,94.748,
01/01/2000,01:24:59.50,19.76,-61.37,-992.84,140.0,-665.0,-297.50,1,94.760,
01/01/2000,01:24:59.51,19.52,-61.37,-992.35,218.75,-735.0,-393.75,1,94.771,
01/01/2000,01:24:59.53,19.52,-61.24,-992.71,87.50,-630.0,-323.75,1,94.577,
01/01/2000,01:24:59.54,19.64,-61.24,-993.08,105.0,-682.50,-385.0,1,94.589,
01/01/2000,01:24:59.55,19.52,-61.24,-993.08,140.0,-726.25,-332.50,1,94.600,
01/01/2000,01:24:59.56,19.28,-61.49,-992.71,157.50,-726.25,-367.50,1,94.612,
01/01/2000,01:24:59.57,19.15,-61.61,-992.71,61.25,-656.25,-332.50,1,94.624,
01/01/2000,01:24:59.58,19.40,-61.49,-992.84,140.0,-743.75,-315.0,1,94.635,
01/01/2000,01:24:59.59,19.52,-61.37,-992.96,157.50,-577.50,-376.25,1,94.647,
01/01/2000,01:24:59.60,19.28,-61.24,-992.84,35.0,-726.25,-253.75,1,94.658,
01/01/2000,01:24:59.61,19.15,-61.24,-992.47,201.25,-682.50,-367.50,1,94.670,
01/01/2000,01:24:59.62,19.15,-61.24,-992.47,157.50,-743.75,-411.25,1,94.681,
01/01/2000,01:24:59.63,19.52,-61.24,-992.71,210.0,-700.0,-350.0,1,94.692,
01/01/2000,01:24:59.64,19.52,-61.24,-992.84,166.25,-630.0,-376.25,1,94.703,
01/01/2000,01:24:59.65,19.40,-61.37,-992.71,166.25,-761.25,-323.75,1,94.515,
01/01/2000,01:24:59.66,19.28,-61.24,-992.35,218.75,-700.0,-446.25,1,94.526,
01/01/2000,01:24:59.67,19.40,-61.12,-992.35,192.50,-700.0,-271.25,1,94.538,
01/01/2000,01:24:59.68,19.52,-61.12,-992.59,245.0,-700.0,-350.0,1,94.549,
01/01/2000,01:24:59.69,19.76,-61.24,-992.59,148.75,-787.50,-262.50,1,94.561,
01/01/2000,01:24:59.70,19.76,-61.37,-992.59,87.50,-682.50,-271.25,1,94.572,
01/01/2000,01:24:59.71,19.28,-61.49,-992.35,236.25,-673.75,-350.0,1,94.583,
01/01/2000,01:24:59.72,19.28,-61.24,-992.35,175.0,-708.75,-332.50,1,94.595,
01/01/2000,01:24:59.73,19.40,-61.24,-992.47,201.25,-717.50,-358.75,1,94.606,
01/01/2000,01:24:59.74,19.40,-61.0,-992.47,113.75,-700.0,-271.25,1,94.617,
01/01/2000,01:24:59.75,19.28,-61.0,-992.59,-8.75,-717.50,-385.0,1,94.628,
01/01/2000,01:24:59.76,19.28,-61.24,-992.47,227.50,-717.50,-341.25,1,94.639,
01/01/2000,01:24:59.77,19.40,-61.24,-992.47,87.50,-778.75,-341.25,1,94.650,
01/01/2000,01:24:59.79,19.28,-61.12,-992.59,78.75,-700.0,-332.50,1,94.661,
01/01/2000,01:24:59.80,19.28,-61.0,-992.84,166.25,-735.0,-253.75,1,94.672,
01/01/2000,01:24:59.81,19.28,-61.0,-992.59,218.75,-761.25,-367.50,1,94.683,
01/01/2000,01:24:59.82,19.28,-61.24,-992.59,201.25,-717.50,-385.0,1,94.694,
01/01/2000,01:24:59.83,19.28,-61.24,-992.59,166.25,-656.25,-402.50,1,94.705,
01/01/2000,01:24:59.84,19.40,-61.24,-992.35,183.75,-770.0,-411.25,1,94.715,
01/01/2000,01:24:59.85,19.52,-61.37,-992.35,122.50,-612.50,-332.50,1,94.726,
01/01/2000,01:24:59.86,19.40,-61.37,-992.23,105.0,-770.0,-262.50,1,94.545,
01/01/2000,01:24:59.87,19.28,-61.49,-992.23,280.0,-726.25,-402.50,1,94.556,
01/01/2000,01:24:59.88,19.52,-61.49,-992.35,192.50,-665.0,-315.0,1,94.567,
01/01/2000,01:24:59.89,19.64,-61.49,-992.35,183.75,-752.50,-358.75,1,94.578,
01/01/2000,01:24:59.90,19.52,-61.37,-992.35,131.25,-647.50,-323.75,1,94.589,
01/01/2000,01:24:59.91,19.52,-61.49,-992.10,131.25,-682.50,-350.0,1,94.600,
01/01/2000,01:24:59.92,19.52,-61.37,-992.23,166.25,-647.50,-446.25,1,94.611,
01/01/2000,01:24:59.94,19.52,-61.24,-992.47,140.0,-647.50,-420.0,1,94.622,
01/01/2000,01:24:59.95,19.52,-61.24,-992.71,113.75,-726.25,-306.25,1,94.632,
01/01/2000,01:24:59.96,19.52,-61.24,-992.59,148.75,-551.25,-280.0,1,94.643,
01/01/2000,01:24:59.97,19.52,-61.24,-992.47,210.0,-638.75,-498.75,1,94.653,
01/01/2000,01:24:59.98,19.52,-61.37,-992.35,105.0,-673.75,-288.75,1,94.664,
01/01/2000,01:24:59.99,19.52,-61.37,-992.47,105.0,-770.0,-358.75,1,94.675,
01/01/2000,01:25:00.00,19.52,-61.24,-992.59,157.50,-577.50,-306.25,1,94.685,
01/01/2000,01:25:00.01,19.52,-61.37,-992.59,52.50,-708.75,-402.50,1,94.695,
01/01/2000,01:25:00.02,19.03,-61.37,-992.59,52.50,-735.0,35.0,1,94.706,
01/01/2000,01:25:00.03,20.01,-60.76,-992.59,-516.25,-735.0,-568.75,1,94.531,
01/01/2000,01:25:00.05,20.01,-61.24,-992.59,726.25,-691.25,-271.25,1,94.542,
01/01/2000,01:25:00.06,19.40,-61.24,-992.47,-192.50,-787.50,-183.75,1,94.553,
01/01/2000,01:25:00.07,19.03,-61.37,-992.47,-87.50,-638.75,-630.0,1,94.563,
01/01/2000,01:25:00.08,19.28,-61.73,-992.59,568.75,-630.0,-385.0,1,94.574,
01/01/2000,01:25:00.09,19.76,-60.76,-992.84,8.75,-717.50,-411.25,1,94.584,
01/01/2000,01:25:00.10,19.52,-61.49,-992.84,350.0,-708.75,-218.75,1,94.595,
01/01/2000,01:25:00.11,20.01,-60.76,-992.35,-8.75,-630.0,-332.50,1,94.605,
01/01/2000,01:25:00.12,19.40,-61.49,-992.35,315.0,-735.0,-253.75,1,94.615,
01/01/2000,01:25:00.13,19.40,-61.37,-992.59,-78.75,-743.75,-577.50,1,94.626,
01/01/2000,01:25:00.14,19.40,-61.49,-992.84,376.25,-778.75,-481.25,1,94.636,
01/01/2000,01:25:00.15,19.76,-61.24,-992.84,140.0,-525.0,-210.0,1,94.646,
01/01/2000,01:25:00.16,19.64,-61.0,-992.35,210.0,-761.25,-350.0,1,94.656,
01/01/2000,01:25:00.17,19.52,-61.37,-992.23,306.25,-822.50,-306.25,1,94.667,
01/01/2000,01:25:00.18,19.52,-61.24,-992.35,43.75,-682.50,-323.75,1,94.677,
01/01/2000,01:25:00.19,19.52,-61.24,-992.84,227.50,-700.0,-297.50,1,94.687,
01/01/2000,01:25:00.20,19.52,-61.24,-992.84,113.75,-778.75,-341.25,1,94.697,
01/01/2000,01:25:00.21,19.52,-61.0,-992.71,78.75,-770.0,-437.50,1,94.707,
01/01/2000,01:25:00.22,19.52,-61.12,-992.35,271.25,-630.0,-332.50,1,94.539,
01/01/2000,01:25:00.23,19.76,-61.24,-992.35,35.0,-682.50,-315.0,1,94.549,
01/01/2000,01:25:00.24,19.76,-61.49,-992.59,183.75,-630.0,-420.0,1,94.559,
01/01/2000,01:25:00.25,19.89,-61.49,-992.71,297.50,-691.25,-175.0,1,94.569,
01/01/2000,01:25:00.26,19.76,-61.37,-992.59,175.0,-735.0,-393.75,1,94.579,
01/01/2000,01:25:00.27,19.64,-61.24,-992.47,140.0,-717.50,-253.75,1,94.590,
01/01/2000,01:25:00.29,19.52,-61.24,-992.35,245.0,-717.50,-297.50,1,94.600,
01/01/2000,01:25:00.30,19.52,-61.24,-992.47,78.75,-717.50,-218.75,1,94.610,
01/01/2000,01:25:00.31,19.52,-61.37,-992.59,140.0,-665.0,-332.50,1,94.620,
01/01/2000,01:25:00.32,19.40,-61.37,-992.35,78.75,-682.50,-350.0,1,94.630,
01/01/2000,01:25:00.33,19.52,-61.24,-992.23,166.25,-673.75,-227.50,1,94.640,
01/01/2000,01:25:00.34,19.52,-61.24,-992.23,201.25,-787.50,-306.25,1,94.649,
01/01/2000,01:25:00.35,19.64,-61.0,-992.59,148.75,-638.75,-201.25,1,94.659,
01/01/2000,01:25:00.36,19.76,-61.12,-992.84,157.50,-691.25,-280.0,1,94.669,
01/01/2000,01:25:00.37,19.76,-61.24,-992.47,297.50,-717.50,-446.25,1,94.679,
01/01/2000,01:25:00.38,19.52,-61.37,-992.35,175.0,-691.25,-315.0,1,94.689,
01/01/2000,01:25:00.39,19.64,-61.24,-992.47,122.50,-735.0,-376.25,1,94.698,
01/01/2000,01:25:00.40,19.52,-61.24,-992.59,131.25,-682.50,-341.25,1,94.708,
01/01/2000,01:25:00.41,19.64,-61.0,-992.71,148.75,-726.25,-271.25,1,94.718,
01/01/2000,01:25:00.42,19.40,-61.12,-992.59,201.25,-647.50,-385.0,1,94.727,
01/01/2000,01:25:00.43,19.52,-61.24,-992.35,280.0,-787.50,-393.75,1,94.565,
01/01/2000,01:25:00.44,19.52,-61.24,-992.35,218.75,-752.50,-271.25,1,94.575,
01/01/2000,01:25:00.45,19.52,-61.61,-992.47,201.25,-638.75,-288.75,1,94.585,
01/01/2000,01:25:00.46,19.52,-61.61,-992.59,166.25,-708.75,-402.50,1,94.595,
01/01/2000,01:25:00.47,19.28,-61.49,-992.59,253.75,-752.50,-367.50,1,94.604,
01/01/2000,01:25:00.48,19.28,-61.24,-992.35,61.25,-577.50,-455.0,1,94.614,
01/01/2000,01:25:00.50,19.64,-61.37,-992.35,201.25,-673.75,-437.50,1,94.624,
01/01/2000,01:25:00.51,19.52,-61.49,-992.47,131.25,-770.0,-262.50,1,94.633,
01/01/2000,01:25:00.52,19.64,-61.49,-992.35,271.25,-638.75,-411.25,1,94.643,
01/01/2000,01:25:00.53,19.40,-61.73,-992.35,210.0,-778.75,-455.0,1,94.652,
01/01/2000,01:25:00.54,19.40,-61.24,-992.23,201.25,-682.50,-210.0,1,94.494,
01/01/2000,01:25:00.55,19.52,-61.12,-992.35,227.50,-805.0,-367.50,1,94.504,
01/01/2000,01:25:00.56,19.28,-61.37,-992.23,227.50,-621.25,-227.50,1,94.513,
01/01/2000,01:25:00.57,19.28,-61.49,-992.23,148.75,-761.25,-341.25,1,94.523,
01/01/2000,01:25:00.58,19.28,-61.61,-992.35,218.75,-638.75,-288.75,1,94.533,
01/01/2000,01:25:00.59,19.52,-61.37,-992.47,52.50,-735.0,-350.0,1,94.542,
01/01/2000,01:25:00.60,19.52,-61.24,-992.59,210.0,-708.75,-315.0,1,94.552,
01/01/2000,01:25:00.62,19.52,-61.0,-992.59,175.0,-673.75,-297.50,1,94.561,
01/01/2000,01:25:00.62,19.28,-61.24,-992.71,148.75,-568.75,-271.25,1,94.571,
01/01/2000,01:25:00.64,19.28,-61.24,-992.71,140.0,-673.75,-402.50,1,94.580,
01/01/2000,01:25:00.65,19.40,-61.37,-992.71,183.75,-638.75,-280.0,1,94.590,
01/01/2000,01:25:00.66,19.64,-61.49,-992.59,201.25,-743.75,-402.50,1,94.599,
01/01/2000,01:25:00.67,19.64,-61.49,-992.47,140.0,-656.25,-332.50,1,94.609,
01/01/2000,01:25:00.68,19.64,-61.61,-992.47,183.75,-708.75,-402.50,1,94.618,
01/01/2000,01:25:00.69,19.40,-61.73,-992.47,175.0,-700.0,-376.25,1,94.627,
01/01/2000,01:25:00.70,19.40,-61.37,-992.59,70.0,-735.0,-428.75,1,94.637,
01/01/2000,01:25:00.71,19.52,-61.49,-992.59,175.0,-682.50,-498.75,1,94.646,
01/01/2000,01:25:00.72,19.64,-61.49,-992.47,87.50,-717.50,-183.75,1,94.655,
01/01/2000,01:25:00.73,19.52,-61.73,-992.23,78.75,-603.75,-402.50,1,94.664,
01/01/2000,01:25:00.74,19.52,-61.98,-992.59,166.25,-673.75,-332.50,1,94.674,
01/01/2000,01:25:00.75,19.40,-61.61,-992.59,131.25,-673.75,-428.75,1,94.683,
01/01/2000,01:25:00.76,19.52,-61.49,-992.59,288.75,-638.75,-297.50,1,94.692,
01/01/2000,01:25:00.77,19.52,-61.24,-992.59,148.75,-708.75,-332.50,1,94.701,
01/01/2000,01:25:00.78,19.40,-61.49,-992.47,87.50,-691.25,-455.0,1,94.549,
01/01/2000,01:25:00.79,19.28,-61.49,-992.59,131.25,-743.75,-350.0,1,94.558,
01/01/2000,01:25:00.80,19.40,-61.61,-992.71,87.50,-638.75,-358.75,1,94.567,
01/01/2000,01:25:00.81,19.52,-61.61,-992.84,78.75,-813.75,-393.75,1,94.576,
01/01/2000,01:25:00.82,19.40,-61.49,-992.47,96.25,-735.0,-306.25,1,94.585,
01/01/2000,01:25:00.83,19.28,-61.37,-992.35,148.75,-717.50,-332.50,1,94.595,
01/01/2000,01:25:00.84,19.40,-61.49,-992.59,148.75,-647.50,-341.25,1,94.604,
01/01/2000,01:25:00.86,19.52,-61.37,-992.71,96.25,-656.25,-358.75,1,94.613,
01/01/2000,01:25:00.87,19.40,-61.49,-992.59,78.75,-726.25,-358.75,1,94.622,
01/01/2000,01:25:00.88,19.28,-61.49,-992.59,52.50,-752.50,-253.75,1,94.631,
01/01/2000,01:25:00.89,19.15,-61.37,-992.59,183.75,-665.0,-358.75,1,94.640,
01/01/2000,01:25:00.90,19.40,-61.24,-992.59,192.50,-665.0,-253.75,1,94.649,
01/01/2000,01:25:00.91,19.52,-61.24,-992.71,148.75,-647.50,-297.50,1,94.658,
01/01/2000,01:25:00.92,19.40,-61.49,-992.84,105.0,-682.50,-245.0,1,94.509,
01/01/2000,01:25:00.93,19.28,-61.49,-992.59,201.25,-647.50,-341.25,1,94.518,
01/01/2000,01:25:00.94,19.28,-61.49,-992.47,271.25,-822.50,-315.0,1,94.527,
01/01/2000,01:25:00.95,19.28,-61.37,-992.59,175.0,-805.0,-341.25,1,94.536,
01/01/2000,01:25:00.96,19.28,-61.49,-992.47,122.50,-700.0,-280.0,1,94.545,
01/01/2000,01:25:00.97,19.15,-61.49,-992.47,227.50,-717.50,-385.0,1,94.554,
01/01/2000,01:25:00.98,19.15,-61.49,-992.35,131.25,-638.75,-315.0,1,94.563,
01/01/2000,01:25:01.00,19.28,-61.24,-992.23,166.25,-673.75,-306.25,1,94.572,
01/01/2000,01:25:01.01,19.40,-61.24,-992.35,87.50,-708.75,-236.25,1,94.581,
01/01/2000,01:25:01.02,19.28,-61.24,-992.35,201.25,-796.25,-323.75,1,94.590,
01/01/2000,01:25:01.03,19.28,-61.49,-992.35,201.25,-682.50,-376.25,1,94.599,
01/01/2000,01:25:01.04,19.28,-61.49,-992.47,140.0,-778.75,-350.0,1,94.608,
01/01/2000,01:25:01.05,19.52,-61.49,-992.59,70.0,-656.25,-341.25,1,94.617,
01/01/2000,01:25:01.06,19.52,-61.49,-992.59,140.0,-726.25,-376.25,1,94.472,
01/01/2000,01:25:01.07,19.28,-61.73,-992.47,245.0,-796.25,-288.75,1,94.481,
01/01/2000,01:25:01.08,19.28,-61.73,-992.47,-17.50,-673.75,-341.25,1,94.489,
01/01/2000,01:25:01.09,19.28,-61.73,-992.47,236.25,-840.0,-402.50,1,94.498,
01/01/2000,01:25:01.10,19.28,-61.49,-992.59,175.0,-691.25,-358.75,1,94.507,
01/01/2000,01:25:01.11,19.28,-61.49,-992.59,201.25,-595.0,-253.75,1,94.516,
01/01/2000,01:25:01.12,19.28,-61.49,-992.47,122.50,-673.75,-420.0,1,94.525,
01/01/2000,01:25:01.13,19.15,-61.61,-992.59,166.25,-735.0,-288.75,1,94.534,
01/01/2000,01:25:01.15,19.40,-61.61,-992.84,183.75,-761.25,-393.75,1,94.543,
01/01/2000,01:25:01.15,19.52,-61.49,-992.71,262.50,-796.25,-350.0,1,94.551,
01/01/2000,01:25:01.17,19.52,-61.49,-992.59,245.0,-726.25,-306.25,1,94.560,
01/01/2000,01:25:01.18,19.40,-61.49,-992.59,271.25,-761.25,-306.25,1,94.569,
01/01/2000,01:25:01.19,19.52,-61.49,-992.71,105.0,-735.0,-358.75,1,94.577,
01/01/2000,01:25:01.20,19.52,-61.61,-992.71,105.0,-717.50,-358.75,1,94.586,
01/01/2000,01:25:01.21,19.52,-61.73,-992.84,52.50,-708.75,-428.75,1,94.595,
01/01/2000,01:25:01.22,19.52,-61.61,-992.59,271.25,-700.0,-341.25,1,94.603,
01/01/2000,01:25:01.23,19.52,-61.49,-992.47,157.50,-577.50,-323.75,1,94.612,
01/01/2000,01:25:01.24,19.40,-61.49,-992.59,262.50,-735.0,-428.75,1,94.620,
01/01/2000,01:25:01.25,19.52,-61.37,-992.59,166.25,-708.75,-315.0,1,94.629,
01/01/2000,01:25:01.26,19.76,-61.37,-992.59,183.75,-735.0,-236.25,1,94.637,
01/01/2000,01:25:01.27,19.64,-61.49,-992.47,166.25,-726.25,-288.75,1,94.497,
01/01/2000,01:25:01.28,19.64,-61.37,-992.23,210.0,-638.75,-323.75,1,94.505,
01/01/2000,01:25:01.29,19.64,-61.37,-992.35,175.0,-656.25,-341.25,1,94.514,
01/01/2000,01:25:01.30,19.52,-61.24,-992.47,96.25,-761.25,-385.0,1,94.523,
01/01/2000,01:25:01.31,19.40,-61.24,-992.71,192.50,-717.50,-306.25,1,94.531,
01/01/2000,01:25:01.32,19.40,-61.24,-992.59,175.0,-691.25,-306.25,1,94.540,
01/01/2000,01:25:01.33,19.40,-61.37,-992.35,183.75,-647.50,-332.50,1,94.548,
01/01/2000,01:25:01.35,19.40,-61.24,-992.35,157.50,-621.25,-315.0,1,94.557,
01/01/2000,01:25:01.36,19.40,-61.24,-992.47,236.25,-752.50,-341.25,1,94.565,
01/01/2000,01:25:01.37,19.40,-61.24,-992.59,201.25,-726.25,-297.50,1,94.574,
01/01/2000,01:25:01.38,19.28,-61.24,-992.47,122.50,-708.75,-271.25,1,94.582,
01/01/2000,01:25:01.39,19.15,-61.49,-992.47,262.50,-735.0,-463.75,1,94.590,
01/01/2000,01:25:01.40,19.28,-61.37,-992.47,236.25,-708.75,-341.25,1,94.599,
01/01/2000,01:25:01.41,19.28,-61.37,-992.35,122.50,-708.75,-236.25,1,94.607,
01/01/2000,01:25:01.42,19.28,-61.37,-992.23,131.25,-735.0,-350.0,1,94.615,
01/01/2000,01:25:01.43,19.15,-61.49,-992.35,262.50,-612.50,-437.50,1,94.624,
01/01/2000,01:25:01.44,19.28,-61.49,-992.35,192.50,-700.0,-358.75,1,94.632,
01/01/2000,01:25:01.45,19.40,-61.24,-992.47,183.75,-638.75,-323.75,1,94.640,
01/01/2000,01:25:01.46,19.40,-61.24,-992.59,297.50,-778.75,-306.25,1,94.648,
01/01/2000,01:25:01.47,19.40,-61.24,-992.59,201.25,-603.75,-341.25,1,94.656,
01/01/2000,01:25:01.48,19.28,-61.49,-992.71,175.0,-770.0,-446.25,1,94.521,
01/01/2000,01:25:01.50,19.40,-61.49,-992.84,183.75,-673.75,-306.25,1,94.529,
01/01/2000,01:25:01.50,19.52,-61.24,-992.71,166.25,-612.50,-323.75,1,94.537,
01/01/2000,01:25:01.52,19.28,-61.37,-992.71,157.50,-761.25,-350.0,1,94.545,
01/01/2000,01:25:01.53,19.15,-61.49,-992.59,131.25,-787.50,-323.75,1,94.554,
01/01/2000,01:25:01.54,19.03,-61.49,-992.47,227.50,-673.75,-411.25,1,94.562,
01/01/2000,01:25:01.55,19.40,-61.37,-992.71,96.25,-638.75,-332.50,1,94.570,
01/01/2000,01:25:01.56,19.40,-61.24,-992.59,175.0,-647.50,-210.0,1,94.436,
01/01/2000,01:25:01.57,19.40,-61.49,-992.59,78.75,-682.50,-236.25,1,94.444,
01/01/2000,01:25:01.58,19.52,-61.49,-992.71,-35.0,-665.0,-350.0,1,94.453,
01/01/2000,01:25:01.59,19.52,-61.49,-992.96,70.0,-638.75,-385.0,1,94.461,
01/01/2000,01:25:01.60,19.64,-61.37,-993.08,175.0,-778.75,-323.75,1,94.469,
01/01/2000,01:25:01.61,19.52,-61.37,-992.71,113.75,-656.25,-315.0,1,94.478,
01/01/2000,01:25:01.62,19.52,-61.37,-992.59,166.25,-647.50,-253.75,1,94.486,
01/01/2000,01:25:01.64,19.52,-61.49,-992.59,218.75,-761.25,-341.25,1,94.494,
01/01/2000,01:25:01.65,19.40,-61.49,-992.59,140.0,-752.50,-218.75,1,94.502,
01/01/2000,01:25:01.66,19.52,-61.49,-992.59,236.25,-603.75,-350.0,1,94.510,
01/01/2000,01:25:01.67,19.52,-61.37,-992.59,140.0,-603.75,-350.0,1,94.519,
01/01/2000,01:25:01.68,19.52,-61.24,-992.47,201.25,-726.25,-288.75,1,94.527,
01/01/2000,01:25:01.69,19.52,-61.37,-992.47,183.75,-595.0,-358.75,1,94.535,
01/01/2000,01:25:01.70,19.52,-61.24,-992.59,78.75,-743.75,-262.50,1,94.543,
01/01/2000,01:25:01.71,19.52,-61.49,-992.59,87.50,-717.50,-385.0,1,94.551,
01/01/2000,01:25:01.72,19.40,-61.49,-992.59,262.50,-743.75,-358.75,1,94.559,
01/01/2000,01:25:01.73,19.52,-61.12,-992.59,105.0,-840.0,-385.0,1,94.567,
01/01/2000,01:25:01.74,19.40,-61.24,-992.47,131.25,-752.50,-306.25,1,94.575,
01/01/2000,01:25:01.75,19.40,-61.24,-992.59,245.0,-665.0,-280.0,1,94.583,
01/01/2000,01:25:01.76,19.52,-61.49,-992.59,148.75,-630.0,-367.50,1,94.591,
01/01/2000,01:25:01.77,19.40,-61.61,-992.71,166.25,-656.25,-385.0,1,94.599,
01/01/2000,01:25:01.78,19.52,-61.49,-992.47,17.50,-647.50,-297.50,1,94.606,
01/01/2000,01:25:01.79,19.40,-61.61,-992.35,210.0,-682.50,-350.0,1,94.614,
01/01/2000,01:25:01.80,19.28,-61.37,-992.35,113.75,-682.50,-280.0,1,94.622,
01/01/2000,01:25:01.81,19.52,-61.49,-992.47,236.25,-700.0,-446.25,1,94.630,
01/01/2000,01:25:01.82,19.52,-61.49,-992.59,175.0,-708.75,-323.75,1,94.638,
01/01/2000,01:25:01.83,19.64,-61.49,-992.71,43.75,-726.25,-376.25,1,94.509,
01/01/2000,01:25:01.84,19.52,-61.61,-992.59,175.0,-717.50,-358.75,1,94.517,
01/01/2000,01:25:01.85,19.76,-61.49,-992.59,253.75,-822.50,-288.75,1,94.524,
01/01/2000,01:25:01.86,19.64,-61.24,-992.59,113.75,-726.25,-358.75,1,94.532,
01/01/2000,01:25:01.87,19.64,-61.24,-992.71,192.50,-743.75,-315.0,1,94.540,
01/01/2000,01:25:01.88,19.52,-61.49,-992.71,140.0,-735.0,-350.0,1,94.548,
01/01/2000,01:25:01.89,19.52,-61.49,-992.59,140.0,-778.75,-332.50,1,94.556,
01/01/2000,01:25:01.91,19.64,-61.37,-992.59,175.0,-726.25,-385.0,1,94.564,
01/01/2000,01:25:01.92,19.52,-61.24,-992.59,262.50,-726.25,-315.0,1,94.571,
01/01/2000,01:25:01.93,19.52,-61.24,-992.59,96.25,-778.75,-376.25,1,94.579,
01/01/2000,01:25:01.94,19.52,-61.24,-992.59,201.25,-796.25,-323.75,1,94.587,
01/01/2000,01:25:01.95,19.52,-61.24,-992.47,148.75,-682.50,-332.50,1,94.595,
01/01/2000,01:25:01.96,19.52,-61.12,-992.47,61.25,-761.25,-306.25,1,94.602,
01/01/2000,01:25:01.97,19.64,-61.24,-992.47,245.0,-875.0,-315.0,1,94.610,
01/01/2000,01:25:01.98,19.64,-61.12,-992.59,201.25,-665.0,-271.25,1,94.618,
01/01/2000,01:25:01.99,19.64,-61.24,-992.47,35.0,-726.25,-262.50,1,94.625,
01/01/2000,01:25:02.00,19.64,-61.12,-992.47,192.50,-673.75,-271.25,1,94.633,
01/01/2000,01:25:02.01,19.52,-61.0,-992.59,271.25,-752.50,-393.75,1,94.640,
01/01/2000,01:25:02.02,19.52,-61.0,-992.59,87.50,-673.75,-227.50,1,94.648,
01/01/2000,01:25:02.03,19.64,-61.12,-992.71,210.0,-656.25,-446.25,1,94.655,
01/01/2000,01:25:02.04,19.76,-61.49,-992.59,96.25,-708.75,-341.25,1,94.530,
01/01/2000,01:25:02.05,19.64,-61.49,-992.59,236.25,-735.0,-315.0,1,94.538,
01/01/2000,01:25:02.06,19.64,-61.37,-992.59,262.50,-691.25,-472.50,1,94.545,
01/01/2000,01:25:02.08,19.76,-61.24,-992.59,175.0,-735.0,-367.50,1,94.553,
01/01/2000,01:25:02.09,19.89,-61.24,-992.35,52.50,-647.50,-323.75,1,94.561,
01/01/2000,01:25:02.10,19.76,-61.24,-992.23,166.25,-603.75,-367.50,1,94.568,
01/01/2000,01:25:02.11,19.52,-61.24,-992.23,306.25,-735.0,-367.50,1,94.576,
01/01/2000,01:25:02.12,19.64,-61.24,-992.35,245.0,-743.75,-332.50,1,94.583,
01/01/2000,01:25:02.13,19.52,-61.24,-992.59,131.25,-717.50,-271.25,1,94.591,
01/01/2000,01:25:02.14,19.64,-61.24,-992.59,70.0,-673.75,-271.25,1,94.598,
01/01/2000,01:25:02.15,19.52,-61.24,-992.47,17.50,-673.75,-297.50,1,94.606,
01/01/2000,01:25:02.16,19.40,-61.24,-992.35,201.25,-735.0,-367.50,1,94.483,
01/01/2000,01:25:02.17,19.52,-61.37,-992.35,175.0,-612.50,-332.50,1,94.621,
01/01/2000,01:25:02.18,19.52,-61.49,-992.35,218.75,-735.0,-332.50,1,94.498,
01/01/2000,01:25:02.19,19.40,-61.37,-992.47,175.0,-752.50,-385.0,1,94.505,
01/01/2000,01:25:02.20,19.28,-61.49,-992.35,271.25,-691.25,-358.75,1,94.513,
01/01/2000,01:25:02.21,19.40,-61.37,-992.47,280.0,-682.50,-332.50,1,94.521,
01/01/2000,01:25:02.22,19.40,-61.37,-992.35,131.25,-673.75,-367.50,1,94.528,
01/01/2000,01:25:02.23,19.28,-61.37,-992.35,227.50,-656.25,-341.25,1,94.536,
01/01/2000,01:25:02.24,19.28,-61.49,-992.35,175.0,-700.0,-358.75,1,94.543,
01/01/2000,01:25:02.26,19.40,-61.37,-992.35,140.0,-700.0,-306.25,1,94.550,
01/01/2000,01:25:02.27,19.52,-61.37,-992.35,140.0,-848.75,-323.75,1,94.558,
01/01/2000,01:25:02.28,19.52,-61.24,-992.47,236.25,-708.75,-358.75,1,94.565,
01/01/2000,01:25:02.29,19.40,-61.37,-992.47,192.50,-770.0,-367.50,1,94.573,
01/01/2000,01:25:02.30,19.28,-61.37,-992.59,87.50,-700.0,-358.75,1,94.580,
01/01/2000,01:25:02.31,19.40,-61.37,-992.84,78.75,-735.0,-376.25,1,94.587,
01/01/2000,01:25:02.32,19.52,-61.24,-992.71,148.75,-551.25,-358.75,1,94.595,
01/01/2000,01:25:02.33,19.28,-61.12,-992.59,113.75,-673.75,-323.75,1,94.602,
01/01/2000,01:25:02.34,19.40,-61.12,-992.35,262.50,-656.25,-350.0,1,94.609,
01/01/2000,01:25:02.35,18.67,-61.49,-992.47,210.0,-778.75,-595.0,1,94.616,
01/01/2000,01:25:02.36,20.13,-60.51,-992.35,-551.25,-726.25,-472.50,1,94.624,
01/01/2000,01:25:02.37,20.01,-61.12,-992.35,507.50,-752.50,-105.0,1,94.631,
01/01/2000,01:25:02.38,19.40,-61.24,-992.47,-227.50,-638.75,-245.0,1,94.638,
01/01/2000,01:25:02.39,19.28,-61.0,-992.59,183.75,-840.0,-376.25,1,94.645,
01/01/2000,01:25:02.41,19.52,-61.24,-992.96,420.0,-743.75,-236.25,1,94.526,
01/01/2000,01:25:02.42,19.76,-60.51,-992.71,26.25,-656.25,-157.50,1,94.533,
01/01/2000,01:25:02.43,19.28,-60.88,-992.35,271.25,-603.75,-332.50,1,94.541,
01/01/2000,01:25:02.44,19.52,-61.0,-992.35,70.0,-691.25,-455.0,1,94.548,
01/01/2000,01:25:02.45,19.40,-61.12,-992.47,183.75,-735.0,-306.25,1,94.555,
01/01/2000,01:25:02.46,19.64,-61.12,-992.59,17.50,-700.0,-306.25,1,94.562,
01/01/2000,01:25:02.47,19.76,-61.12,-992.59,131.25,-568.75,-446.25,1,94.570,
01/01/2000,01:25:02.48,19.52,-61.37,-992.35,358.75,-638.75,-245.0,1,94.577,
01/01/2000,01:25:02.49,19.40,-61.12,-992.35,-8.75,-621.25,-481.25,1,94.584,
01/01/2000,01:25:02.50,19.64,-61.24,-992.35,411.25,-726.25,-358.75,1,94.591,
01/01/2000,01:25:02.51,19.76,-61.24,-992.59,87.50,-778.75,-306.25,1,94.598,
01/01/2000,01:25:02.52,19.64,-61.24,-992.71,271.25,-673.75,-297.50,1,94.605,
01/01/2000,01:25:02.53,19.52,-61.37,-992.35,166.25,-743.75,-350.0,1,94.612,
01/01/2000,01:25:02.54,19.52,-61.0,-992.23,96.25,-630.0,-192.50,1,94.495,
01/01/2000,01:25:02.55,19.52,-61.12,-992.35,227.50,-647.50,-402.50,1,94.503,
01/01/2000,01:25:02.56,19.40,-61.49,-992.59,218.75,-638.75,-271.25,1,94.510,
01/01/2000,01:25:02.57,19.52,-61.24,-992.71,175.0,-673.75,-463.75,1,94.517,
01/01/2000,01:25:02.59,19.40,-61.37,-992.59,315.0,-665.0,-428.75,1,94.524,
01/01/2000,01:25:02.60,19.40,-61.24,-992.59,218.75,-682.50,-306.25,1,94.531,
01/01/2000,01:25:02.61,19.52,-61.24,-992.47,131.25,-682.50,-420.0,1,94.538,
01/01/2000,01:25:02.62,19.76,-61.24,-992.35,105.0,-805.0,-280.0,1,94.545,
01/01/2000,01:25:02.63,19.64,-61.24,-992.47,183.75,-647.50,-420.0,1,94.553,
01/01/2000,01:25:02.64,19.52,-61.37,-992.47,61.25,-700.0,-376.25,1,94.560,
01/01/2000,01:25:02.65,19.52,-61.24,-992.47,148.75,-743.75,-315.0,1,94.567,
01/01/2000,01:25:02.66,19.64,-61.24,-992.59,166.25,-805.0,-402.50,1,94.574,
01/01/2000,01:25:02.67,19.76,-61.24,-992.59,113.75,-726.25,-306.25,1,94.581,
01/01/2000,01:25:02.68,19.64,-61.37,-992.47,245.0,-735.0,-428.75,1,94.588,
01/01/2000,01:25:02.69,19.52,-61.24,-992.47,96.25,-717.50,-402.50,1,94.595,
01/01/2000,01:25:02.70,19.76,-61.24,-992.35,78.75,-726.25,-315.0,1,94.602,
01/01/2000,01:25:02.71,19.89,-61.37,-992.47,218.75,-682.50,-385.0,1,94.608,
01/01/2000,01:25:02.72,19.89,-61.24,-992.47,201.25,-647.50,-420.0,1,94.615,
01/01/2000,01:25:02.73,20.01,-61.37,-992.35,271.25,-717.50,-315.0,1,94.622,
01/01/2000,01:25:02.74,19.76,-61.24,-992.35,52.50,-761.25,-385.0,1,94.629,
01/01/2000,01:25:02.75,19.64,-61.37,-992.59,201.25,-612.50,-472.50,1,94.515,
01/01/2000,01:25:02.76,19.76,-61.24,-992.59,105.0,-682.50,-350.0,1,94.522,
01/01/2000,01:25:02.77,19.89,-61.24,-992.59,183.75,-665.0,-350.0,1,94.529,
01/01/2000,01:25:02.78,19.89,-61.24,-992.35,175.0,-761.25,-306.25,1,94.536,
01/01/2000,01:25:02.79,19.76,-61.24,-992.23,157.50,-691.25,-446.25,1,94.543,
01/01/2000,01:25:02.80,19.76,-61.24,-992.10,192.50,-577.50,-376.25,1,94.550,
01/01/2000,01:25:02.81,19.76,-61.24,-992.10,105.0,-700.0,-341.25,1,94.557,
01/01/2000,01:25:02.83,19.64,-61.0,-992.10,61.25,-656.25,-341.25,1,94.564,
01/01/2000,01:25:02.84,19.64,-61.24,-992.10,210.0,-700.0,-376.25,1,94.571,
01/01/2000,01:25:02.85,19.64,-61.12,-991.98,70.0,-656.25,-332.50,1,94.578,
01/01/2000,01:25:02.86,19.64,-61.24,-991.86,140.0,-682.50,-332.50,1,94.584,
01/01/2000,01:25:02.87,19.76,-61.24,-991.98,236.25,-796.25,-297.50,1,94.591,
01/01/2000,01:25:02.88,19.76,-61.24,-991.98,157.50,-691.25,-280.0,1,94.598,
01/01/2000,01:25:02.89,19.76,-61.24,-992.10,210.0,-735.0,-306.25,1,94.605,
01/01/2000,01:25:02.90,19.76,-61.24,-991.98,227.50,-577.50,-306.25,1,94.612,
01/01/2000,01:25:02.91,19.89,-61.24,-992.10,175.0,-735.0,-411.25,1,94.618,
01/01/2000,01:25:02.92,19.76,-61.24,-991.86,157.50,-682.50,-411.25,1,94.625,
01/01/2000,01:25:02.93,19.64,-61.12,-991.86,175.0,-603.75,-472.50,1,94.632,
01/01/2000,01:25:02.94,19.52,-61.24,-991.74,236.25,-761.25,-393.75,1,94.638,
01/01/2000,01:25:02.95,19.52,-61.24,-991.74,105.0,-673.75,-271.25,1,94.645,
01/01/2000,01:25:02.96,19.52,-61.37,-991.86,245.0,-700.0,-297.50,1,94.534,
01/01/2000,01:25:02.97,19.52,-61.24,-991.86,122.50,-726.25,-323.75,1,94.541,
01/01/2000,01:25:02.98,19.52,-61.24,-991.86,157.50,-595.0,-288.75,1,94.548,
01/01/2000,01:25:02.99,19.52,-61.12,-991.86,201.25,-612.50,-210.0,1,94.554,
01/01/2000,01:25:03.00,19.52,-61.49,-991.86,105.0,-708.75,-297.50,1,94.561,
01/01/2000,01:25:03.02,19.40,-61.49,-991.86,157.50,-673.75,-358.75,1,94.568,
01/01/2000,01:25:03.02,19.52,-61.49,-991.86,43.75,-717.50,-297.50,1,94.575,
01/01/2000,01:25:03.04,19.52,-61.37,-991.86,218.75,-691.25,-350.0,1,94.581,
01/01/2000,01:25:03.05,19.40,-61.37,-991.86,122.50,-752.50,-385.0,1,94.588,
01/01/2000,01:25:03.06,19.52,-61.37,-992.10,105.0,-778.75,-402.50,1,94.595,
01/01/2000,01:25:03.07,19.64,-61.37,-992.10,140.0,-700.0,-341.25,1,94.601,
01/01/2000,01:25:03.08,19.76,-61.24,-992.23,218.75,-708.75,-367.50,1,94.608,
01/01/2000,01:25:03.09,19.76,-61.24,-992.10,210.0,-708.75,-297.50,1,94.499,
01/01/2000,01:25:03.11,19.64,-61.0,-991.98,113.75,-770.0,-271.25,1,94.505,
01/01/2000,01:25:03.12,19.76,-61.0,-991.98,218.75,-726.25,-315.0,1,94.512,
01/01/2000,01:25:03.13,19.76,-61.24,-991.98,210.0,-586.25,-341.25,1,94.519,
01/01/2000,01:25:03.14,19.76,-61.24,-991.98,201.25,-621.25,-323.75,1,94.526,
01/01/2000,01:25:03.15,19.64,-61.24,-991.86,70.0,-638.75,-437.50,1,94.532,
01/01/2000,01:25:03.16,19.52,-61.24,-992.10,253.75,-682.50,-253.75,1,94.539,
01/01/2000,01:25:03.17,19.52,-61.24,-992.10,96.25,-673.75,-463.75,1,94.545,
01/01/2000,01:25:03.18,19.52,-61.24,-992.10,183.75,-691.25,-367.50,1,94.552,
01/01/2000,01:25:03.19,19.64,-61.24,-992.10,245.0,-735.0,-253.75,1,94.559,
01/01/2000,01:25:03.20,19.52,-61.24,-992.10,227.50,-673.75,-411.25,1,94.565,
01/01/2000,01:25:03.21,19.40,-61.12,-992.10,87.50,-805.0,-297.50,1,94.572,
01/01/2000,01:25:03.22,19.28,-61.12,-992.10,140.0,-682.50,-332.50,1,94.578,
01/01/2000,01:25:03.23,19.40,-61.12,-992.10,245.0,-691.25,-315.0,1,94.585,
01/01/2000,01:25:03.24,19.40,-61.0,-992.23,192.50,-638.75,-367.50,1,94.591,
01/01/2000,01:25:03.25,19.40,-61.24,-992.10,148.75,-717.50,-306.25,1,94.598,
01/01/2000,01:25:03.26,19.28,-61.12,-992.23,148.75,-673.75,-183.75,1,94.604,
01/01/2000,01:25:03.27,19.40,-61.12,-992.10,61.25,-735.0,-341.25,1,94.611,
01/01/2000,01:25:03.28,19.52,-61.0,-992.23,122.50,-673.75,-350.0,1,94.617,
01/01/2000,01:25:03.29,19.28,-61.24,-992.23,192.50,-577.50,-280.0,1,94.624,
01/01/2000,01:25:03.30,19.28,-61.24,-992.23,210.0,-770.0,-367.50,1,94.630,
01/01/2000,01:25:03.31,19.28,-61.24,-992.10,218.75,-638.75,-315.0,1,94.524,
01/01/2000,01:25:03.33,19.28,-61.24,-992.10,271.25,-682.50,-332.50,1,94.530,
01/01/2000,01:25:03.33,19.52,-61.12,-992.10,122.50,-778.75,-297.50,1,94.537,
01/01/2000,01:25:03.35,19.52,-61.24,-992.35,183.75,-708.75,-455.0,1,94.543,
01/01/2000,01:25:03.36,19.52,-61.24,-992.23,122.50,-612.50,-341.25,1,94.550,
01/01/2000,01:25:03.37,19.64,-61.24,-992.35,148.75,-647.50,-420.0,1,94.556,
01/01/2000,01:25:03.38,19.64,-61.24,-992.35,122.50,-656.25,-262.50,1,94.563,
01/01/2000,01:25:03.39,19.64,-61.0,-992.35,192.50,-682.50,-385.0,1,94.569,
01/01/2000,01:25:03.40,19.64,-61.0,-992.10,140.0,-665.0,-402.50,1,94.575,
01/01/2000,01:25:03.41,19.52,-61.12,-992.47,192.50,-691.25,-367.50,1,94.582,
01/01/2000,01:25:03.42,19.76,-61.12,-992.35,113.75,-630.0,-341.25,1,94.588,
01/01/2000,01:25:03.43,19.76,-61.24,-992.23,122.50,-805.0,-306.25,1,94.595,
01/01/2000,01:25:03.44,19.76,-61.12,-992.23,26.25,-787.50,-306.25,1,94.601,
01/01/2000,01:25:03.45,19.64,-61.24,-992.23,262.50,-743.75,-306.25,1,94.607,
01/01/2000,01:25:03.46,19.76,-61.24,-992.35,271.25,-726.25,-288.75,1,94.503,
01/01/2000,01:25:03.47,19.64,-61.24,-992.35,148.75,-761.25,-271.25,1,94.509,
01/01/2000,01:25:03.48,19.52,-61.24,-992.35,192.50,-700.0,-315.0,1,94.516,
01/01/2000,01:25:03.49,19.64,-61.24,-992.35,122.50,-735.0,-350.0,1,94.522,
01/01/2000,01:25:03.50,19.52,-61.12,-992.47,192.50,-700.0,-411.25,1,94.529,
01/01/2000,01:25:03.51,19.64,-61.12,-992.35,201.25,-656.25,-262.50,1,94.535,
01/01/2000,01:25:03.53,19.52,-61.0,-992.35,113.75,-726.25,-402.50,1,94.541,
01/01/2000,01:25:03.54,19.52,-61.0,-992.35,218.75,-700.0,-358.75,1,94.548,
01/01/2000,01:25:03.55,19.52,-61.12,-992.23,288.75,-700.0,-271.25,1,94.554,
01/01/2000,01:25:03.56,19.28,-61.0,-992.10,17.50,-761.25,-262.50,1,94.560,
01/01/2000,01:25:03.57,19.28,-61.0,-992.10,70.0,-726.25,-367.50,1,94.566,
01/01/2000,01:25:03.58,19.28,-61.0,-992.10,192.50,-796.25,-437.50,1,94.573,
01/01/2000,01:25:03.59,19.28,-61.24,-992.10,201.25,-735.0,-350.0,1,94.579,
01/01/2000,01:25:03.61,19.28,-61.0,-992.10,122.50,-726.25,-341.25,1,94.476,
01/01/2000,01:25:03.62,19.28,-61.0,-991.98,78.75,-735.0,-306.25,1,94.483,
01/01/2000,01:25:03.63,19.28,-61.0,-991.98,280.0,-813.75,-306.25,1,94.489,
01/01/2000,01:25:03.64,19.52,-61.12,-991.86,157.50,-708.75,-472.50,1,94.495,
01/01/2000,01:25:03.65,19.40,-61.12,-991.86,157.50,-717.50,-376.25,1,94.502,
01/01/2000,01:25:03.66,19.40,-61.12,-991.98,157.50,-717.50,-280.0,1,94.508,
01/01/2000,01:25:03.67,19.40,-61.0,-991.98,148.75,-743.75,-253.75,1,94.514,
01/01/2000,01:25:03.68,19.28,-61.0,-991.86,166.25,-778.75,-306.25,1,94.521,
01/01/2000,01:25:03.69,19.15,-61.0,-991.98,140.0,-770.0,-297.50,1,94.527,
01/01/2000,01:25:03.70,19.28,-61.12,-991.98,157.50,-665.0,-358.75,1,94.533,
01/01/2000,01:25:03.71,19.28,-61.12,-992.10,271.25,-708.75,-358.75,1,94.539,
01/01/2000,01:25:03.72,19.28,-61.24,-992.10,218.75,-603.75,-455.0,1,94.545,
01/01/2000,01:25:03.73,19.28,-61.24,-991.98,105.0,-735.0,-358.75,1,94.552,
01/01/2000,01:25:03.74,19.15,-61.24,-991.86,148.75,-647.50,-315.0,1,94.558,
01/01/2000,01:25:03.75,19.03,-61.12,-992.10,131.25,-673.75,-402.50,1,94.564,
01/01/2000,01:25:03.76,19.15,-61.12,-992.10,148.75,-717.50,-297.50,1,94.570,
01/01/2000,01:25:03.77,19.28,-61.12,-992.10,61.25,-673.75,-341.25,1,94.576,
01/01/2000,01:25:03.78,19.15,-61.12,-992.10,192.50,-682.50,-323.75,1,94.582,
01/01/2000,01:25:03.79,19.28,-61.24,-991.98,183.75,-700.0,-350.0,1,94.589,
01/01/2000,01:25:03.80,19.28,-61.24,-991.98,306.25,-708.75,-280.0,1,94.595,
01/01/2000,01:25:03.81,19.15,-61.12,-991.86,245.0,-586.25,-280.0,1,94.601,
01/01/2000,01:25:03.82,19.03,-61.12,-991.86,131.25,-665.0,-297.50,1,94.607,
01/01/2000,01:25:03.83,19.03,-61.24,-991.86,288.75,-630.0,-297.50,1,94.613,
01/01/2000,01:25:03.84,19.03,-61.12,-991.98,157.50,-682.50,-271.25,1,94.619,
01/01/2000,01:25:03.85,19.03,-61.12,-992.10,253.75,-638.75,-341.25,1,94.625,
01/01/2000,01:25:03.86,19.03,-61.12,-992.10,192.50,-778.75,-350.0,1,94.631,
01/01/2000,01:25:03.87,19.03,-61.12,-991.98,8.75,-638.75,-393.75,1,94.531,
01/01/2000,01:25:03.89,19.15,-61.24,-991.98,245.0,-691.25,-463.75,1,94.537,
01/01/2000,01:25:03.90,19.15,-61.24,-991.98,271.25,-770.0,-358.75,1,94.543,
01/01/2000,01:25:03.91,19.28,-61.24,-992.10,35.0,-717.50,-262.50,1,94.549,
01/01/2000,01:25:03.92,19.28,-61.24,-992.10,245.0,-630.0,-411.25,1,94.556,
01/01/2000,01:25:03.93,19.28,-61.12,-992.10,70.0,-726.25,-358.75,1,94.562,
01/01/2000,01:25:03.94,19.28,-61.24,-991.98,218.75,-708.75,-411.25,1,94.568,
01/01/2000,01:25:03.95,19.52,-61.24,-992.10,131.25,-691.25,-315.0,1,94.574,
01/01/2000,01:25:03.96,19.52,-61.24,-992.10,87.50,-726.25,-288.75,1,94.580,
01/01/2000,01:25:03.97,19.28,-61.24,-992.10,122.50,-752.50,-323.75,1,94.586,
01/01/2000,01:25:03.98,19.40,-61.37,-992.23,183.75,-673.75,-227.50,1,94.592,
01/01/2000,01:25:03.99,19.28,-61.37,-992.35,218.75,-630.0,-341.25,1,94.598,
01/01/2000,01:25:04.00,19.40,-61.24,-992.35,113.75,-778.75,-288.75,1,94.604,
01/01/2000,01:25:04.01,19.40,-61.37,-992.35,201.25,-682.50,-393.75,1,94.609,
01/01/2000,01:25:04.02,19.28,-61.12,-992.35,113.75,-691.25,-341.25,1,94.512,
01/01/2000,01:25:04.03,19.28,-61.12,-992.47,288.75,-638.75,-350.0,1,94.518,
01/01/2000,01:25:04.04,19.40,-61.0,-992.47,245.0,-752.50,-376.25,1,94.524,
01/01/2000,01:25:04.05,19.40,-61.12,-992.47,96.25,-665.0,-350.0,1,94.530,
01/01/2000,01:25:04.06,19.28,-61.12,-992.47,87.50,-743.75,-376.25,1,94.536,
01/01/2000,01:25:04.07,19.28,-61.24,-992.47,43.75,-691.25,-332.50,1,94.541,
01/01/2000,01:25:04.09,19.40,-61.12,-992.35,288.75,-665.0,-332.50,1,94.547,
01/01/2000,01:25:04.10,19.28,-61.24,-992.23,210.0,-656.25,-385.0,1,94.553,
01/01/2000,01:25:04.11,19.28,-61.37,-992.23,113.75,-656.25,-288.75,1,94.457,
01/01/2000,01:25:04.13,19.40,-61.37,-992.23,70.0,-621.25,-288.75,1,94.463,
01/01/2000,01:25:04.14,19.40,-61.37,-992.35,210.0,-708.75,-358.75,1,94.469,
01/01/2000,01:25:04.15,19.40,-61.12,-992.35,288.75,-647.50,-350.0,1,94.475,
01/01/2000,01:25:04.16,19.40,-61.24,-992.35,210.0,-778.75,-323.75,1,94.481,
01/01/2000,01:25:04.17,19.52,-61.37,-992.35,210.0,-717.50,-393.75,1,94.486,
01/01/2000,01:25:04.18,19.64,-61.24,-992.35,131.25,-813.75,-367.50,1,94.492,
01/01/2000,01:25:04.19,19.64,-61.24,-992.10,61.25,-682.50,-385.0,1,94.498,
01/01/2000,01:25:04.20,19.52,-61.37,-992.10,245.0,-708.75,-420.0,1,94.504,
01/01/2000,01:25:04.21,19.28,-61.24,-992.10,236.25,-717.50,-306.25,1,94.510,
01/01/2000,01:25:04.22,19.52,-61.24,-992.10,245.0,-682.50,-332.50,1,94.516,
01/01/2000,01:25:04.23,19.40,-61.24,-992.10,157.50,-691.25,-385.0,1,94.522,
01/01/2000,01:25:04.24,19.40,-61.24,-992.23,148.75,-656.25,-288.75,1,94.528,
01/01/2000,01:25:04.25,19.28,-61.49,-992.10,236.25,-665.0,-428.75,1,94.534,
01/01/2000,01:25:04.26,19.28,-61.49,-991.98,166.25,-682.50,-315.0,1,94.540,
01/01/2000,01:25:04.27,19.28,-61.49,-992.10,113.75,-778.75,-341.25,1,94.545,
01/01/2000,01:25:04.28,19.28,-61.49,-992.10,253.75,-726.25,-437.50,1,94.551,
01/01/2000,01:25:04.29,19.40,-61.49,-992.10,87.50,-717.50,-367.50,1,94.557,
01/01/2000,01:25:04.30,19.40,-61.49,-992.10,175.0,-708.75,-367.50,1,94.462,
01/01/2000,01:25:04.31,19.52,-61.61,-992.23,87.50,-752.50,-201.25,1,94.468,
01/01/2000,01:25:04.32,19.52,-61.49,-992.23,70.0,-647.50,-323.75,1,94.474,
01/01/2000,01:25:04.33,19.52,-61.49,-992.10,227.50,-752.50,-262.50,1,94.480,
01/01/2000,01:25:04.34,19.40,-61.49,-991.98,183.75,-647.50,-350.0,1,94.486,
01/01/2000,01:25:04.35,19.28,-61.37,-991.98,175.0,-700.0,-376.25,1,94.492,
01/01/2000,01:25:04.36,19.28,-61.37,-991.98,192.50,-673.75,-271.25,1,94.497,
01/01/2000,01:25:04.38,19.28,-61.37,-992.10,236.25,-682.50,-402.50,1,94.503,
01/01/2000,01:25:04.39,19.28,-61.37,-992.10,157.50,-743.75,-253.75,1,94.509,
01/01/2000,01:25:04.40,19.28,-61.37,-992.10,140.0,-691.25,-236.25,1,94.515,
01/01/2000,01:25:04.41,19.15,-61.37,-991.86,192.50,-726.25,-350.0,1,94.521,
01/01/2000,01:25:04.42,19.28,-61.37,-991.74,105.0,-586.25,-350.0,1,94.526,
01/01/2000,01:25:04.43,19.15,-61.24,-991.86,227.50,-603.75,-385.0,1,94.532,
01/01/2000,01:25:04.44,19.28,-61.24,-991.98,157.50,-700.0,-271.25,1,94.538,
01/01/2000,01:25:04.45,19.28,-61.37,-992.10,148.75,-708.75,-376.25,1,94.544,
01/01/2000,01:25:04.46,19.28,-61.37,-992.10,166.25,-787.50,-323.75,1,94.549,
01/01/2000,01:25:04.47,19.40,-61.24,-991.98,131.25,-700.0,-280.0,1,94.555,
01/01/2000,01:25:04.48,19.28,-61.24,-991.98,148.75,-743.75,-323.75,1,94.561,
01/01/2000,01:25:04.49,19.28,-61.37,-991.98,192.50,-700.0,-218.75,1,94.566,
01/01/2000,01:25:04.50,19.28,-61.37,-992.10,113.75,-735.0,-332.50,1,94.572,
01/01/2000,01:25:04.51,19.15,-61.37,-992.10,131.25,-682.50,-393.75,1,94.479,
01/01/2000,01:25:04.52,19.28,-61.49,-992.10,253.75,-770.0,-271.25,1,94.485,
01/01/2000,01:25:04.53,19.28,-61.49,-992.10,201.25,-726.25,-236.25,1,94.491,
01/01/2000,01:25:04.54,19.28,-61.61,-991.98,183.75,-577.50,-341.25,1,94.496,
01/01/2000,01:25:04.55,19.15,-61.49,-992.10,148.75,-638.75,-315.0,1,94.502,
01/01/2000,01:25:04.56,19.03,-61.61,-992.10,227.50,-700.0,-350.0,1,94.508,
01/01/2000,01:25:04.58,19.15,-61.49,-992.23,70.0,-647.50,-420.0,1,94.513,
01/01/2000,01:25:04.59,19.03,-61.37,-992.10,271.25,-708.75,-341.25,1,94.519,
01/01/2000,01:25:04.60,19.28,-61.37,-992.23,131.25,-682.50,-315.0,1,94.525,
01/01/2000,01:25:04.61,19.15,-61.37,-992.35,271.25,-630.0,-358.75,1,94.530,
01/01/2000,01:25:04.62,19.28,-61.49,-992.35,113.75,-735.0,-315.0,1,94.439,
01/01/2000,01:25:04.63,19.28,-61.49,-992.35,26.25,-647.50,-367.50,1,94.444,
01/01/2000,01:25:04.64,19.28,-61.49,-992.35,288.75,-691.25,-306.25,1,94.450,
01/01/2000,01:25:04.65,19.28,-61.49,-992.35,183.75,-665.0,-306.25,1,94.456,
01/01/2000,01:25:04.67,19.28,-61.73,-992.35,201.25,-647.50,-358.75,1,94.462,
01/01/2000,01:25:04.67,19.28,-61.49,-992.35,70.0,-752.50,-306.25,1,94.467,
01/01/2000,01:25:04.69,19.40,-61.49,-992.35,201.25,-638.75,-315.0,1,94.473,
01/01/2000,01:25:04.70,19.40,-61.24,-992.35,288.75,-673.75,-402.50,1,94.479,
01/01/2000,01:25:04.71,19.40,-61.24,-992.35,253.75,-656.25,-393.75,1,94.484,
01/01/2000,01:25:04.72,19.52,-61.24,-992.35,113.75,-752.50,-350.0,1,94.490,
01/01/2000,01:25:04.73,19.52,-61.37,-992.35,166.25,-673.75,-306.25,1,94.495,
01/01/2000,01:25:04.74,19.52,-61.24,-992.35,26.25,-603.75,-376.25,1,94.501,
01/01/2000,01:25:04.75,19.64,-61.12,-992.35,140.0,-743.75,-297.50,1,94.507,
01/01/2000,01:25:04.76,19.52,-61.24,-992.35,148.75,-533.75,-341.25,1,94.512,
01/01/2000,01:25:04.77,19.64,-61.24,-992.35,122.50,-656.25,-367.50,1,94.518,
01/01/2000,01:25:04.78,19.64,-61.12,-992.23,210.0,-813.75,-411.25,1,94.523,
01/01/2000,01:25:04.79,19.64,-61.24,-992.23,148.75,-726.25,-411.25,1,94.529,
01/01/2000,01:25:04.80,19.52,-61.24,-992.35,201.25,-700.0,-271.25,1,94.534,
01/01/2000,01:25:04.81,19.52,-61.24,-992.23,192.50,-708.75,-280.0,1,94.540,
01/01/2000,01:25:04.82,19.64,-61.49,-991.98,183.75,-656.25,-306.25,1,94.545,
01/01/2000,01:25:04.83,19.64,-61.49,-992.10,271.25,-638.75,-411.25,1,94.551,
01/01/2000,01:25:04.84,19.64,-61.49,-992.10,96.25,-577.50,-288.75,1,94.556,
01/01/2000,01:25:04.85,19.52,-61.49,-992.35,166.25,-656.25,-376.25,1,94.562,
01/01/2000,01:25:04.86,19.64,-61.24,-992.35,96.25,-787.50,-280.0,1,94.472,
01/01/2000,01:25:04.87,19.52,-61.24,-992.35,210.0,-735.0,-358.75,1,94.478,
01/01/2000,01:25:04.88,19.64,-61.24,-992.35,166.25,-673.75,-271.25,1,94.483,
01/01/2000,01:25:04.89,19.76,-61.37,-992.35,227.50,-717.50,-367.50,1,94.489,
01/01/2000,01:25:04.90,19.76,-61.37,-992.35,26.25,-700.0,-367.50,1,94.494,
01/01/2000,01:25:04.91,19.76,-61.24,-992.35,131.25,-665.0,-280.0,1,94.500,
01/01/2000,01:25:04.92,19.76,-61.24,-992.59,96.25,-796.25,-323.75,1,94.505,
01/01/2000,01:25:04.94,19.52,-61.37,-992.71,192.50,-665.0,-306.25,1,94.511,
01/01/2000,01:25:04.95,19.64,-61.37,-992.59,183.75,-761.25,-297.50,1,94.516,
01/01/2000,01:25:04.96,19.64,-61.49,-992.59,227.50,-568.75,-332.50,1,94.522,
01/01/2000,01:25:04.97,19.52,-61.37,-992.59,227.50,-665.0,-455.0,1,94.527,
01/01/2000,01:25:04.98,19.52,-61.37,-992.59,148.75,-735.0,-341.25,1,94.533,
01/01/2000,01:25:04.99,19.52,-61.37,-992.47,183.75,-656.25,-297.50,1,94.538,
01/01/2000,01:25:05.00,19.52,-61.37,-992.59,157.50,-717.50,-315.0,1,94.544,
01/01/2000,01:25:05.01,19.52,-61.37,-992.59,166.25,-726.25,-350.0,1,94.549,
01/01/2000,01:25:05.02,19.76,-61.24,-992.47,96.25,-735.0,-288.75,1,94.554,
01/01/2000,01:25:05.03,19.64,-61.24,-992.35,122.50,-743.75,-428.75,1,94.560,
01/01/2000,01:25:05.04,19.64,-61.12,-992.47,87.50,-708.75,-358.75,1,94.565,
01/01/2000,01:25:05.05,19.76,-61.24,-992.59,236.25,-691.25,-446.25,1,94.571,
01/01/2000,01:25:05.06,19.76,-61.12,-992.71,201.25,-743.75,-288.75,1,94.576,
01/01/2000,01:25:05.07,19.76,-61.24,-992.59,96.25,-761.25,-332.50,1,94.488,
01/01/2000,01:25:05.08,19.64,-61.12,-992.35,113.75,-638.75,-315.0,1,94.494,
01/01/2000,01:25:05.09,19.64,-61.24,-992.23,122.50,-770.0,-323.75,1,94.499,
01/01/2000,01:25:05.10,19.64,-61.24,-992.23,157.50,-673.75,-393.75,1,94.504,
01/01/2000,01:25:05.11,19.52,-61.49,-992.35,122.50,-638.75,-437.50,1,94.510,
01/01/2000,01:25:05.12,19.40,-61.49,-992.35,183.75,-700.0,-367.50,1,94.515,
01/01/2000,01:25:05.14,19.28,-61.49,-992.23,113.75,-691.25,-358.75,1,94.521,
01/01/2000,01:25:05.15,19.52,-61.49,-992.35,236.25,-638.75,-218.75,1,94.434,
01/01/2000,01:25:05.16,19.52,-61.37,-992.35,157.50,-682.50,-280.0,1,94.439,
01/01/2000,01:25:05.17,19.64,-61.61,-992.23,288.75,-577.50,-385.0,1,94.444,
01/01/2000,01:25:05.18,19.64,-61.49,-992.10,35.0,-717.50,-315.0,1,94.450,
01/01/2000,01:25:05.19,19.52,-61.37,-992.10,253.75,-752.50,-253.75,1,94.455,
01/01/2000,01:25:05.20,19.64,-61.24,-992.10,166.25,-700.0,-271.25,1,94.461,
01/01/2000,01:25:05.21,19.52,-61.37,-992.35,131.25,-638.75,-350.0,1,94.466,
01/01/2000,01:25:05.23,19.52,-61.37,-992.23,148.75,-726.25,-323.75,1,94.471,
01/01/2000,01:25:05.24,19.52,-61.49,-992.35,192.50,-647.50,-315.0,1,94.477,
01/01/2000,01:25:05.25,19.40,-61.37,-992.35,157.50,-603.75,-455.0,1,94.482,
01/01/2000,01:25:05.26,19.52,-61.24,-992.23,175.0,-673.75,-358.75,1,94.487,
01/01/2000,01:25:05.27,19.52,-61.24,-992.10,43.75,-673.75,-367.50,1,94.493,
01/01/2000,01:25:05.28,19.52,-61.24,-991.98,105.0,-656.25,-358.75,1,94.498,
01/01/2000,01:25:05.29,19.52,-61.49,-991.98,61.25,-752.50,-245.0,1,94.503,
01/01/2000,01:25:05.30,19.64,-61.61,-992.10,210.0,-682.50,-323.75,1,94.509,
01/01/2000,01:25:05.31,19.76,-61.61,-992.10,87.50,-595.0,-411.25,1,94.514,
01/01/2000,01:25:05.32,19.52,-61.61,-992.10,148.75,-638.75,-420.0,1,94.519,
01/01/2000,01:25:05.33,19.52,-61.61,-992.10,262.50,-691.25,-315.0,1,94.524,
01/01/2000,01:25:05.34,19.40,-61.61,-992.10,113.75,-673.75,-306.25,1,94.530,
01/01/2000,01:25:05.35,19.52,-61.73,-992.23,218.75,-700.0,-323.75,1,94.535,
01/01/2000,01:25:05.36,19.40,-61.73,-992.35,26.25,-603.75,-288.75,1,94.450,
01/01/2000,01:25:05.37,19.40,-61.73,-992.10,210.0,-691.25,-332.50,1,94.455,
01/01/2000,01:25:05.38,19.28,-61.61,-992.10,122.50,-673.75,-332.50,1,94.460,
01/01/2000,01:25:05.39,19.40,-61.73,-992.23,192.50,-691.25,-393.75,1,94.466,
01/01/2000,01:25:05.40,19.52,-61.73,-992.23,52.50,-752.50,-315.0,1,94.471,
01/01/2000,01:25:05.41,19.52,-61.49,-992.35,131.25,-735.0,-297.50,1,94.476,
01/01/2000,01:25:05.43,19.28,-61.49,-992.10,253.75,-612.50,-315.0,1,94.481,
01/01/2000,01:25:05.44,19.15,-61.49,-992.23,113.75,-708.75,-315.0,1,94.487,
01/01/2000,01:25:05.45,19.15,-61.49,-992.10,192.50,-743.75,-385.0,1,94.492,
01/01/2000,01:25:05.46,19.03,-61.49,-991.98,183.75,-691.25,-315.0,1,94.497,
01/01/2000,01:25:05.47,19.03,-61.37,-992.10,87.50,-735.0,-332.50,1,94.502,
01/01/2000,01:25:05.48,19.03,-61.24,-992.23,87.50,-603.75,-385.0,1,94.508,
01/01/2000,01:25:05.49,18.91,-61.24,-992.23,192.50,-647.50,-341.25,1,94.513,
01/01/2000,01:25:05.50,19.03,-61.24,-992.23,131.25,-638.75,-420.0,1,94.518,
01/01/2000,01:25:05.51,19.15,-61.12,-992.35,105.0,-665.0,-376.25,1,94.523,
01/01/2000,01:25:05.52,19.03,-61.24,-992.10,227.50,-761.25,-341.25,1,94.528,
01/01/2000,01:25:05.53,18.91,-61.24,-991.98,122.50,-726.25,-332.50,1,94.533,
01/01/2000,01:25:05.54,18.91,-61.24,-991.98,175.0,-682.50,-358.75,1,94.539,
01/01/2000,01:25:05.55,19.03,-61.24,-992.10,166.25,-665.0,-332.50,1,94.544,
01/01/2000,01:25:05.56,19.15,-61.24,-992.23,166.25,-726.25,-323.75,1,94.549,
01/01/2000,01:25:05.58,19.28,-61.24,-992.23,192.50,-708.75,-376.25,1,94.465,
01/01/2000,01:25:05.59,19.28,-61.24,-992.10,148.75,-735.0,-323.75,1,94.470,
01/01/2000,01:25:05.60,19.28,-61.24,-992.23,245.0,-673.75,-411.25,1,94.476,
01/01/2000,01:25:05.61,19.52,-61.24,-992.23,166.25,-691.25,-332.50,1,94.481,
01/01/2000,01:25:05.62,19.52,-61.24,-992.10,113.75,-647.50,-323.75,1,94.486,
01/01/2000,01:25:05.63,19.40,-61.12,-992.10,166.25,-577.50,-306.25,1,94.491,
01/01/2000,01:25:05.64,19.40,-61.37,-992.23,192.50,-630.0,-358.75,1,94.408,
01/01/2000,01:25:05.65,19.52,-61.49,-992.35,236.25,-708.75,-262.50,1,94.413,
01/01/2000,01:25:05.67,19.52,-61.49,-992.35,245.0,-673.75,-428.75,1,94.419,
01/01/2000,01:25:05.67,19.40,-61.49,-992.47,218.75,-603.75,-367.50,1,94.424,
01/01/2000,01:25:05.69,19.40,-61.49,-992.47,175.0,-691.25,-315.0,1,94.429,
01/01/2000,01:25:05.70,19.52,-61.49,-992.23,175.0,-726.25,-218.75,1,94.434,
01/01/2000,01:25:05.71,19.52,-61.49,-992.23,183.75,-743.75,-341.25,1,94.439,
01/01/2000,01:25:05.72,19.52,-61.49,-992.10,43.75,-735.0,-288.75,1,94.444,
01/01/2000,01:25:05.73,19.40,-61.49,-991.98,323.75,-770.0,-350.0,1,94.450,
01/01/2000,01:25:05.74,19.52,-61.24,-992.10,201.25,-603.75,-280.0,1,94.455,
01/01/2000,01:25:05.75,19.52,-61.24,-992.23,253.75,-665.0,-420.0,1,94.460,
01/01/2000,01:25:05.76,19.64,-61.24,-992.35,175.0,-665.0,-297.50,1,94.465,
01/01/2000,01:25:05.77,19.64,-61.49,-992.23,236.25,-708.75,-297.50,1,94.470,
01/01/2000,01:25:05.78,19.52,-61.61,-992.35,140.0,-726.25,-411.25,1,94.475,
01/01/2000,01:25:05.79,19.52,-61.49,-992.23,192.50,-621.25,-315.0,1,94.480,
01/01/2000,01:25:05.80,19.52,-61.49,-992.10,113.75,-743.75,-341.25,1,94.485,
01/01/2000,01:25:05.81,19.52,-61.24,-992.23,218.75,-822.50,-288.75,1,94.490,
01/01/2000,01:25:05.82,19.52,-61.37,-992.10,122.50,-752.50,-332.50,1,94.495,
01/01/2000,01:25:05.83,19.28,-61.49,-991.98,253.75,-691.25,-420.0,1,94.500,
01/01/2000,01:25:05.84,19.28,-61.49,-991.98,105.0,-717.50,-350.0,1,94.505,
01/01/2000,01:25:05.85,19.52,-61.24,-992.10,227.50,-595.0,-385.0,1,94.511,
01/01/2000,01:25:05.86,19.52,-61.12,-992.10,210.0,-691.25,-297.50,1,94.429,
01/01/2000,01:25:05.87,19.28,-61.24,-992.23,315.0,-726.25,-253.75,1,94.434,
01/01/2000,01:25:05.88,19.28,-61.12,-992.23,218.75,-726.25,-463.75,1,94.439,
01/01/2000,01:25:05.89,19.28,-61.24,-992.10,192.50,-673.75,-376.25,1,94.444,
01/01/2000,01:25:05.90,19.28,-61.24,-991.98,245.0,-735.0,-437.50,1,94.450,
01/01/2000,01:25:05.91,19.28,-61.37,-992.10,192.50,-691.25,-341.25,1,94.455,
01/01/2000,01:25:05.93,19.15,-61.37,-992.10,201.25,-665.0,-402.50,1,94.460,
01/01/2000,01:25:05.94,19.03,-61.49,-992.35,192.50,-787.50,-280.0,1,94.465,
01/01/2000,01:25:05.95,19.03,-61.49,-992.47,78.75,-735.0,-376.25,1,94.470,
01/01/2000,01:25:05.96,19.15,-61.37,-992.59,131.25,-700.0,-306.25,1,94.475,
01/01/2000,01:25:05.97,19.28,-61.49,-992.35,96.25,-700.0,-350.0,1,94.480,
01/01/2000,01:25:05.98,19.15,-61.49,-992.47,280.0,-638.75,-332.50,1,94.485,
01/01/2000,01:25:05.99,19.15,-61.61,-992.59,70.0,-656.25,-332.50,1,94.490,
01/01/2000,01:25:06.00,19.28,-61.49,-992.96,218.75,-612.50,-393.75,1,94.495,
01/01/2000,01:25:06.01,19.40,-61.37,-992.84,157.50,-638.75,-288.75,1,94.500,
01/01/2000,01:25:06.02,19.40,-61.49,-992.47,245.0,-735.0,-376.25,1,94.505,
01/01/2000,01:25:06.03,19.28,-61.49,-992.35,131.25,-805.0,-385.0,1,94.509,
01/01/2000,01:25:06.04,19.52,-61.61,-992.35,175.0,-726.25,-323.75,1,94.514,
01/01/2000,01:25:06.05,19.52,-61.49,-992.35,8.75,-743.75,-288.75,1,94.519,
01/01/2000,01:25:06.06,19.40,-61.24,-992.35,113.75,-778.75,-358.75,1,94.439,
01/01/2000,01:25:06.07,19.40,-61.24,-992.10,227.50,-647.50,-297.50,1,94.444,
01/01/2000,01:25:06.08,19.40,-61.37,-992.23,148.75,-630.0,-323.75,1,94.449,
01/01/2000,01:25:06.09,19.52,-61.49,-992.35,35.0,-691.25,-218.75,1,94.454,
01/01/2000,01:25:06.10,19.52,-61.61,-992.47,218.75,-673.75,-437.50,1,94.459,
01/01/2000,01:25:06.11,19.28,-61.37,-992.47,157.50,-665.0,-341.25,1,94.464,
01/01/2000,01:25:06.12,19.52,-61.24,-992.59,157.50,-691.25,-332.50,1,94.469,
01/01/2000,01:25:06.14,19.76,-61.12,-992.47,105.0,-638.75,-297.50,1,94.474,
01/01/2000,01:25:06.15,19.76,-61.24,-992.35,122.50,-743.75,-411.25,1,94.395,
01/01/2000,01:25:06.16,19.76,-61.61,-992.35,166.25,-682.50,-420.0,1,94.400,
01/01/2000,01:25:06.17,20.01,-61.49,-992.47,87.50,-691.25,-376.25,1,94.405,
01/01/2000,01:25:06.18,19.76,-61.49,-992.47,122.50,-630.0,-332.50,1,94.410,
01/01/2000,01:25:06.19,19.89,-61.0,-992.35,105.0,-656.25,-288.75,1,94.415,
01/01/2000,01:25:06.20,20.01,-61.24,-992.23,245.0,-726.25,-306.25,1,94.420,
01/01/2000,01:25:06.21,20.13,-61.24,-992.10,113.75,-717.50,-358.75,1,94.425,
01/01/2000,01:25:06.23,20.01,-61.49,-992.23,131.25,-708.75,-315.0,1,94.430,
01/01/2000,01:25:06.23,20.01,-61.49,-992.35,78.75,-621.25,-385.0,1,94.435,
01/01/2000,01:25:06.25,19.89,-61.37,-992.35,166.25,-665.0,-358.75,1,94.440,
01/01/2000,01:25:06.26,19.76,-61.12,-992.35,113.75,-770.0,-341.25,1,94.444,
01/01/2000,01:25:06.27,19.76,-61.0,-992.35,78.75,-682.50,-341.25,1,94.449,
01/01/2000,01:25:06.28,19.76,-61.24,-992.35,61.25,-691.25,-315.0,1,94.454,
01/01/2000,01:25:06.29,19.89,-61.49,-992.35,131.25,-743.75,-411.25,1,94.459,
01/01/2000,01:25:06.30,19.76,-61.49,-992.35,52.50,-603.75,-472.50,1,94.464,
01/01/2000,01:25:06.31,19.64,-61.37,-992.23,87.50,-770.0,-376.25,1,94.469,
01/01/2000,01:25:06.32,19.40,-61.12,-992.10,192.50,-647.50,-315.0,1,94.474,
01/01/2000,01:25:06.33,19.40,-61.24,-992.23,157.50,-682.50,-332.50,1,94.479,
01/01/2000,01:25:06.34,19.40,-61.37,-992.23,157.50,-691.25,-358.75,1,94.483,
01/01/2000,01:25:06.35,19.28,-61.61,-992.23,61.25,-577.50,-306.25,1,94.488,
01/01/2000,01:25:06.36,19.28,-61.49,-992.10,157.50,-603.75,-323.75,1,94.493,
01/01/2000,01:25:06.37,19.28,-61.37,-992.10,122.50,-770.0,-367.50,1,94.498,
01/01/2000,01:25:06.38,19.28,-61.24,-992.35,192.50,-770.0,-385.0,1,94.503,
01/01/2000,01:25:06.39,19.28,-61.12,-992.47,140.0,-726.25,-376.25,1,94.507,
01/01/2000,01:25:06.40,19.28,-61.37,-992.47,122.50,-542.50,-376.25,1,94.512,
01/01/2000,01:25:06.41,19.40,-61.24,-992.35,201.25,-612.50,-236.25,1,94.435,
01/01/2000,01:25:06.42,19.40,-61.24,-992.23,122.50,-726.25,-288.75,1,94.440,
01/01/2000,01:25:06.43,19.52,-61.24,-992.23,131.25,-691.25,-341.25,1,94.444,
01/01/2000,01:25:06.44,19.40,-61.24,-992.35,157.50,-778.75,-376.25,1,94.449,
01/01/2000,01:25:06.45,19.28,-61.24,-992.35,271.25,-735.0,-411.25,1,94.454,
01/01/2000,01:25:06.46,19.28,-61.0,-992.47,70.0,-665.0,-315.0,1,94.459,
01/01/2000,01:25:06.47,19.40,-61.0,-992.35,43.75,-813.75,-341.25,1,94.464,
01/01/2000,01:25:06.49,19.40,-61.24,-992.35,113.75,-735.0,-236.25,1,94.468,
01/01/2000,01:25:06.50,19.52,-61.37,-992.23,192.50,-778.75,-420.0,1,94.473,
01/01/2000,01:25:06.51,19.40,-61.24,-992.35,157.50,-647.50,-446.25,1,94.478,
01/01/2000,01:25:06.52,19.40,-61.24,-992.47,201.25,-638.75,-358.75,1,94.483,
01/01/2000,01:25:06.53,19.52,-61.12,-992.35,236.25,-691.25,-332.50,1,94.488,
01/01/2000,01:25:06.54,19.52,-61.12,-992.10,96.25,-831.25,-271.25,1,94.492,
01/01/2000,01:25:06.55,19.52,-61.24,-992.10,87.50,-665.0,-297.50,1,94.497,
01/01/2000,01:25:06.56,19.52,-61.24,-992.10,113.75,-778.75,-350.0,1,94.502,
01/01/2000,01:25:06.57,19.52,-61.37,-992.10,245.0,-665.0,-288.75,1,94.506,
01/01/2000,01:25:06.58,19.52,-61.24,-992.10,183.75,-726.25,-376.25,1,94.511,
01/01/2000,01:25:06.59,19.64,-61.24,-992.10,140.0,-682.50,-428.75,1,94.516,
01/01/2000,01:25:06.60,19.64,-61.24,-991.98,210.0,-560.0,-332.50,1,94.521,
01/01/2000,01:25:06.61,19.64,-61.37,-991.86,96.25,-770.0,-385.0,1,94.525,
01/01/2000,01:25:06.62,19.52,-61.49,-991.86,113.75,-647.50,-358.75,1,94.449,
01/01/2000,01:25:06.63,19.64,-61.49,-991.98,157.50,-726.25,-341.25,1,94.454,
01/01/2000,01:25:06.64,19.64,-61.24,-992.10,166.25,-682.50,-341.25,1,94.459,
01/01/2000,01:25:06.65,19.52,-61.37,-992.10,201.25,-665.0,-332.50,1,94.463,
01/01/2000,01:25:06.67,19.40,-61.24,-991.86,157.50,-752.50,-288.75,1,94.468,
01/01/2000,01:25:06.68,19.52,-61.37,-991.74,70.0,-778.75,-245.0,1,94.473,
01/01/2000,01:25:06.69,19.64,-61.37,-991.62,131.25,-656.25,-385.0,1,94.477,
01/01/2000,01:25:06.70,19.52,-61.37,-991.74,262.50,-682.50,-315.0,1,94.482,
01/01/2000,01:25:06.71,19.52,-61.37,-991.74,148.75,-735.0,-428.75,1,94.487,
01/01/2000,01:25:06.72,19.40,-61.49,-991.74,122.50,-603.75,-306.25,1,94.492,
01/01/2000,01:25:06.73,19.40,-61.61,-991.74,105.0,-752.50,-332.50,1,94.496,
01/01/2000,01:25:06.74,19.52,-61.49,-991.74,122.50,-708.75,-297.50,1,94.501,
01/01/2000,01:25:06.75,19.52,-61.49,-991.74,140.0,-638.75,-262.50,1,94.505,
01/01/2000,01:25:06.76,19.52,-61.49,-991.74,201.25,-743.75,-218.75,1,94.510,
01/01/2000,01:25:06.77,19.52,-61.49,-991.86,236.25,-761.25,-358.75,1,94.435,
01/01/2000,01:25:06.78,19.40,-61.49,-991.86,140.0,-647.50,-315.0,1,94.440,
01/01/2000,01:25:06.79,19.52,-61.37,-991.86,122.50,-708.75,-402.50,1,94.444,
01/01/2000,01:25:06.80,19.52,-61.37,-991.98,288.75,-638.75,-262.50,1,94.449,
01/01/2000,01:25:06.81,19.52,-61.49,-991.98,131.25,-603.75,-323.75,1,94.454,
01/01/2000,01:25:06.82,19.40,-61.61,-991.98,52.50,-673.75,-332.50,1,94.458,
01/01/2000,01:25:06.84,19.64,-61.61,-992.10,105.0,-726.25,-428.75,1,94.463,
01/01/2000,01:25:06.85,19.64,-61.49,-992.23,35.0,-735.0,-315.0,1,94.468,
01/01/2000,01:25:06.86,19.52,-61.49,-992.23,245.0,-603.75,-323.75,1,94.472,
01/01/2000,01:25:06.87,19.52,-61.37,-992.10,140.0,-691.25,-358.75,1,94.477,
01/01/2000,01:25:06.88,19.52,-61.49,-992.10,105.0,-796.25,-358.75,1,94.482,
01/01/2000,01:25:06.89,19.64,-61.49,-992.10,43.75,-822.50,-306.25,1,94.486,
01/01/2000,01:25:06.90,19.52,-61.61,-992.35,201.25,-778.75,-297.50,1,94.491,
01/01/2000,01:25:06.91,19.52,-61.49,-992.23,122.50,-682.50,-341.25,1,94.495,
01/01/2000,01:25:06.92,19.40,-61.49,-992.10,87.50,-560.0,-332.50,1,94.500,
01/01/2000,01:25:06.93,19.52,-61.49,-992.23,105.0,-726.25,-332.50,1,94.505,
01/01/2000,01:25:06.94,19.52,-61.37,-992.10,70.0,-717.50,-323.75,1,94.509,
01/01/2000,01:25:06.95,19.52,-61.37,-992.10,131.25,-673.75,-323.75,1,94.514,
01/01/2000,01:25:06.96,19.52,-61.37,-991.86,157.50,-770.0,-376.25,1,94.518,
01/01/2000,01:25:06.97,19.52,-61.24,-991.86,183.75,-717.50,-332.50,1,94.523,
01/01/2000,01:25:06.98,19.52,-61.24,-992.10,236.25,-700.0,-323.75,1,94.449,
01/01/2000,01:25:06.99,19.52,-61.24,-992.10,236.25,-752.50,-367.50,1,94.454,
01/01/2000,01:25:07.00,19.52,-61.24,-992.10,192.50,-638.75,-341.25,1,94.458,
01/01/2000,01:25:07.01,19.52,-61.37,-992.10,297.50,-752.50,-341.25,1,94.463,
01/01/2000,01:25:07.02,19.52,-61.37,-992.10,148.75,-708.75,-332.50,1,94.467,
01/01/2000,01:25:07.04,19.52,-61.49,-992.10,183.75,-568.75,-385.0,1,94.472,
01/01/2000,01:25:07.05,19.64,-61.37,-991.98,227.50,-726.25,-306.25,1,94.477,
01/01/2000,01:25:07.06,19.52,-61.24,-991.86,183.75,-665.0,-376.25,1,94.481,
01/01/2000,01:25:07.07,19.52,-61.24,-991.98,183.75,-726.25,-245.0,1,94.486,
01/01/2000,01:25:07.08,19.76,-61.24,-992.23,131.25,-708.75,-437.50,1,94.490,
01/01/2000,01:25:07.09,19.76,-61.24,-992.10,96.25,-656.25,-341.25,1,94.495,
01/01/2000,01:25:07.10,19.64,-61.24,-992.23,253.75,-656.25,-402.50,1,94.499,
01/01/2000,01:25:07.11,19.64,-61.24,-992.10,157.50,-743.75,-350.0,1,94.504,
01/01/2000,01:25:07.12,19.52,-61.24,-992.10,201.25,-647.50,-420.0,1,94.431,
01/01/2000,01:25:07.13,19.52,-61.12,-992.10,210.0,-665.0,-341.25,1,94.435,
01/01/2000,01:25:07.14,19.52,-61.12,-991.98,210.0,-595.0,-358.75,1,94.440,
01/01/2000,01:25:07.15,19.52,-61.12,-991.86,280.0,-638.75,-341.25,1,94.444,
01/01/2000,01:25:07.16,19.76,-61.24,-991.98,218.75,-682.50,-332.50,1,94.449,
01/01/2000,01:25:07.18,19.52,-61.24,-991.98,70.0,-621.25,-271.25,1,94.454,
01/01/2000,01:25:07.19,19.52,-61.24,-991.98,236.25,-691.25,-306.25,1,94.458,
01/01/2000,01:25:07.20,19.52,-61.24,-992.10,8.75,-638.75,-385.0,1,94.463,
01/01/2000,01:25:07.21,19.52,-61.24,-992.10,183.75,-665.0,-358.75,1,94.467,
01/01/2000,01:25:07.22,19.52,-61.37,-992.10,148.75,-752.50,-341.25,1,94.472,
01/01/2000,01:25:07.23,19.52,-61.37,-991.98,201.25,-691.25,-393.75,1,94.476,
01/01/2000,01:25:07.24,19.52,-61.49,-991.98,192.50,-638.75,-288.75,1,94.481,
01/01/2000,01:25:07.25,19.40,-61.37,-991.86,262.50,-656.25,-350.0,1,94.485,
01/01/2000,01:25:07.26,19.40,-61.37,-991.86,122.50,-822.50,-350.0,1,94.489,
01/01/2000,01:25:07.27,19.40,-61.37,-991.74,192.50,-568.75,-367.50,1,94.494,
01/01/2000,01:25:07.28,19.52,-61.37,-991.74,210.0,-621.25,-420.0,1,94.498,
01/01/2000,01:25:07.29,19.64,-61.24,-991.98,140.0,-691.25,-402.50,1,94.503,
01/01/2000,01:25:07.30,19.64,-61.24,-991.98,271.25,-735.0,-393.75,1,94.507,
01/01/2000,01:25:07.31,19.64,-61.24,-991.98,227.50,-743.75,-306.25,1,94.512,
01/01/2000,01:25:07.32,19.64,-61.24,-991.98,148.75,-673.75,-271.25,1,94.516,
01/01/2000,01:25:07.34,19.64,-61.12,-991.86,148.75,-638.75,-315.0,1,94.444,
01/01/2000,01:25:07.35,19.64,-61.24,-991.86,183.75,-717.50,-393.75,1,94.449,
01/01/2000,01:25:07.36,19.64,-61.0,-991.86,245.0,-726.25,-393.75,1,94.453,
01/01/2000,01:25:07.37,19.52,-61.0,-991.98,148.75,-665.0,-288.75,1,94.458,
01/01/2000,01:25:07.38,19.76,-61.0,-992.10,113.75,-735.0,-323.75,1,94.462,
01/01/2000,01:25:07.39,19.76,-61.12,-992.10,166.25,-726.25,-341.25,1,94.467,
01/01/2000,01:25:07.40,19.76,-61.12,-991.98,183.75,-708.75,-350.0,1,94.471,
01/01/2000,01:25:07.41,19.64,-61.12,-991.86,157.50,-691.25,-332.50,1,94.476,
01/01/2000,01:25:07.42,19.52,-61.12,-992.10,96.25,-717.50,-315.0,1,94.480,
01/01/2000,01:25:07.43,19.52,-61.12,-992.10,271.25,-717.50,-455.0,1,94.484,
01/01/2000,01:25:07.44,19.52,-61.0,-992.10,87.50,-752.50,-358.75,1,94.489,
01/01/2000,01:25:07.45,19.52,-61.0,-992.10,183.75,-752.50,-350.0,1,94.493,
01/01/2000,01:25:07.46,19.64,-61.24,-991.98,131.25,-717.50,-341.25,1,94.498,
01/01/2000,01:25:07.47,19.52,-61.12,-992.10,192.50,-612.50,-376.25,1,94.427,
01/01/2000,01:25:07.48,19.52,-61.12,-991.98,236.25,-708.75,-323.75,1,94.431,
01/01/2000,01:25:07.49,19.64,-61.12,-991.98,148.75,-691.25,-297.50,1,94.436,
01/01/2000,01:25:07.50,19.64,-61.0,-991.98,105.0,-743.75,-280.0,1,94.440,
01/01/2000,01:25:07.51,19.52,-61.0,-991.86,192.50,-560.0,-306.25,1,94.444,
01/01/2000,01:25:07.52,19.52,-61.12,-991.98,306.25,-656.25,-306.25,1,94.449,
01/01/2000,01:25:07.53,19.40,-61.24,-992.10,323.75,-656.25,-367.50,1,94.453,
01/01/2000,01:25:07.55,19.52,-61.37,-992.10,236.25,-708.75,-455.0,1,94.458,
01/01/2000,01:25:07.56,19.52,-61.24,-992.10,166.25,-735.0,-315.0,1,94.462,
01/01/2000,01:25:07.57,19.52,-61.24,-991.86,157.50,-621.25,-323.75,1,94.466,
01/01/2000,01:25:07.58,19.28,-61.12,-991.86,236.25,-586.25,-367.50,1,94.471,
01/01/2000,01:25:07.59,19.52,-61.24,-991.98,96.25,-691.25,-393.75,1,94.475,
01/01/2000,01:25:07.60,19.52,-61.24,-992.10,148.75,-726.25,-437.50,1,94.479,
01/01/2000,01:25:07.61,19.52,-61.12,-991.74,43.75,-822.50,-437.50,1,94.484,
01/01/2000,01:25:07.62,19.40,-61.12,-991.74,183.75,-665.0,-498.75,1,94.488,
01/01/2000,01:25:07.63,19.28,-61.12,-991.86,210.0,-726.25,-332.50,1,94.493,
01/01/2000,01:25:07.64,19.40,-61.12,-991.86,105.0,-778.75,-385.0,1,94.497,
01/01/2000,01:25:07.65,19.52,-61.24,-991.86,175.0,-542.50,-350.0,1,94.501,
01/01/2000,01:25:07.66,19.40,-61.24,-991.74,192.50,-638.75,-376.25,1,94.431,
01/01/2000,01:25:07.67,19.52,-61.24,-991.74,201.25,-700.0,-315.0,1,94.510,
01/01/2000,01:25:07.69,19.52,-61.0,-991.86,61.25,-735.0,-323.75,1,94.440,
01/01/2000,01:25:07.70,19.64,-61.12,-991.86,131.25,-647.50,-350.0,1,94.444,
01/01/2000,01:25:07.71,19.52,-61.12,-991.74,78.75,-778.75,-271.25,1,94.449,
01/01/2000,01:25:07.72,19.64,-61.24,-991.62,122.50,-708.75,-341.25,1,94.453,
01/01/2000,01:25:07.73,19.76,-61.12,-991.62,87.50,-752.50,-420.0,1,94.457,
01/01/2000,01:25:07.74,19.76,-61.12,-991.62,201.25,-691.25,-288.75,1,94.462,
01/01/2000,01:25:07.75,19.52,-61.0,-991.62,376.25,-770.0,-393.75,1,94.466,
01/01/2000,01:25:07.76,19.52,-61.0,-991.62,262.50,-665.0,-367.50,1,94.397,
01/01/2000,01:25:07.77,19.64,-61.0,-991.74,140.0,-603.75,-402.50,1,94.401,
01/01/2000,01:25:07.78,19.76,-61.0,-991.74,148.75,-743.75,-306.25,1,94.406,
01/01/2000,01:25:07.79,19.76,-61.12,-991.62,280.0,-735.0,-385.0,1,94.410,
01/01/2000,01:25:07.80,19.76,-61.24,-991.62,113.75,-743.75,-262.50,1,94.414,
01/01/2000,01:25:07.81,19.64,-61.24,-991.62,227.50,-743.75,-323.75,1,94.419,
01/01/2000,01:25:07.82,19.64,-61.12,-991.62,183.75,-708.75,-350.0,1,94.423,
01/01/2000,01:25:07.83,19.76,-61.0,-991.62,183.75,-691.25,-402.50,1,94.427,
01/01/2000,01:25:07.84,19.76,-61.12,-991.62,78.75,-665.0,-280.0,1,94.432,
01/01/2000,01:25:07.85,19.52,-61.24,-991.37,218.75,-665.0,-367.50,1,94.436,
01/01/2000,01:25:07.86,19.52,-61.37,-991.37,105.0,-708.75,-428.75,1,94.440,
01/01/2000,01:25:07.87,19.28,-61.24,-991.37,245.0,-656.25,-306.25,1,94.444,
01/01/2000,01:25:07.88,19.28,-61.0,-991.49,201.25,-735.0,-271.25,1,94.449,
01/01/2000,01:25:07.90,19.40,-61.0,-991.49,411.25,-656.25,-288.75,1,94.453,
01/01/2000,01:25:07.91,19.52,-60.88,-991.49,113.75,-708.75,-271.25,1,94.457,
01/01/2000,01:25:07.92,19.64,-61.12,-991.49,280.0,-708.75,-420.0,1,94.462,
01/01/2000,01:25:07.93,19.52,-61.12,-991.49,201.25,-647.50,-358.75,1,94.466,
01/01/2000,01:25:07.94,19.52,-61.24,-991.62,192.50,-726.25,-376.25,1,94.470,
01/01/2000,01:25:07.95,19.52,-61.24,-991.62,157.50,-726.25,-297.50,1,94.474,
01/01/2000,01:25:07.96,19.52,-61.24,-991.62,96.25,-682.50,-245.0,1,94.479,
01/01/2000,01:25:07.97,19.52,-61.24,-991.49,96.25,-612.50,-376.25,1,94.410,
01/01/2000,01:25:07.98,19.64,-61.24,-991.62,113.75,-673.75,-358.75,1,94.415,
01/01/2000,01:25:07.99,19.76,-61.24,-991.74,157.50,-735.0,-280.0,1,94.419,
01/01/2000,01:25:08.00,19.64,-61.24,-991.62,201.25,-638.75,-306.25,1,94.423,
01/01/2000,01:25:08.01,19.52,-61.12,-991.49,192.50,-630.0,-437.50,1,94.427,
01/01/2000,01:25:08.02,19.52,-61.0,-991.49,26.25,-665.0,-367.50,1,94.432,
01/01/2000,01:25:08.04,19.52,-61.0,-991.62,35.0,-726.25,-446.25,1,94.436,
01/01/2000,01:25:08.05,19.40,-60.88,-991.62,122.50,-665.0,-297.50,1,94.440,
01/01/2000,01:25:08.06,19.28,-61.0,-991.62,131.25,-656.25,-367.50,1,94.444,
01/01/2000,01:25:08.07,19.40,-61.0,-991.62,131.25,-691.25,-288.75,1,94.449,
01/01/2000,01:25:08.08,19.40,-61.0,-991.74,175.0,-743.75,-350.0,1,94.453,
01/01/2000,01:25:08.09,19.40,-61.0,-991.86,201.25,-735.0,-315.0,1,94.457,
01/01/2000,01:25:08.10,19.52,-61.0,-991.74,175.0,-743.75,-350.0,1,94.461,
01/01/2000,01:25:08.11,19.52,-61.12,-991.62,175.0,-673.75,-262.50,1,94.466,
01/01/2000,01:25:08.12,19.40,-61.24,-991.62,271.25,-708.75,-376.25,1,94.470,
01/01/2000,01:25:08.13,19.28,-61.24,-991.86,78.75,-778.75,-271.25,1,94.474,
01/01/2000,01:25:08.14,19.28,-61.24,-991.98,78.75,-656.25,-315.0,1,94.478,
01/01/2000,01:25:08.15,19.28,-61.12,-991.86,148.75,-665.0,-271.25,1,94.482,
01/01/2000,01:25:08.16,19.28,-61.24,-991.86,131.25,-717.50,-262.50,1,94.486,
01/01/2000,01:25:08.17,19.28,-61.24,-991.74,148.75,-787.50,-315.0,1,94.491,
01/01/2000,01:25:08.18,19.40,-61.37,-991.74,210.0,-665.0,-315.0,1,94.424,
01/01/2000,01:25:08.19,19.52,-61.24,-991.74,166.25,-770.0,-332.50,1,94.428,
01/01/2000,01:25:08.21,19.40,-61.24,-991.86,148.75,-682.50,-315.0,1,94.432,
01/01/2000,01:25:08.22,19.28,-61.24,-991.86,210.0,-673.75,-376.25,1,94.436,
01/01/2000,01:25:08.23,19.28,-61.24,-991.86,113.75,-735.0,-323.75,1,94.440,
01/01/2000,01:25:08.24,19.40,-61.12,-991.86,105.0,-656.25,-306.25,1,94.444,
01/01/2000,01:25:08.25,19.52,-61.0,-991.62,-17.50,-717.50,-402.50,1,94.449,
01/01/2000,01:25:08.26,19.40,-61.24,-991.74,166.25,-743.75,-420.0,1,94.453,
01/01/2000,01:25:08.27,19.40,-61.24,-991.86,183.75,-813.75,-367.50,1,94.457,
01/01/2000,01:25:08.28,19.28,-61.24,-991.86,175.0,-603.75,-376.25,1,94.461,
01/01/2000,01:25:08.29,19.28,-61.12,-991.86,87.50,-542.50,-358.75,1,94.465,
01/01/2000,01:25:08.30,19.40,-61.12,-991.86,131.25,-621.25,-332.50,1,94.469,
01/01/2000,01:25:08.31,19.40,-61.12,-991.62,140.0,-717.50,-306.25,1,94.473,
01/01/2000,01:25:08.32,19.40,-61.24,-991.49,288.75,-735.0,-376.25,1,94.407,
01/01/2000,01:25:08.33,19.40,-61.12,-991.62,140.0,-708.75,-262.50,1,94.482,
01/01/2000,01:25:08.34,19.40,-61.0,-991.86,113.75,-787.50,-341.25,1,94.415,
01/01/2000,01:25:08.35,19.40,-60.76,-991.74,87.50,-603.75,-288.75,1,94.420,
01/01/2000,01:25:08.36,19.40,-60.76,-991.62,157.50,-743.75,-350.0,1,94.424,
01/01/2000,01:25:08.37,19.28,-60.76,-991.62,140.0,-603.75,-367.50,1,94.428,
01/01/2000,01:25:08.38,19.40,-60.76,-991.62,122.50,-630.0,-393.75,1,94.432,
01/01/2000,01:25:08.40,19.52,-60.76,-991.62,-35.0,-743.75,-350.0,1,94.436,
01/01/2000,01:25:08.41,19.52,-61.0,-991.62,175.0,-778.75,-385.0,1,94.440,
01/01/2000,01:25:08.42,19.40,-61.0,-991.37,157.50,-743.75,-411.25,1,94.444,
01/01/2000,01:25:08.43,19.40,-61.0,-991.37,192.50,-778.75,-271.25,1,94.449,
01/01/2000,01:25:08.44,19.64,-60.88,-991.49,140.0,-700.0,-358.75,1,94.453,
01/01/2000,01:25:08.45,19.64,-61.0,-991.74,183.75,-673.75,-332.50,1,94.457,
01/01/2000,01:25:08.46,19.64,-61.12,-991.86,157.50,-542.50,-315.0,1,94.461,
01/01/2000,01:25:08.47,19.52,-61.24,-991.74,52.50,-630.0,-376.25,1,94.465,
01/01/2000,01:25:08.48,19.52,-61.0,-991.62,201.25,-638.75,-350.0,1,94.469,
01/01/2000,01:25:08.49,19.64,-61.0,-991.74,157.50,-656.25,-315.0,1,94.473,
01/01/2000,01:25:08.50,19.76,-61.24,-991.98,52.50,-647.50,-332.50,1,94.477,
01/01/2000,01:25:08.51,19.76,-61.24,-991.86,183.75,-700.0,-201.25,1,94.481,
01/01/2000,01:25:08.52,19.64,-61.37,-991.86,140.0,-621.25,-297.50,1,94.485,
01/01/2000,01:25:08.53,19.52,-61.49,-991.86,376.25,-612.50,-420.0,1,94.420,
01/01/2000,01:25:08.54,19.76,-61.24,-991.98,131.25,-577.50,-341.25,1,94.424,
01/01/2000,01:25:08.55,19.64,-61.24,-991.98,166.25,-840.0,-393.75,1,94.428,
01/01/2000,01:25:08.56,19.52,-61.24,-991.86,105.0,-682.50,-297.50,1,94.432,
01/01/2000,01:25:08.57,19.52,-61.37,-991.74,175.0,-665.0,-350.0,1,94.436,
01/01/2000,01:25:08.58,19.52,-61.24,-991.62,236.25,-691.25,-428.75,1,94.440,
01/01/2000,01:25:08.59,19.52,-61.12,-991.86,148.75,-700.0,-306.25,1,94.444,
01/01/2000,01:25:08.61,19.40,-61.24,-991.98,218.75,-621.25,-315.0,1,94.449,
01/01/2000,01:25:08.62,19.40,-61.12,-991.98,35.0,-638.75,-341.25,1,94.453,
01/01/2000,01:25:08.63,19.40,-61.24,-991.86,175.0,-726.25,-236.25,1,94.457,
01/01/2000,01:25:08.64,19.40,-61.12,-991.62,131.25,-700.0,-253.75,1,94.461,
01/01/2000,01:25:08.65,19.52,-61.24,-991.62,227.50,-612.50,-376.25,1,94.465,
01/01/2000,01:25:08.66,19.52,-61.0,-991.62,201.25,-682.50,-315.0,1,94.469,
01/01/2000,01:25:08.67,19.52,-61.12,-991.74,218.75,-656.25,-350.0,1,94.473,
01/01/2000,01:25:08.68,19.40,-61.0,-991.86,210.0,-700.0,-323.75,1,94.408,
01/01/2000,01:25:08.69,19.52,-61.12,-991.86,192.50,-726.25,-332.50,1,94.481,
01/01/2000,01:25:08.70,19.52,-61.24,-991.62,61.25,-638.75,-315.0,1,94.416,
01/01/2000,01:25:08.72,19.52,-61.12,-991.62,35.0,-770.0,-253.75,1,94.420,
01/01/2000,01:25:08.73,19.64,-61.24,-991.62,201.25,-656.25,-393.75,1,94.424,
01/01/2000,01:25:08.74,19.64,-61.24,-991.62,131.25,-673.75,-323.75,1,94.428,
01/01/2000,01:25:08.75,19.76,-61.24,-991.62,148.75,-691.25,-332.50,1,94.432,
01/01/2000,01:25:08.76,19.76,-61.12,-991.49,148.75,-673.75,-367.50,1,94.436,
01/01/2000,01:25:08.77,19.76,-61.24,-991.49,26.25,-691.25,-332.50,1,94.440,
01/01/2000,01:25:08.78,19.76,-61.24,-991.37,122.50,-691.25,-323.75,1,94.444,
01/01/2000,01:25:08.79,19.76,-61.37,-991.49,192.50,-708.75,-341.25,1,94.448,
01/01/2000,01:25:08.80,19.76,-61.37,-991.37,131.25,-630.0,-367.50,1,94.452,
01/01/2000,01:25:08.81,19.64,-61.37,-991.37,306.25,-630.0,-367.50,1,94.456,
01/01/2000,01:25:08.82,19.64,-61.24,-991.37,70.0,-752.50,-358.75,1,94.393,
01/01/2000,01:25:08.83,19.76,-61.24,-991.37,157.50,-708.75,-306.25,1,94.397,
01/01/2000,01:25:08.84,19.76,-61.49,-991.62,157.50,-691.25,-358.75,1,94.401,
01/01/2000,01:25:08.85,19.76,-61.61,-991.62,201.25,-735.0,-367.50,1,94.405,
01/01/2000,01:25:08.86,19.76,-61.49,-991.49,61.25,-638.75,-376.25,1,94.409,
01/01/2000,01:25:08.87,19.64,-61.37,-991.37,183.75,-700.0,-297.50,1,94.413,
01/01/2000,01:25:08.89,19.52,-61.24,-991.37,122.50,-743.75,-367.50,1,94.417,
01/01/2000,01:25:08.90,19.64,-61.24,-991.62,253.75,-673.75,-262.50,1,94.421,
01/01/2000,01:25:08.91,19.64,-61.24,-991.74,140.0,-708.75,-271.25,1,94.425,
01/01/2000,01:25:08.92,19.52,-61.37,-991.74,227.50,-673.75,-297.50,1,94.429,
01/01/2000,01:25:08.93,19.52,-61.24,-991.62,157.50,-735.0,-367.50,1,94.433,
01/01/2000,01:25:08.94,19.40,-61.24,-991.49,227.50,-595.0,-323.75,1,94.437,
01/01/2000,01:25:08.95,19.52,-61.24,-991.62,131.25,-700.0,-393.75,1,94.440,
01/01/2000,01:25:08.96,19.52,-61.37,-991.74,43.75,-656.25,-280.0,1,94.444,
01/01/2000,01:25:08.97,19.52,-61.49,-991.74,218.75,-630.0,-315.0,1,94.448,
01/01/2000,01:25:08.98,19.40,-61.49,-991.74,122.50,-647.50,-288.75,1,94.452,
01/01/2000,01:25:08.99,19.52,-61.37,-991.74,105.0,-717.50,-323.75,1,94.456,
01/01/2000,01:25:09.00,19.64,-61.24,-991.86,175.0,-673.75,-315.0,1,94.460,
01/01/2000,01:25:09.01,19.52,-61.37,-991.86,70.0,-673.75,-271.25,1,94.464,
01/01/2000,01:25:09.02,19.64,-61.24,-991.98,262.50,-726.25,-306.25,1,94.468,
01/01/2000,01:25:09.04,19.64,-61.24,-991.98,280.0,-717.50,-376.25,1,94.405,
01/01/2000,01:25:09.05,19.76,-61.12,-991.86,122.50,-673.75,-131.25,1,94.409,
01/01/2000,01:25:09.06,19.64,-61.24,-991.86,175.0,-656.25,-367.50,1,94.413,
01/01/2000,01:25:09.07,19.64,-61.24,-991.86,78.75,-726.25,-271.25,1,94.417,
01/01/2000,01:25:09.08,19.64,-61.24,-991.86,367.50,-787.50,-280.0,1,94.421,
01/01/2000,01:25:09.09,19.64,-61.12,-991.86,148.75,-542.50,-253.75,1,94.425,
01/01/2000,01:25:09.10,19.64,-61.24,-991.74,210.0,-805.0,-297.50,1,94.429,
01/01/2000,01:25:09.11,19.64,-61.24,-991.62,131.25,-857.50,-332.50,1,94.433,
01/01/2000,01:25:09.12,19.64,-61.24,-991.62,192.50,-647.50,-385.0,1,94.437,
01/01/2000,01:25:09.13,19.52,-61.24,-991.86,210.0,-682.50,-358.75,1,94.441,
01/01/2000,01:25:09.14,19.52,-61.12,-992.10,78.75,-700.0,-437.50,1,94.444,
01/01/2000,01:25:09.15,19.52,-61.12,-992.10,218.75,-682.50,-271.25,1,94.448,
01/01/2000,01:25:09.16,19.52,-61.24,-991.98,175.0,-691.25,-227.50,1,94.452,
01/01/2000,01:25:09.17,19.40,-61.24,-991.74,131.25,-743.75,-376.25,1,94.390,
01/01/2000,01:25:09.18,19.28,-61.24,-991.74,122.50,-717.50,-288.75,1,94.394,
01/01/2000,01:25:09.19,19.52,-61.24,-991.86,166.25,-656.25,-358.75,1,94.398,
01/01/2000,01:25:09.20,19.52,-61.24,-992.10,148.75,-770.0,-323.75,1,94.402,
01/01/2000,01:25:09.21,19.52,-61.24,-992.10,122.50,-743.75,-332.50,1,94.406,
01/01/2000,01:25:09.23,19.52,-61.24,-991.86,210.0,-787.50,-385.0,1,94.410,
01/01/2000,01:25:09.24,19.64,-61.24,-991.62,315.0,-691.25,-367.50,1,94.413,
01/01/2000,01:25:09.25,19.52,-61.12,-991.74,105.0,-691.25,-446.25,1,94.417,
01/01/2000,01:25:09.26,19.76,-61.24,-991.86,280.0,-770.0,-358.75,1,94.421,
01/01/2000,01:25:09.27,19.64,-61.0,-991.86,8.75,-770.0,-253.75,1,94.425,
01/01/2000,01:25:09.28,19.64,-61.12,-991.86,192.50,-691.25,-402.50,1,94.429,
01/01/2000,01:25:09.29,19.52,-61.12,-991.62,87.50,-665.0,-323.75,1,94.433,
01/01/2000,01:25:09.30,19.52,-61.37,-991.62,131.25,-700.0,-393.75,1,94.437,
01/01/2000,01:25:09.31,19.64,-61.24,-991.74,52.50,-577.50,-341.25,1,94.441,
01/01/2000,01:25:09.32,19.64,-61.24,-991.86,192.50,-761.25,-341.25,1,94.379,
01/01/2000,01:25:09.33,19.64,-61.24,-991.74,218.75,-805.0,-288.75,1,94.448,
01/01/2000,01:25:09.34,19.52,-61.24,-991.62,140.0,-691.25,-350.0,1,94.387,
01/01/2000,01:25:09.35,19.64,-61.12,-991.86,148.75,-726.25,-271.25,1,94.391,
01/01/2000,01:25:09.36,19.76,-61.24,-991.86,253.75,-638.75,-358.75,1,94.394,
01/01/2000,01:25:09.37,19.76,-61.24,-992.10,87.50,-735.0,-376.25,1,94.398,
01/01/2000,01:25:09.38,19.76,-61.37,-991.98,78.75,-726.25,-341.25,1,94.402,
01/01/2000,01:25:09.39,19.64,-61.37,-991.86,183.75,-647.50,-332.50,1,94.406,
01/01/2000,01:25:09.40,19.52,-61.37,-991.86,236.25,-778.75,-367.50,1,94.410,
01/01/2000,01:25:09.41,19.52,-61.12,-991.86,78.75,-735.0,-280.0,1,94.414,
01/01/2000,01:25:09.42,19.52,-61.37,-991.74,271.25,-726.25,-402.50,1,94.418,
01/01/2000,01:25:09.43,19.28,-61.24,-991.62,113.75,-743.75,-350.0,1,94.421,
01/01/2000,01:25:09.45,19.52,-61.24,-991.37,140.0,-647.50,-367.50,1,94.425,
01/01/2000,01:25:09.46,19.52,-61.12,-991.49,131.25,-621.25,-350.0,1,94.429,
01/01/2000,01:25:09.47,19.76,-61.0,-991.49,96.25,-691.25,-315.0,1,94.433,
01/01/2000,01:25:09.48,19.52,-61.12,-991.37,140.0,-682.50,-306.25,1,94.437,
01/01/2000,01:25:09.49,19.28,-61.24,-991.37,105.0,-630.0,-420.0,1,94.441,
01/01/2000,01:25:09.50,19.28,-61.24,-991.37,183.75,-673.75,-402.50,1,94.444,
01/01/2000,01:25:09.51,19.52,-61.24,-991.37,148.75,-568.75,-350.0,1,94.448,
01/01/2000,01:25:09.52,19.64,-61.12,-991.62,262.50,-717.50,-288.75,1,94.452,
01/01/2000,01:25:09.53,19.52,-61.12,-991.62,175.0,-647.50,-253.75,1,94.456,
01/01/2000,01:25:09.54,19.40,-61.24,-991.74,175.0,-770.0,-411.25,1,94.460,
01/01/2000,01:25:09.55,19.52,-61.24,-991.86,122.50,-691.25,-402.50,1,94.463,
01/01/2000,01:25:09.56,19.64,-61.24,-991.86,253.75,-708.75,-306.25,1,94.467,
01/01/2000,01:25:09.57,19.64,-61.12,-991.86,148.75,-691.25,-376.25,1,94.471,
01/01/2000,01:25:09.58,19.52,-61.24,-991.62,157.50,-647.50,-376.25,1,94.475,
01/01/2000,01:25:09.60,19.64,-61.37,-991.86,87.50,-595.0,-323.75,1,94.414,
01/01/2000,01:25:09.61,19.76,-61.24,-992.23,140.0,-805.0,-367.50,1,94.418,
01/01/2000,01:25:09.62,19.76,-61.24,-992.23,183.75,-603.75,-350.0,1,94.422,
01/01/2000,01:25:09.63,19.64,-61.24,-991.86,52.50,-717.50,-288.75,1,94.426,
01/01/2000,01:25:09.64,19.64,-61.24,-991.74,113.75,-735.0,-393.75,1,94.429,
01/01/2000,01:25:09.65,19.40,-61.24,-991.86,17.50,-612.50,-341.25,1,94.433,
01/01/2000,01:25:09.66,19.40,-61.37,-992.10,210.0,-700.0,-288.75,1,94.437,
01/01/2000,01:25:09.67,19.40,-61.24,-992.10,113.75,-612.50,-306.25,1,94.441,
01/01/2000,01:25:09.68,19.28,-61.24,-991.86,148.75,-708.75,-393.75,1,94.444,
01/01/2000,01:25:09.69,19.40,-61.24,-991.86,105.0,-630.0,-288.75,1,94.448,
01/01/2000,01:25:09.70,19.52,-61.24,-991.86,236.25,-673.75,-367.50,1,94.452,
01/01/2000,01:25:09.71,19.76,-61.24,-992.10,78.75,-778.75,-332.50,1,94.456,
01/01/2000,01:25:09.72,19.64,-61.37,-992.10,157.50,-656.25,-428.75,1,94.459,
01/01/2000,01:25:09.74,19.52,-61.0,-991.62,26.25,-673.75,-271.25,1,94.399,
01/01/2000,01:25:09.75,19.52,-61.0,-991.62,157.50,-752.50,-323.75,1,94.403,
01/01/2000,01:25:09.76,19.52,-61.12,-991.74,148.75,-700.0,-280.0,1,94.407,
01/01/2000,01:25:09.77,19.52,-61.24,-991.86,87.50,-813.75,-306.25,1,94.411,
01/01/2000,01:25:09.78,19.40,-61.24,-991.74,218.75,-586.25,-306.25,1,94.415,
01/01/2000,01:25:09.79,19.40,-61.24,-991.74,210.0,-603.75,-411.25,1,94.418,
01/01/2000,01:25:09.80,19.52,-61.24,-991.74,78.75,-708.75,-393.75,1,94.422,
01/01/2000,01:25:09.81,19.40,-61.24,-991.86,148.75,-700.0,-323.75,1,94.426,
01/01/2000,01:25:09.82,19.40,-61.37,-991.98,201.25,-735.0,-306.25,1,94.430,
01/01/2000,01:25:09.83,19.28,-61.49,-991.86,166.25,-708.75,-411.25,1,94.433,
01/01/2000,01:25:09.84,19.28,-61.24,-991.74,35.0,-717.50,-420.0,1,94.437,
01/01/2000,01:25:09.85,19.40,-61.24,-991.86,148.75,-691.25,-376.25,1,94.441,
01/01/2000,01:25:09.86,19.52,-61.12,-992.10,87.50,-735.0,-358.75,1,94.444,
01/01/2000,01:25:09.87,19.52,-61.12,-992.10,175.0,-708.75,-332.50,1,94.448,
01/01/2000,01:25:09.88,19.28,-61.24,-991.86,192.50,-630.0,-393.75,1,94.389,
01/01/2000,01:25:09.89,19.28,-61.24,-991.74,192.50,-752.50,-280.0,1,94.393,
01/01/2000,01:25:09.90,19.52,-61.24,-991.74,105.0,-656.25,-411.25,1,94.396,
01/01/2000,01:25:09.91,19.64,-61.12,-991.74,245.0,-691.25,-367.50,1,94.400,
01/01/2000,01:25:09.92,19.64,-61.12,-991.86,166.25,-656.25,-367.50,1,94.404,
01/01/2000,01:25:09.93,19.40,-61.12,-991.86,122.50,-638.75,-297.50,1,94.407,
01/01/2000,01:25:09.94,19.40,-61.12,-991.98,175.0,-735.0,-376.25,1,94.411,
01/01/2000,01:25:09.95,19.64,-61.0,-992.23,61.25,-656.25,-350.0,1,94.415,
01/01/2000,01:25:09.96,19.76,-61.0,-992.10,183.75,-700.0,-297.50,1,94.419,
01/01/2000,01:25:09.97,19.76,-61.24,-991.86,87.50,-560.0,-332.50,1,94.422,
01/01/2000,01:25:09.98,19.52,-61.37,-991.98,113.75,-621.25,-393.75,1,94.426,
01/01/2000,01:25:09.99,19.52,-61.37,-991.98,96.25,-717.50,-385.0,1,94.430,
01/01/2000,01:25:10.00,19.64,-61.24,-991.98,201.25,-630.0,-350.0,1,94.433,
01/01/2000,01:25:10.02,19.64,-61.24,-991.74,218.75,-787.50,-253.75,1,94.437,
01/01/2000,01:25:10.03,19.52,-61.37,-991.74,131.25,-787.50,-428.75,1,94.441,
01/01/2000,01:25:10.04,19.64,-61.61,-991.86,105.0,-568.75,-376.25,1,94.444,
01/01/2000,01:25:10.05,19.52,-61.61,-991.98,148.75,-708.75,-323.75,1,94.448,
01/01/2000,01:25:10.06,19.64,-61.61,-992.23,192.50,-700.0,-323.75,1,94.452,
01/01/2000,01:25:10.07,19.76,-61.49,-992.10,183.75,-726.25,-288.75,1,94.455,
01/01/2000,01:25:10.08,19.64,-61.49,-991.86,288.75,-743.75,-297.50,1,94.459,
01/01/2000,01:25:10.09,19.64,-61.37,-991.86,78.75,-708.75,-367.50,1,94.463,
01/01/2000,01:25:10.10,19.52,-61.49,-992.10,61.25,-630.0,-341.25,1,94.466,
01/01/2000,01:25:10.11,19.52,-61.49,-991.98,227.50,-770.0,-376.25,1,94.408,
01/01/2000,01:25:10.12,19.52,-61.37,-992.10,227.50,-665.0,-367.50,1,94.474,
01/01/2000,01:25:10.13,19.64,-61.37,-991.98,245.0,-726.25,-376.25,1,94.415,
01/01/2000,01:25:10.14,19.52,-61.37,-992.10,201.25,-778.75,-350.0,1,94.419,
01/01/2000,01:25:10.16,19.52,-61.24,-992.23,131.25,-665.0,-350.0,1,94.423,
01/01/2000,01:25:10.17,19.64,-61.37,-992.23,175.0,-708.75,-420.0,1,94.426,
01/01/2000,01:25:10.18,19.64,-61.24,-992.10,140.0,-700.0,-367.50,1,94.430,
01/01/2000,01:25:10.19,19.52,-61.49,-992.10,122.50,-735.0,-446.25,1,94.434,
01/01/2000,01:25:10.20,19.40,-61.24,-992.10,210.0,-682.50,-332.50,1,94.437,
01/01/2000,01:25:10.21,19.52,-61.37,-992.10,245.0,-665.0,-288.75,1,94.441,
01/01/2000,01:25:10.22,19.52,-61.24,-992.23,8.75,-673.75,-367.50,1,94.444,
01/01/2000,01:25:10.23,19.52,-61.37,-992.10,105.0,-665.0,-341.25,1,94.448,
01/01/2000,01:25:10.24,19.52,-61.37,-991.86,148.75,-787.50,-350.0,1,94.390,
01/01/2000,01:25:10.25,19.28,-61.37,-991.74,148.75,-691.25,-376.25,1,94.394,
01/01/2000,01:25:10.26,19.28,-61.24,-991.86,175.0,-708.75,-376.25,1,94.397,
01/01/2000,01:25:10.27,19.28,-61.0,-991.98,96.25,-603.75,-280.0,1,94.401,
01/01/2000,01:25:10.29,19.52,-61.24,-992.23,148.75,-743.75,-341.25,1,94.405,
01/01/2000,01:25:10.30,19.28,-61.37,-992.23,253.75,-700.0,-332.50,1,94.408,
01/01/2000,01:25:10.31,19.28,-61.49,-992.10,78.75,-647.50,-367.50,1,94.412,
01/01/2000,01:25:10.32,19.28,-61.49,-992.10,131.25,-813.75,-280.0,1,94.416,
01/01/2000,01:25:10.33,19.40,-61.37,-992.10,122.50,-840.0,-350.0,1,94.419,
01/01/2000,01:25:10.34,19.28,-61.37,-992.10,192.50,-726.25,-323.75,1,94.423,
01/01/2000,01:25:10.35,19.28,-61.49,-992.10,8.75,-770.0,-323.75,1,94.426,
01/01/2000,01:25:10.36,19.15,-61.61,-992.10,96.25,-708.75,-367.50,1,94.430,
01/01/2000,01:25:10.37,19.28,-61.61,-992.35,96.25,-638.75,-323.75,1,94.434,
01/01/2000,01:25:10.38,19.28,-61.49,-992.35,157.50,-647.50,-297.50,1,94.437,
01/01/2000,01:25:10.39,19.28,-61.49,-992.35,192.50,-848.75,-280.0,1,94.441,
01/01/2000,01:25:10.40,19.40,-61.49,-992.35,192.50,-735.0,-341.25,1,94.444,
01/01/2000,01:25:10.41,19.40,-61.61,-992.23,166.25,-752.50,-350.0,1,94.448,
01/01/2000,01:25:10.42,19.40,-61.49,-992.10,227.50,-726.25,-253.75,1,94.452,
01/01/2000,01:25:10.43,19.52,-61.49,-992.10,192.50,-691.25,-323.75,1,94.455,
01/01/2000,01:25:10.44,19.28,-61.49,-991.86,78.75,-691.25,-288.75,1,94.398,
01/01/2000,01:25:10.45,19.15,-61.37,-991.98,175.0,-656.25,-262.50,1,94.402,
01/01/2000,01:25:10.46,19.15,-61.49,-992.10,183.75,-726.25,-262.50,1,94.405,
01/01/2000,01:25:10.47,19.28,-61.37,-992.35,227.50,-708.75,-402.50,1,94.409,
01/01/2000,01:25:10.48,19.28,-61.37,-992.23,78.75,-717.50,-385.0,1,94.412,
01/01/2000,01:25:10.49,19.28,-61.24,-992.10,166.25,-682.50,-262.50,1,94.416,
01/01/2000,01:25:10.51,19.28,-61.37,-992.10,166.25,-691.25,-367.50,1,94.420,
01/01/2000,01:25:10.52,19.28,-61.49,-992.10,122.50,-656.25,-367.50,1,94.423,
01/01/2000,01:25:10.53,19.40,-61.49,-992.23,210.0,-621.25,-411.25,1,94.427,
01/01/2000,01:25:10.54,19.28,-61.49,-992.35,183.75,-630.0,-376.25,1,94.430,
01/01/2000,01:25:10.55,19.28,-61.49,-992.23,218.75,-752.50,-376.25,1,94.434,
01/01/2000,01:25:10.56,19.28,-61.61,-992.23,166.25,-656.25,-323.75,1,94.437,
01/01/2000,01:25:10.57,19.28,-61.61,-992.23,166.25,-481.25,-393.75,1,94.441,
01/01/2000,01:25:10.58,19.28,-61.49,-992.23,61.25,-708.75,-350.0,1,94.444,
01/01/2000,01:25:10.59,19.28,-61.61,-992.23,105.0,-595.0,-227.50,1,94.448,
01/01/2000,01:25:10.60,19.28,-61.73,-992.23,183.75,-586.25,-402.50,1,94.452,
01/01/2000,01:25:10.61,19.28,-61.73,-992.35,96.25,-796.25,-376.25,1,94.455,
01/01/2000,01:25:10.62,19.40,-61.73,-992.35,61.25,-595.0,-306.25,1,94.459,
01/01/2000,01:25:10.63,19.40,-61.73,-992.23,262.50,-708.75,-297.50,1,94.462,
01/01/2000,01:25:10.64,19.40,-61.85,-992.23,70.0,-682.50,-350.0,1,94.406,
01/01/2000,01:25:10.65,19.40,-61.98,-992.10,306.25,-700.0,-385.0,1,94.409,
01/01/2000,01:25:10.66,19.52,-61.98,-992.10,227.50,-673.75,-315.0,1,94.413,
01/01/2000,01:25:10.67,19.52,-61.85,-992.10,105.0,-752.50,-315.0,1,94.416,
01/01/2000,01:25:10.68,19.76,-61.73,-992.10,192.50,-665.0,-376.25,1,94.420,
01/01/2000,01:25:10.69,19.52,-61.73,-991.86,218.75,-708.75,-262.50,1,94.423,
01/01/2000,01:25:10.71,19.52,-61.98,-991.74,210.0,-822.50,-385.0,1,94.427,
01/01/2000,01:25:10.72,19.40,-61.73,-991.86,78.75,-813.75,-280.0,1,94.430,
01/01/2000,01:25:10.73,19.40,-61.73,-991.98,280.0,-761.25,-280.0,1,94.434,
01/01/2000,01:25:10.74,19.52,-61.61,-992.10,148.75,-708.75,-315.0,1,94.437,
01/01/2000,01:25:10.75,19.28,-61.73,-991.86,288.75,-743.75,-350.0,1,94.381,
01/01/2000,01:25:10.76,19.28,-61.73,-991.98,175.0,-621.25,-367.50,1,94.385,
01/01/2000,01:25:10.77,19.28,-61.61,-991.98,183.75,-665.0,-402.50,1,94.388,
01/01/2000,01:25:10.78,19.52,-61.37,-992.10,201.25,-630.0,-323.75,1,94.392,
01/01/2000,01:25:10.79,19.52,-61.37,-992.23,113.75,-743.75,-306.25,1,94.395,
01/01/2000,01:25:10.81,19.40,-61.49,-992.23,201.25,-708.75,-385.0,1,94.399,
01/01/2000,01:25:10.82,19.40,-61.49,-992.23,183.75,-778.75,-271.25,1,94.403,
01/01/2000,01:25:10.83,19.52,-61.49,-992.23,96.25,-752.50,-420.0,1,94.406,
01/01/2000,01:25:10.84,19.52,-61.49,-992.23,175.0,-708.75,-332.50,1,94.410,
01/01/2000,01:25:10.85,19.52,-61.24,-992.10,140.0,-682.50,-288.75,1,94.413,
01/01/2000,01:25:10.86,19.52,-61.24,-991.86,227.50,-682.50,-297.50,1,94.417,
01/01/2000,01:25:10.87,19.52,-61.37,-991.98,78.75,-630.0,-350.0,1,94.420,
01/01/2000,01:25:10.88,19.52,-61.49,-992.10,175.0,-735.0,-332.50,1,94.424,
01/01/2000,01:25:10.89,19.64,-61.24,-992.10,131.25,-761.25,-280.0,1,94.427,
01/01/2000,01:25:10.90,19.64,-61.37,-991.86,245.0,-595.0,-315.0,1,94.431,
01/01/2000,01:25:10.91,19.52,-61.37,-991.86,122.50,-708.75,-341.25,1,94.434,
01/01/2000,01:25:10.92,19.40,-61.37,-991.74,26.25,-682.50,-280.0,1,94.438,
01/01/2000,01:25:10.93,19.40,-61.24,-991.86,175.0,-647.50,-253.75,1,94.441,
01/01/2000,01:25:10.94,19.52,-61.24,-992.23,157.50,-726.25,-262.50,1,94.444,
01/01/2000,01:25:10.95,19.40,-61.37,-992.10,262.50,-735.0,-245.0,1,94.448,
01/01/2000,01:25:10.96,19.40,-61.49,-991.86,236.25,-682.50,-367.50,1,94.451,
01/01/2000,01:25:10.97,19.52,-61.49,-991.74,175.0,-647.50,-367.50,1,94.455,
01/01/2000,01:25:10.98,19.52,-61.49,-991.86,253.75,-726.25,-385.0,1,94.458,
01/01/2000,01:25:10.99,19.64,-61.49,-991.98,140.0,-673.75,-323.75,1,94.462,
01/01/2000,01:25:11.00,19.52,-61.61,-991.98,105.0,-673.75,-245.0,1,94.406,
01/01/2000,01:25:11.01,19.28,-61.49,-991.74,183.75,-787.50,-393.75,1,94.410,
01/01/2000,01:25:11.02,19.28,-61.49,-991.74,262.50,-700.0,-358.75,1,94.413,
01/01/2000,01:25:11.03,19.40,-61.49,-991.86,210.0,-770.0,-367.50,1,94.417,
01/01/2000,01:25:11.04,19.40,-61.37,-992.10,192.50,-726.25,-393.75,1,94.420,
01/01/2000,01:25:11.05,19.28,-61.37,-992.10,253.75,-752.50,-315.0,1,94.424,
01/01/2000,01:25:11.07,19.28,-61.37,-992.23,192.50,-717.50,-332.50,1,94.427,
01/01/2000,01:25:11.08,19.28,-61.37,-992.23,192.50,-647.50,-358.75,1,94.431,
01/01/2000,01:25:11.09,19.40,-61.24,-992.10,210.0,-726.25,-315.0,1,94.434,
01/01/2000,01:25:11.10,19.52,-61.37,-991.98,61.25,-700.0,-393.75,1,94.438,
01/01/2000,01:25:11.11,19.40,-61.37,-992.10,70.0,-752.50,-358.75,1,94.441,
01/01/2000,01:25:11.12,19.28,-61.49,-991.98,87.50,-673.75,-376.25,1,94.444,
01/01/2000,01:25:11.13,19.40,-61.37,-991.98,78.75,-717.50,-393.75,1,94.448,
01/01/2000,01:25:11.14,19.52,-61.37,-992.23,131.25,-612.50,-280.0,1,94.451,
01/01/2000,01:25:11.15,19.52,-61.49,-992.23,148.75,-586.25,-306.25,1,94.455,
01/01/2000,01:25:11.16,19.64,-61.49,-992.10,166.25,-665.0,-393.75,1,94.458,
01/01/2000,01:25:11.17,19.76,-61.37,-992.10,105.0,-656.25,-376.25,1,94.462,
01/01/2000,01:25:11.18,19.52,-61.49,-992.23,52.50,-717.50,-350.0,1,94.465,
01/01/2000,01:25:11.19,19.52,-61.24,-992.23,8.75,-708.75,-332.50,1,94.468,
01/01/2000,01:25:11.20,19.52,-61.37,-991.98,96.25,-700.0,-376.25,1,94.472,
01/01/2000,01:25:11.21,19.52,-61.37,-992.10,201.25,-761.25,-393.75,1,94.417,
01/01/2000,01:25:11.22,19.64,-61.49,-992.23,367.50,-831.25,-358.75,1,94.421,
01/01/2000,01:25:11.23,19.76,-61.49,-992.35,148.75,-656.25,-271.25,1,94.424,
01/01/2000,01:25:11.24,19.89,-61.49,-992.23,140.0,-577.50,-245.0,1,94.427,
01/01/2000,01:25:11.25,19.76,-61.49,-992.10,166.25,-595.0,-306.25,1,94.431,
01/01/2000,01:25:11.27,19.52,-61.61,-992.23,183.75,-603.75,-376.25,1,94.434,
01/01/2000,01:25:11.28,19.28,-61.61,-992.35,61.25,-691.25,-341.25,1,94.438,
01/01/2000,01:25:11.29,19.28,-61.49,-992.23,183.75,-700.0,-376.25,1,94.441,
01/01/2000,01:25:11.30,19.28,-61.49,-992.23,175.0,-647.50,-288.75,1,94.444,
01/01/2000,01:25:11.31,19.28,-61.37,-992.35,166.25,-673.75,-323.75,1,94.448,
01/01/2000,01:25:11.32,19.28,-61.37,-992.35,227.50,-586.25,-393.75,1,94.451,
01/01/2000,01:25:11.33,19.40,-61.37,-992.35,192.50,-717.50,-253.75,1,94.455,
01/01/2000,01:25:11.34,19.28,-61.37,-992.23,140.0,-665.0,-420.0,1,94.458,
01/01/2000,01:25:11.35,19.28,-61.24,-992.10,245.0,-665.0,-376.25,1,94.404,
01/01/2000,01:25:11.36,19.15,-61.12,-992.10,113.75,-638.75,-376.25,1,94.407,
01/01/2000,01:25:11.37,19.28,-61.0,-992.35,131.25,-665.0,-236.25,1,94.411,
01/01/2000,01:25:11.38,19.52,-61.24,-992.35,218.75,-700.0,-253.75,1,94.414,
01/01/2000,01:25:11.39,19.52,-61.37,-992.23,332.50,-673.75,-280.0,1,94.417,
01/01/2000,01:25:11.40,19.52,-61.49,-992.10,78.75,-647.50,-385.0,1,94.421,
01/01/2000,01:25:11.41,19.52,-61.37,-992.10,166.25,-691.25,-358.75,1,94.424,
01/01/2000,01:25:11.43,19.52,-61.24,-992.35,210.0,-770.0,-245.0,1,94.428,
01/01/2000,01:25:11.44,19.52,-61.24,-992.47,78.75,-743.75,-341.25,1,94.431,
01/01/2000,01:25:11.45,19.52,-61.24,-992.35,227.50,-691.25,-402.50,1,94.434,
01/01/2000,01:25:11.46,19.52,-61.24,-991.98,227.50,-761.25,-341.25,1,94.438,
01/01/2000,01:25:11.47,19.52,-61.37,-991.98,227.50,-682.50,-358.75,1,94.441,
01/01/2000,01:25:11.48,19.52,-61.37,-992.10,166.25,-708.75,-323.75,1,94.444,
01/01/2000,01:25:11.49,19.52,-61.24,-992.23,245.0,-673.75,-376.25,1,94.448,
01/01/2000,01:25:11.50,19.52,-61.0,-992.10,140.0,-743.75,-411.25,1,94.451,
01/01/2000,01:25:11.51,19.40,-61.12,-992.10,96.25,-630.0,-350.0,1,94.454,
01/01/2000,01:25:11.52,19.52,-61.12,-992.10,245.0,-682.50,-332.50,1,94.458,
01/01/2000,01:25:11.53,19.52,-61.24,-992.10,192.50,-647.50,-393.75,1,94.461,
01/01/2000,01:25:11.54,19.52,-61.24,-991.98,140.0,-665.0,-393.75,1,94.465,
01/01/2000,01:25:11.55,19.52,-61.12,-992.10,78.75,-682.50,-385.0,1,94.468,
01/01/2000,01:25:11.56,19.64,-60.76,-992.10,192.50,-726.25,-315.0,1,94.414,
01/01/2000,01:25:11.58,19.52,-60.88,-992.10,26.25,-805.0,-262.50,1,94.418,
01/01/2000,01:25:11.58,19.76,-61.0,-991.98,96.25,-700.0,-411.25,1,94.421,
01/01/2000,01:25:11.60,19.52,-61.24,-991.98,140.0,-726.25,-358.75,1,94.424,
01/01/2000,01:25:11.60,19.52,-61.24,-991.98,35.0,-638.75,-385.0,1,94.428,
01/01/2000,01:25:11.62,19.40,-61.24,-992.10,262.50,-691.25,-358.75,1,94.431,
01/01/2000,01:25:11.63,19.28,-61.0,-992.10,78.75,-682.50,-315.0,1,94.434,
01/01/2000,01:25:11.64,19.28,-60.88,-992.35,122.50,-770.0,-306.25,1,94.438,
01/01/2000,01:25:11.65,19.28,-61.0,-992.35,17.50,-647.50,-472.50,1,94.441,
