rtcDate,rtcTime,aX,aY,aZ,gX,gY,gZ,mX,mY,mZ,imuTemp,output_Hz
01/01/2000,00:19:35.47,141.11,-0.49,-980.47,0.50,-1.96,5.21,4.05,39.0,-3.15,29.95,0.0
01/01/2000,00:19:35.57,139.16,9.77,-950.20,-2.58,-2.63,-3.52,4.20,36.75,-4.05,29.99,20.0
01/01/2000,00:19:35.67,164.06,11.72,-986.82,-4.21,-13.90,0.73,4.50,38.85,-4.05,29.80,15.0
01/01/2000,00:19:35.77,145.51,-6.84,-968.75,-1.65,-9.45,0.56,6.45,36.75,-3.30,30.33,13.333
01/01/2000,00:19:35.87,-152.34,18.07,-570.31,25.42,-206.69,-6.25,6.15,37.65,-1.80,29.95,12.500
01/01/2000,00:19:35.97,192.87,40.04,-297.85,-0.56,-7.08,13.06,8.70,38.25,-3.60,29.80,12.0
01/01/2000,00:19:36.07,29.79,11.23,-985.35,-1.15,-3.79,1.44,9.0,38.25,-5.10,30.19,11.667
01/01/2000,00:19:36.17,32.23,17.09,-973.63,15.05,1.55,1.26,8.25,38.25,-4.65,30.09,11.429
01/01/2000,00:19:36.27,49.32,9.77,-970.70,4.22,1.50,0.83,9.15,37.20,-5.25,29.80,11.111
01/01/2000,00:19:36.37,68.36,-7.32,-1019.53,7.18,-20.73,-10.17,7.80,38.25,-3.15,29.90,10.989
01/01/2000,00:19:36.47,21.48,-6.35,-996.09,-4.72,-8.28,-2.0,9.75,39.75,-4.65,29.99,10.891
01/01/2000,00:19:36.58,-42.48,-21.97,-997.07,1.24,-4.54,-0.89,10.20,39.0,-3.60,29.99,10.811
01/01/2000,00:19:36.68,-43.95,-3.42,-932.13,-0.61,-5.33,-3.19,10.80,38.85,-3.30,29.95,10.744
01/01/2000,00:19:36.78,-2.93,-10.74,-985.35,-0.02,1.60,-3.32,10.95,39.45,-3.60,29.90,10.687
01/01/2000,00:19:36.88,35.64,-1.46,-1037.11,1.65,3.62,6.84,9.75,39.75,-4.65,29.95,10.638
01/01/2000,00:19:36.98,0.98,6.84,-982.91,-1.24,-0.79,-0.18,10.95,37.80,-3.60,29.66,10.596
01/01/2000,00:19:37.08,-13.18,8.30,-974.12,2.24,-1.23,1.10,10.05,39.15,-4.80,29.95,10.559
01/01/2000,00:19:37.18,-18.55,-22.95,-1016.11,-0.86,0.76,0.90,9.45,37.80,-4.65,30.09,10.526
01/01/2000,00:19:37.28,3.42,-16.11,-985.35,-0.18,1.44,1.38,9.45,37.80,-4.35,29.90,10.497
01/01/2000,00:19:37.38,6.35,-4.39,-983.89,-0.71,0.27,0.64,9.15,39.15,-4.05,29.99,10.471
01/01/2000,00:19:37.48,12.21,-8.30,-972.66,2.53,1.68,1.99,10.50,37.80,-5.85,30.19,10.448
01/01/2000,00:19:37.58,7.32,-25.88,-990.72,3.49,2.58,-0.85,9.60,37.65,-5.55,29.95,10.377
01/01/2000,00:19:37.68,-26.37,-0.98,-975.59,2.62,-2.31,2.18,9.0,37.05,-3.90,29.99,10.360
01/01/2000,00:19:37.79,12.70,-13.18,-999.02,-0.47,0.06,0.56,10.05,38.85,-4.05,30.19,10.345
01/01/2000,00:19:37.89,32.23,-5.86,-987.79,-0.32,-0.08,-0.94,9.60,38.85,-3.30,29.66,10.331
01/01/2000,00:19:37.99,5.37,-10.25,-973.14,0.22,-2.89,0.60,8.85,39.15,-4.05,29.99,10.317
01/01/2000,00:19:38.09,17.09,-12.70,-989.75,2.63,-0.51,-1.05,9.0,39.0,-3.15,29.95,10.305
01/01/2000,00:19:38.19,-0.49,-21.97,-979.49,0.60,1.04,-1.02,9.15,39.15,-4.50,29.95,10.294
01/01/2000,00:19:38.29,13.67,-7.81,-967.77,1.72,-2.51,-1.21,9.15,37.20,-3.30,30.19,10.284
01/01/2000,00:19:38.39,12.21,-11.72,-945.80,0.54,-0.05,0.79,11.55,37.95,-1.50,29.80,10.274
01/01/2000,00:19:38.49,17.58,-21.48,-963.87,7.33,-5.21,2.60,11.40,38.55,-2.70,29.99,10.265
01/01/2000,00:19:38.59,-1.95,-24.90,-994.14,0.65,-1.54,-1.76,9.15,38.85,-4.50,29.80,10.256
01/01/2000,00:19:38.69,27.83,5.86,-960.45,0.08,-1.66,-1.69,10.80,38.85,-4.80,30.19,10.217
01/01/2000,00:19:38.79,-7.81,-16.11,-987.30,-0.98,0.31,1.53,10.50,39.75,-5.10,29.80,10.210
01/01/2000,00:19:38.90,76.17,-20.51,-1075.20,-0.06,-0.40,-3.40,9.75,39.0,-5.10,30.19,10.204
01/01/2000,00:19:39.00,-0.49,-7.32,-962.40,-0.80,-2.80,-0.91,9.60,38.85,-3.75,30.19,10.198
01/01/2000,00:19:39.10,-9.28,-7.81,-972.66,2.04,-3.27,-0.20,8.85,40.80,-3.30,29.95,10.193
01/01/2000,00:19:39.20,-5.37,-3.91,-991.70,0.63,0.11,-0.87,10.50,39.75,-2.40,30.19,10.188
01/01/2000,00:19:39.30,-1.46,-8.79,-990.23,-0.86,0.90,-3.12,11.10,39.60,-2.55,30.33,10.183
01/01/2000,00:19:39.40,-16.11,-16.11,-991.21,-0.27,2.51,-0.51,12.15,39.45,-3.15,29.95,10.178
01/01/2000,00:19:39.50,-68.36,-47.85,-1017.58,-0.59,-3.08,-5.44,10.80,38.40,-4.50,29.95,10.174
01/01/2000,00:19:39.60,-12.70,-12.21,-995.12,-1.16,0.62,-2.98,10.50,41.85,-3.60,30.19,10.169
01/01/2000,00:19:39.70,4.39,-4.88,-981.93,2.34,-2.11,-0.94,9.45,40.20,-1.95,29.99,10.165
01/01/2000,00:19:39.80,-3.42,-16.11,-980.47,-0.35,1.24,1.03,10.20,40.20,-3.90,30.09,10.162
01/01/2000,00:19:39.90,-23.93,-3.42,-984.38,3.91,0.27,-0.32,10.95,40.95,-4.35,30.33,10.135
01/01/2000,00:19:40.00,-16.60,-8.79,-979.00,3.19,-0.95,0.50,10.05,38.85,-2.55,30.19,10.132
01/01/2000,00:19:40.11,-3.91,-16.60,-972.66,2.58,-1.31,1.65,9.75,40.65,-3.90,30.28,10.129
01/01/2000,00:19:40.21,-7.32,-2.93,-992.19,3.11,1.86,-0.83,12.30,40.80,-3.30,30.09,10.127
01/01/2000,00:19:40.31,-23.44,-10.25,-989.26,-1.76,-1.29,-1.0,10.80,40.80,-1.80,29.80,10.124
01/01/2000,00:19:40.41,-19.04,-20.51,-970.21,-1.68,0.79,-1.60,9.75,39.75,-4.65,29.80,10.121
01/01/2000,00:19:40.51,-27.34,-15.14,-988.77,-0.92,4.23,1.01,10.80,42.45,-1.80,30.33,10.119
01/01/2000,00:19:40.61,-16.11,-7.81,-977.54,1.69,0.51,0.14,11.55,40.80,-3.75,30.19,10.117
01/01/2000,00:19:40.71,1.95,-12.21,-985.35,3.64,-0.89,-0.38,10.20,40.95,-1.65,29.80,10.115
01/01/2000,00:19:40.81,-5.86,-8.79,-996.09,2.57,-0.67,0.61,10.80,39.60,-3.0,30.19,10.112
01/01/2000,00:19:40.91,8.30,-32.71,-993.16,0.18,-0.73,-1.06,11.55,39.60,-1.50,29.99,10.110
01/01/2000,00:19:41.01,-21.00,-19.53,-974.12,1.01,2.60,1.53,10.35,40.05,-4.50,30.28,10.090
01/01/2000,00:19:41.11,60.06,-8.79,-1009.28,1.94,-1.19,1.79,10.50,41.85,-2.70,30.33,10.088
01/01/2000,00:19:41.21,-29.30,-5.86,-988.77,2.95,-2.39,1.44,9.45,40.20,-2.70,29.80,10.087
01/01/2000,00:19:41.32,-9.28,-11.72,-984.38,1.11,1.05,-5.87,11.55,41.55,-4.50,29.90,10.085
01/01/2000,00:19:41.42,-36.13,-10.25,-989.26,1.41,-1.83,1.36,9.60,40.80,-1.80,30.14,10.084
01/01/2000,00:19:41.52,20.51,-9.28,-969.73,0.21,-0.67,-2.63,10.05,41.25,-1.80,30.33,10.083
01/01/2000,00:19:41.62,0.49,-13.18,-979.49,1.21,-1.18,-0.84,10.50,40.95,-4.65,30.14,10.081
01/01/2000,00:19:41.72,-21.97,-10.25,-984.38,2.72,2.53,2.37,11.40,42.60,-3.60,30.33,10.080
01/01/2000,00:19:41.82,8.30,-23.93,-1009.77,3.0,2.47,1.33,10.35,41.55,-3.75,30.33,10.079
01/01/2000,00:19:41.92,-184.57,-7.81,-933.11,-1.76,-3.74,-3.19,10.35,41.55,-2.25,30.19,10.078
01/01/2000,00:19:42.02,66.41,-13.18,-1000.98,-3.35,2.06,-2.23,10.50,42.60,-0.15,30.28,10.076
01/01/2000,00:19:42.12,-64.45,2.93,-972.66,-11.40,1.49,-0.22,9.75,43.35,-1.20,30.33,10.075
01/01/2000,00:19:42.22,-19.53,-3.42,-999.51,6.69,2.21,0.43,9.15,43.65,-1.50,30.52,10.059
01/01/2000,00:19:42.32,98.14,7.32,-906.25,3.05,-2.41,1.48,12.45,41.40,2.70,30.09,10.058
01/01/2000,00:19:42.42,0.98,-1.46,-1016.11,7.64,10.25,16.09,11.40,41.40,-0.90,30.43,10.057
01/01/2000,00:19:42.53,-6.35,-32.71,-966.31,8.50,6.04,2.20,9.0,37.80,-4.35,30.33,10.057
01/01/2000,00:19:42.63,41.02,-4.88,-962.89,-12.64,-4.24,9.69,10.20,37.80,-3.15,30.09,10.056
01/01/2000,00:19:42.73,17.09,-114.26,-889.16,2.97,-3.07,-47.08,6.90,36.45,-4.50,30.28,10.055
01/01/2000,00:19:42.83,35.16,-52.73,-981.45,1.57,1.27,-2.52,7.50,37.05,-2.40,29.95,10.054
01/01/2000,00:19:42.93,43.95,-65.43,-982.42,1.21,-0.44,1.73,6.90,37.95,-3.0,30.19,10.054
01/01/2000,00:19:43.03,29.79,-43.95,-981.45,-2.02,-7.32,0.26,7.80,36.15,-3.60,30.19,10.053
01/01/2000,00:19:43.13,32.71,-42.97,-987.79,-1.92,-1.88,0.75,8.25,38.25,-2.70,30.09,10.052
01/01/2000,00:19:43.23,36.13,-37.60,-969.73,0.94,-4.16,-2.11,8.70,40.20,-3.60,29.95,10.052
01/01/2000,00:19:43.33,17.09,-44.43,-983.40,1.49,3.57,3.25,9.60,37.95,-4.80,30.19,10.038
01/01/2000,00:19:43.43,32.71,-36.13,-983.89,0.91,1.79,-2.56,7.65,38.40,-4.05,30.28,10.038
01/01/2000,00:19:43.53,36.13,-45.41,-990.23,1.23,1.06,-2.55,8.70,36.15,-1.20,30.19,10.037
01/01/2000,00:19:43.64,52.25,-52.73,-994.14,2.92,4.82,3.82,7.80,37.05,-2.70,30.19,10.037
01/01/2000,00:19:43.74,44.92,-46.88,-984.86,-1.26,-1.68,0.32,8.25,36.60,-3.60,30.09,10.036
01/01/2000,00:19:43.84,43.95,-44.92,-976.56,0.13,2.22,-0.20,9.60,36.45,-0.75,29.95,10.036
01/01/2000,00:19:43.94,31.74,-57.13,-980.96,-1.78,-1.52,2.52,9.0,37.80,-2.40,30.43,10.035
01/01/2000,00:19:44.04,37.60,-40.53,-978.03,-0.82,-0.92,-1.85,10.35,36.45,-4.05,29.99,10.035
01/01/2000,00:19:44.14,39.55,-50.78,-988.28,-0.47,-0.17,2.49,8.25,36.60,-0.90,29.99,10.035
01/01/2000,00:19:44.24,34.18,-64.45,-981.93,-0.03,0.63,-1.78,7.80,35.85,-3.60,30.09,10.034
01/01/2000,00:19:44.34,45.90,-36.62,-982.91,-2.37,-5.31,-0.56,7.20,37.20,-2.25,30.33,10.034
01/01/2000,00:19:44.44,32.23,-41.02,-982.91,-0.25,-1.59,1.01,9.60,38.85,-2.25,30.33,10.033
01/01/2000,00:19:44.54,29.30,-32.71,-965.33,-2.08,-1.61,-1.56,10.35,35.55,-2.55,29.99,10.022
01/01/2000,00:19:44.64,31.25,-52.25,-981.93,0.39,-2.16,-2.05,10.05,38.40,-3.0,29.95,10.022
01/01/2000,00:19:44.74,29.30,-48.83,-989.26,-1.02,-3.62,0.34,8.40,37.95,-1.50,30.19,10.022
01/01/2000,00:19:44.85,21.97,-41.99,-978.03,1.86,-0.44,1.31,11.40,36.15,-2.70,30.19,10.021
01/01/2000,00:19:44.95,39.55,-38.09,-982.42,2.63,2.84,-1.45,8.85,38.40,-4.05,30.19,10.021
01/01/2000,00:19:45.05,50.78,-54.20,-984.86,0.26,-2.31,-1.73,8.40,37.65,-0.75,30.28,10.021
01/01/2000,00:19:45.15,27.83,-45.90,-970.21,1.24,-0.83,-0.73,10.05,36.75,-3.0,29.99,10.021
01/01/2000,00:19:45.25,36.13,-47.85,-962.40,1.81,-3.69,-2.17,9.15,36.45,-3.75,30.33,10.020
01/01/2000,00:19:45.35,33.69,-49.32,-982.42,0.57,1.94,-1.60,8.10,37.95,-3.75,30.19,10.020
01/01/2000,00:19:45.45,8.79,-59.08,-985.84,-0.29,-3.05,-1.61,10.20,39.0,-3.60,30.43,10.020
01/01/2000,00:19:45.55,22.95,-39.06,-990.72,-0.46,1.02,-0.76,9.60,37.20,-3.30,30.09,10.020
01/01/2000,00:19:45.65,10.74,-42.97,-981.93,0.85,0.50,-2.30,9.45,36.60,-3.15,30.47,10.020
01/01/2000,00:19:45.75,19.04,-41.02,-982.91,1.24,2.61,0.06,10.05,36.45,-2.55,30.33,10.010
01/01/2000,00:19:45.85,22.46,-40.04,-992.68,1.08,0.50,0.71,9.75,36.15,-1.20,29.95,10.010
01/01/2000,00:19:45.96,21.48,-42.48,-965.82,-0.63,-0.44,1.92,8.70,37.35,-3.90,30.09,10.010
01/01/2000,00:19:46.06,25.39,-43.95,-989.26,-0.40,-0.25,-0.70,10.35,36.75,-5.25,29.95,10.009
01/01/2000,00:19:46.16,19.04,-34.67,-990.23,0.25,0.65,-0.70,10.05,39.15,-3.75,30.19,10.009
01/01/2000,00:19:46.26,26.37,-33.69,-975.59,-0.40,-1.70,-0.33,10.50,38.25,-3.60,30.33,10.009
01/01/2000,00:19:46.36,19.04,-48.83,-978.52,0.89,2.47,-0.52,7.65,37.20,-3.30,30.33,10.009
01/01/2000,00:19:46.46,-1.46,-68.85,-908.69,0.19,0.31,-1.56,9.45,36.60,-3.15,30.09,10.009
01/01/2000,00:19:46.56,32.23,-31.25,-973.63,1.11,0.08,1.58,9.60,36.45,-1.80,30.33,10.009
01/01/2000,00:19:46.66,12.21,-44.92,-990.23,0.38,0.04,-2.28,10.80,36.75,-3.30,30.43,10.009
01/01/2000,00:19:46.76,33.69,-45.41,-987.30,0.21,-0.72,-0.94,9.75,38.25,-2.70,30.09,10.009
01/01/2000,00:19:46.86,25.88,-48.34,-968.75,-0.04,-2.54,-0.17,10.35,36.75,-4.50,30.28,10.009
01/01/2000,00:19:46.96,36.62,-41.50,-992.68,0.82,-0.48,-0.66,9.15,37.95,-1.80,30.33,10.0
01/01/2000,00:19:47.06,13.18,-47.85,-993.65,0.92,0.05,0.82,9.15,37.95,-3.0,29.99,10.0
01/01/2000,00:19:47.17,22.95,-41.99,-986.82,0.68,-0.52,-1.69,9.15,38.40,-3.30,30.33,10.0
01/01/2000,00:19:47.27,13.67,-40.53,-998.54,1.15,-0.63,-0.68,8.40,37.20,-0.30,30.14,10.0
01/01/2000,00:19:47.37,21.97,-52.73,-995.61,1.68,-1.0,-1.26,10.35,36.0,-2.55,30.47,10.0
01/01/2000,00:19:47.47,19.04,-43.95,-983.89,1.02,2.20,-0.69,9.0,36.60,-3.60,30.47,10.0
01/01/2000,00:19:47.57,16.60,-38.09,-969.73,0.24,1.06,0.0,9.45,36.15,-1.20,30.33,10.0
01/01/2000,00:19:47.67,14.16,-48.34,-997.07,-0.63,-0.65,0.10,8.85,37.20,-2.55,30.47,10.0
01/01/2000,00:19:47.77,19.53,-40.53,-990.72,-0.24,0.61,-0.31,8.85,36.75,-2.55,30.33,10.0
01/01/2000,00:19:47.87,32.71,-42.97,-990.72,-0.36,1.59,1.48,9.45,37.35,-1.95,29.99,10.0
01/01/2000,00:19:47.97,36.13,-41.02,-972.17,-0.01,2.15,-0.95,7.20,36.75,-2.55,30.47,10.0
01/01/2000,00:19:48.07,20.02,-46.88,-986.33,2.28,-1.65,0.51,8.40,37.95,-3.0,29.99,9.992
01/01/2000,00:19:48.17,21.00,-47.36,-979.98,-0.12,-6.08,0.15,8.70,37.05,-3.60,29.95,9.992
01/01/2000,00:19:48.28,14.65,-74.22,-985.35,2.11,-2.07,1.11,9.45,38.55,-1.65,30.52,9.992
01/01/2000,00:19:48.38,34.67,-35.64,-1016.11,0.64,0.99,0.15,8.85,39.15,-3.30,30.33,9.992
01/01/2000,00:19:48.48,28.32,-44.92,-991.21,0.38,2.23,-1.82,9.0,37.05,-1.65,29.95,9.992
01/01/2000,00:19:48.58,34.67,-66.41,-977.54,1.42,0.86,-0.34,8.10,37.65,-1.50,30.43,9.992
01/01/2000,00:19:48.68,29.79,-47.36,-982.91,-0.91,-4.90,-1.21,10.35,36.0,-1.80,30.33,9.992
01/01/2000,00:19:48.78,18.07,-36.62,-985.84,2.18,-3.01,0.56,10.05,37.95,-1.50,29.99,9.992
01/01/2000,00:19:48.88,1.46,-42.97,-987.79,1.13,-1.57,-1.38,8.40,37.20,-3.0,30.33,9.993
01/01/2000,00:19:48.98,16.60,-43.46,-994.63,-2.85,-4.60,-2.08,8.25,37.80,-2.40,30.47,9.993
01/01/2000,00:19:49.08,12.70,-25.39,-1001.46,0.99,-4.01,1.46,9.0,36.60,-3.90,30.19,9.993
01/01/2000,00:19:49.18,8.30,-48.34,-999.51,-2.04,-8.62,-0.18,9.60,39.15,-2.25,30.28,9.985
01/01/2000,00:19:49.28,-62.99,-38.57,-984.86,0.77,-8.25,-0.37,9.75,37.35,-2.70,30.47,9.986
01/01/2000,00:19:49.38,2.44,-53.71,-1020.02,3.33,-19.22,-3.44,11.70,40.20,-2.40,30.19,9.986
01/01/2000,00:19:49.49,-28.32,-43.95,-973.14,3.81,-4.94,-0.57,12.30,39.60,-2.25,30.19,9.986
01/01/2000,00:19:49.59,-54.20,-48.83,-980.96,-1.53,-2.76,2.34,11.85,39.15,-1.05,30.28,9.986
01/01/2000,00:19:49.69,-59.08,-52.73,-995.61,2.26,4.70,0.45,11.85,39.15,-3.75,30.33,9.986
01/01/2000,00:19:49.79,-48.83,-50.78,-996.09,-3.18,1.39,-0.45,12.45,38.55,-1.65,30.52,9.986
01/01/2000,00:19:49.89,-73.73,-52.25,-996.09,2.05,-1.48,-1.37,10.80,37.20,-3.75,30.33,9.986
01/01/2000,00:19:49.99,-59.57,-51.76,-1003.91,1.92,5.87,0.87,11.10,38.85,-3.30,30.33,9.986
01/01/2000,00:19:50.09,-62.99,-59.57,-993.16,0.59,0.70,-2.21,10.20,38.25,-3.90,30.28,9.986
01/01/2000,00:19:50.19,-59.08,-67.87,-989.26,-3.92,1.60,0.59,10.80,37.65,-3.30,30.47,9.986
01/01/2000,00:19:50.29,-63.96,-53.22,-989.75,-1.0,2.25,1.29,10.35,37.95,-3.75,30.33,9.987
01/01/2000,00:19:50.39,-57.62,-60.06,-976.07,-0.11,-0.24,2.01,9.75,39.0,-3.90,30.28,9.980
01/01/2000,00:19:50.49,-70.31,-52.73,-971.19,-0.02,1.78,1.79,9.45,38.55,-3.60,29.99,9.980
01/01/2000,00:19:50.59,-51.76,-57.13,-1008.79,-2.35,-0.24,-0.31,9.75,38.55,-1.65,30.43,9.980
01/01/2000,00:19:50.70,-63.48,-40.04,-990.72,-0.63,2.46,0.56,10.80,37.95,-2.55,30.43,9.980
01/01/2000,00:19:50.80,-55.66,-45.90,-978.03,1.22,-3.72,-1.94,11.55,39.15,-0.30,30.33,9.980
01/01/2000,00:19:50.90,-57.13,-69.34,-998.54,1.15,0.45,0.31,11.40,40.65,-1.65,30.43,9.981
01/01/2000,00:19:51.00,-61.52,-55.18,-970.21,-2.31,-1.88,-2.40,10.20,40.65,-0.90,30.43,9.981
01/01/2000,00:19:51.10,-71.29,-48.83,-968.75,-0.23,-1.78,0.28,11.40,38.25,0.90,30.33,9.981
01/01/2000,00:19:51.20,-41.99,-56.64,-960.94,0.38,-0.27,0.53,11.40,39.75,0.45,30.43,9.981
01/01/2000,00:19:51.30,-47.85,-47.36,-973.14,-1.73,-3.03,-3.11,12.45,39.45,0.15,29.95,9.981
01/01/2000,00:19:51.40,-62.99,-42.97,-976.07,2.82,0.42,-0.88,12.15,40.95,0.45,30.33,9.981
01/01/2000,00:19:51.50,-69.82,-52.25,-986.33,3.27,0.85,-0.97,12.30,37.95,-0.75,30.43,9.975
01/01/2000,00:19:51.60,-55.66,-42.48,-982.42,2.44,1.02,-1.40,12.75,41.55,2.25,30.19,9.975
01/01/2000,00:19:51.70,-61.52,-50.29,-992.19,2.66,-1.26,0.53,12.90,40.95,1.20,30.52,9.975
01/01/2000,00:19:51.81,-59.57,-45.41,-998.54,2.31,-1.96,0.51,12.15,39.75,0.45,30.43,9.976
01/01/2000,00:19:51.91,-71.29,-49.32,-1006.35,-1.65,0.44,2.02,13.20,39.75,2.40,29.95,9.976
01/01/2000,00:19:52.01,-68.36,-55.66,-1003.91,0.92,-2.15,0.02,11.40,40.95,2.70,30.47,9.976
01/01/2000,00:19:52.11,-69.34,-53.22,-975.59,0.21,2.72,1.03,12.30,40.80,1.05,30.33,9.976
01/01/2000,00:19:52.21,-81.05,-45.41,-994.14,-2.10,1.37,2.09,12.30,39.60,2.55,30.28,9.976
01/01/2000,00:19:52.31,-57.62,-43.95,-964.36,-3.11,3.75,0.71,11.70,39.45,2.40,30.33,9.976
01/01/2000,00:19:52.41,-49.80,-44.43,-962.40,0.39,-0.42,-1.95,11.55,40.05,3.0,29.95,9.976
01/01/2000,00:19:52.51,-54.20,-43.95,-988.77,2.90,-0.11,-0.60,11.55,41.25,2.25,30.47,9.977
01/01/2000,00:19:52.61,-76.17,-54.20,-964.36,1.53,-0.10,0.81,12.75,40.80,1.80,30.47,9.977
01/01/2000,00:19:52.71,-46.88,-41.02,-987.79,2.62,-0.73,-1.64,11.85,41.55,3.0,30.19,9.971
01/01/2000,00:19:52.81,-58.11,-48.34,-981.93,4.38,0.69,-0.15,10.35,40.35,0.75,30.43,9.971
01/01/2000,00:19:52.91,-47.85,-48.34,-1001.95,-0.27,0.84,-2.07,12.90,40.95,0.90,30.28,9.971
01/01/2000,00:19:53.02,-49.80,-40.53,-983.40,1.34,-0.66,-2.30,13.80,40.35,0.75,30.33,9.972
01/01/2000,00:19:53.12,-57.62,-45.41,-977.05,-4.47,1.22,0.69,11.55,41.25,0.0,30.43,9.972
01/01/2000,00:19:53.22,-57.62,-45.90,-989.26,-0.67,0.85,-0.27,11.55,40.35,1.05,30.43,9.972
01/01/2000,00:19:53.32,-62.99,-54.69,-956.54,0.10,0.43,0.73,11.55,41.55,0.0,30.33,9.972
01/01/2000,00:19:53.42,-46.88,-40.53,-983.89,-2.44,-1.51,0.85,11.70,39.75,0.45,30.33,9.972
01/01/2000,00:19:53.52,-50.29,-45.41,-978.52,-0.82,2.79,1.73,12.45,41.85,1.65,30.33,9.972
01/01/2000,00:19:53.62,-45.90,-55.18,-996.58,5.42,-0.31,-0.32,10.95,39.45,1.95,30.52,9.972
01/01/2000,00:19:53.72,-81.54,-46.39,-999.02,2.19,3.99,1.82,12.15,40.20,2.70,30.52,9.973
01/01/2000,00:19:53.82,-55.18,-49.80,-988.28,2.89,-1.18,0.0,12.30,40.80,0.75,30.47,9.973
01/01/2000,00:19:53.92,-66.89,-49.80,-986.33,0.34,0.18,-2.87,12.75,40.80,-0.30,30.33,9.967
01/01/2000,00:19:54.02,-59.57,-52.73,-962.40,2.76,-0.03,1.82,11.40,39.75,1.65,30.43,9.968
01/01/2000,00:19:54.13,-30.76,-54.20,-978.52,-1.28,2.14,1.82,11.55,41.25,3.0,30.33,9.968
01/01/2000,00:19:54.23,-52.73,-34.67,-959.47,0.39,1.34,3.39,11.70,39.75,1.65,30.33,9.968
01/01/2000,00:19:54.33,-53.71,-49.80,-977.54,1.79,-3.95,0.28,12.90,40.95,-0.15,30.47,9.968
01/01/2000,00:19:54.43,-56.15,-54.69,-997.56,-0.71,0.63,-0.41,11.70,39.45,0.90,30.62,9.968
01/01/2000,00:19:54.53,-39.06,-62.99,-994.14,-0.77,0.20,-1.66,11.55,40.35,1.50,30.52,9.969
01/01/2000,00:19:54.63,-31.25,-41.02,-973.14,3.44,0.41,-1.68,12.75,40.80,0.30,30.52,9.969
01/01/2000,00:19:54.73,-59.08,-46.39,-991.21,1.48,2.59,-0.85,11.85,40.05,2.25,30.62,9.969
01/01/2000,00:19:54.83,-53.71,-61.52,-994.63,0.54,2.92,-0.79,12.15,39.75,2.40,30.43,9.969
01/01/2000,00:19:54.93,-51.76,-46.88,-997.56,2.38,-1.65,-2.95,11.10,40.80,1.50,30.09,9.969
01/01/2000,00:19:55.03,-62.50,-55.66,-985.84,1.68,-4.53,-1.99,11.40,38.55,2.70,30.33,9.964
01/01/2000,00:19:55.13,-66.41,-51.27,-1008.79,2.37,0.04,0.44,10.95,39.45,1.95,30.43,9.964
01/01/2000,00:19:55.23,-63.48,-64.94,-995.61,-0.44,-0.15,-3.71,11.40,38.25,1.95,30.19,9.965
01/01/2000,00:19:55.34,-66.41,-59.08,-984.86,-2.80,1.82,1.91,8.85,40.35,1.05,30.62,9.965
01/01/2000,00:19:55.44,-38.57,-58.59,-1006.84,1.72,0.87,3.74,9.75,37.35,0.15,30.28,9.965
01/01/2000,00:19:55.54,-31.74,-56.15,-974.12,3.69,-1.01,-2.01,9.45,39.0,0.45,30.43,9.965
01/01/2000,00:19:55.64,-62.01,-48.34,-983.89,-0.01,0.42,-2.02,10.05,38.40,-1.05,30.52,9.965
01/01/2000,00:19:55.74,-46.88,-57.13,-982.42,-0.26,2.23,3.05,8.10,37.95,1.05,30.47,9.965
01/01/2000,00:19:55.84,-55.18,-58.11,-994.63,0.76,2.63,-0.06,10.50,40.65,1.65,30.33,9.966
01/01/2000,00:19:55.94,-20.51,-59.08,-997.07,1.60,-3.29,-0.24,10.80,39.60,0.75,30.47,9.966
